time,seconds_elapsed,z,y,x
1717857925557661700,0.10666162109375,0.03963526029586792,-0.01646313208825886,-0.04282938472863752
1717857925567702800,0.116702880859375,0.01823474487066269,-0.013848127284273504,-0.038315286571369504
1717857925577744000,0.126743896484375,0.008055880683660506,-0.015979330626688895,-0.03128839730899781
1717857925587784000,0.136783935546875,0.01852875938117504,-0.015333945395238696,-0.035157886552950365
1717857925597824800,0.14682470703125,0.02271802776455879,-0.020721812446042893,-0.02638767445432022
1717857925607865900,0.156865966796875,0.007903320470452307,-0.020267748535610735,-0.04920600708846468
1717857925617906700,0.16690673828125,0.010745265898108482,-0.009018551703356206,-0.028990468230703843
1717857925627946800,0.17694677734375,0.0459101027816534,-0.017714447323605418,-0.025336868493445217
1717857925637987800,0.18698779296875,0.02166939549446106,-0.014141849533841013,-0.0344555378367193
1717857925648029000,0.19702880859375,0.01732932046353817,-0.014871040591225028,-0.02217518502555322
1717857925658069800,0.20706982421875,0.029147184029221535,-0.012247048763185739,-0.026216071613924575
1717857925668109800,0.21710986328125,0.03333528336882591,-0.021337496658973394,-0.0232938411914045
1717857925678151000,0.22715087890625,0.010437807384133338,-0.019237309509329496,-0.028972731644613666
1717857925688192000,0.23719189453125,0.023753800553083418,-0.019187880877032874,-0.03792763439407572
1717857925698232800,0.24723291015625,0.02150982101857662,-0.0093270331306383,-0.028554387501534072
1717857925708273000,0.25727294921875,0.01298047760426998,-0.011558080118335782,-0.021364754558657294
1717857925718314000,0.26731396484375,0.04784311667084694,-0.011170834366418421,-0.02635205058509018
1717857925728354800,0.277354736328125,0.03901157543957233,-0.022016236170753836,-0.032404733653599395
1717857925738396000,0.28739599609375,0.01476911458671093,-0.017929660976864395,-0.023305938054574652
1717857925748436000,0.29743603515625,0.03691372637748718,-0.016678163078427313,-0.0344100501606008
1717857925758477000,0.30747705078125,0.040053777968883514,-0.01180069323517382,-0.027846609124937093
1717857925768518000,0.317517822265625,0.04528934053480625,-0.012023651803471147,-0.03788264447487891
1717857925778559000,0.32755908203125,0.023141806134581566,-0.008825659479759633,-0.022517655487405135
1717857925788598800,0.337598876953125,0.02673135505914688,-0.03136792881861329,-0.03400415907371789
1717857925798639900,0.347639892578125,0.02148994727432728,-0.0053504211172461505,-0.023840656852629035
1717857925808680700,0.3576806640625,0.011461305212974547,-0.015444968021661043,-0.026242178736138155
1717857925818720800,0.367720703125,0.011310498565435409,-0.02424264351595193,-0.02786385252068285
1717857925828761900,0.377761962890625,0.01834229689836502,-0.027961992832645773,-0.029876886543259023
1717857925838802700,0.387802734375,0.028516484910249707,-0.031078334754891693,-0.04132197584037203
1717857925848843800,0.39784375,0.0297106631308794,-0.01227722470574081,-0.03954580561385956
1717857925858883800,0.4078837890625,0.005021043032407761,-0.021869338513351974,-0.03134952551224269
1717857925868925000,0.417925048828125,0.013850246176123618,-0.029953239715099333,-0.02933739567196462
1717857925878965800,0.4279658203125,0.03000993833839893,-0.026762626980245112,-0.02949610706474632
1717857925889006800,0.4380068359375,0.025817747345566747,-0.0005166442852467298,-0.029787514059641397
1717857925899047000,0.448046875,0.021177228063344954,-0.00896557940710336,-0.026718102851929142
1717857925909088000,0.458087890625,0.014742226579785345,-0.008954948415234684,-0.02712864728104323
1717857925919128800,0.46812890625,0.01339139649271965,-0.017818126893788575,-0.032637834589998235
1717857925929170000,0.478169921875,0.03433656936585903,-0.011388239976763725,-0.028478139360970815
1717857925939210000,0.4882099609375,0.024459318473935125,-0.031409977862052615,-0.033410001706006005
1717857925949250800,0.498250732421875,0.000218026664853096,-0.03410568321943283,-0.03368499185563996
1717857925959292000,0.5082919921875,0.021013561934232712,-0.013922434629499911,-0.03312649488977622
1717857925969333000,0.5183330078125,0.057822074371576306,-0.022084954025410115,-0.034150015551503744
1717857925979373000,0.528373046875,0.04285539138615131,-0.014361081775091588,-0.02785673779330682
1717857925989414000,0.538413818359375,0.012628595426678657,-0.0011643310716375709,-0.01840125597740989
1717857925999455000,0.548455078125,0.005595043528079986,-0.01792103927899152,-0.012241463839192874
1717857926009496000,0.55849609375,0.030285248148441312,-0.016413411195017397,-0.024402377822040577
1717857926019536000,0.568535888671875,0.05332827008366584,-0.006328289706073701,-0.027782375649153253
1717857926029576700,0.57857666015625,0.0292401230096817,-0.019599968809261917,-0.04441510585038923
1717857926039617800,0.58861767578125,0.0015606734454631805,-0.018952062827162445,-0.04622507788180373
1717857926049659000,0.598658935546875,0.005001753810048103,-0.030631431237608194,-0.02835926678823307
1717857926059699000,0.608698974609375,0.030440730971097944,-0.03318078692685812,-0.033768222292838615
1717857926069739800,0.61873974609375,0.029244214662909506,-0.010897314654663204,-0.02824591064082924
1717857926079780900,0.62878076171875,0.016973931154608726,-0.0117978436909616,-0.030074176380760036
1717857926089821700,0.63882177734375,0.015474632507562636,0.009526282029785215,-0.02327963000296149
1717857926099861800,0.64886181640625,0.012182020702958107,-0.005411138328537344,-0.02420290516060777
1717857926109902800,0.65890283203125,0.023104981255531308,-0.007784845189936458,-0.02942342085444834
1717857926119944000,0.66894384765625,0.04524959304630756,-0.012376958753168582,-0.03839212380039971
1717857926129984800,0.67898486328125,0.029389760613441465,-0.024400427893549202,-0.024605225184070878
1717857926140024800,0.68902490234375,0.002457330024242401,-0.022826821901276707,-0.03101871352214366
1717857926150066000,0.69906591796875,0.019516601374745368,-0.012517280539311467,-0.03732169069044757
1717857926160107000,0.70910693359375,0.027447394374012946,-0.01580883289799094,-0.024742715692310593
1717857926170147800,0.71914794921875,0.026698037311434743,-0.012335384633764624,-0.02175226517205592
1717857926180188000,0.72918798828125,0.012484218519926071,-0.012243906958028673,-0.023725971831241623
1717857926190229000,0.73922900390625,0.010092354947328568,-0.012147314715757966,-0.027673823541030287
1717857926200269800,0.749269775390625,0.01907294926047325,-0.010581453638523816,-0.0242304690209683
1717857926210311000,0.759310791015625,0.04810264438986778,-0.02060735575351864,-0.03094115020732861
1717857926220351000,0.76935107421875,0.04121814557313919,-0.013532996920496225,-0.03287777169256005
1717857926230392000,0.77939208984375,0.010393383720517157,-0.023587504075467586,-0.03525378467547707
1717857926240433000,0.789432861328125,0.01293430037498474,-0.01601169852633029,-0.03139454739748034
1717857926250474000,0.799473876953125,0.02864800233542919,-0.01697046055588871,-0.02208486269386485
1717857926260513800,0.809513671875,0.02176642612814903,-0.018214542332850397,-0.032744139942107724
1717857926270555000,0.819554931640625,0.031195348730683324,-0.00810991242583841,-0.019634642830421215
1717857926280595700,0.829595703125,0.03254325620830059,-0.011002017138153315,-0.017230129838804713
1717857926290636800,0.83963671875,0.021772271347045898,-0.018715806385874747,-0.030727279127785005
1717857926300676900,0.8496767578125,0.030599720925092694,-0.008786277317442,-0.028511260745860634
1717857926310718000,0.859718017578125,0.03299509162902832,-0.017781521210446953,-0.02710298311682418
1717857926320759000,0.869759033203125,0.03209726600646973,-0.03186192288063466,-0.04040495232699905
1717857926330800000,0.879800048828125,0.01279401512145996,-0.016588438968360424,-0.039265454302518626
1717857926340840200,0.889840087890625,0.02132511210143566,-0.017081446649692952,-0.0319917598053813
1717857926350881000,0.899881103515625,0.025967969471216202,-0.011072926949895917,-0.02463142363782972
1717857926360922000,0.909922119140625,0.020132687446475027,-0.02667034558691084,-0.018756357591971754
1717857926370963200,0.919963134765625,0.02656885797381401,-0.012219064777716993,-0.03231209150066133
1717857926381003300,0.930003173828125,0.013251695761084556,-0.015531221533007919,-0.032861085419240404
1717857926391044000,0.940044189453125,0.03525193064510822,-0.01444521639458835,-0.03423104946503881
1717857926401085200,0.950085205078125,0.02941489505469799,-0.019645890310220418,-0.027048179623088798
1717857926411126000,0.9601259765625,0.0033779520004987716,-0.014258132857270537,-0.0376780252808705
1717857926421166000,0.970166015625,0.0042763621449470515,-0.00933547216542065,-0.031830267367046326
1717857926431207200,0.980207275390625,0.011460136169195174,-0.016270532125607133,-0.023288356732111423
1717857926441248300,0.990248291015625,0.044533553731441494,-0.011889978953823446,-0.014898412655340507
1717857926451289000,1.0002890625,0.03974631945490837,-0.015805873755924404,-0.010149199701100587
1717857926461329200,1.0103291015625,0.04169277734756469,-0.01765573940631002,-0.015147103886515833
1717857926471370200,1.020370361328125,0.03960077350437641,-0.03255973241906613,-0.030088095308258195
1717857926481411300,1.030411376953125,0.010420856249332427,-0.01519976108893752,-0.03871759289510082
1717857926491452200,1.0404521484375,-0.000800210466980934,-0.0056964580759406086,-0.03552572891807649
1717857926501492000,1.050491943359375,0.008031915286183357,-0.015984445193223656,-0.04255330316703766
1717857926511533000,1.060532958984375,0.02030336783826351,-0.017508805216290054,-0.06199080229043029
1717857926521574100,1.07057421875,0.023147066831588743,-0.015412600122019648,-0.04574947342642117
1717857926531615000,1.080614990234375,0.02674012288749218,-0.023427893066965043,-0.01960162647680845
1717857926541655000,1.090655029296875,0.023303718698024747,-0.037836686441302295,-0.014719982781936414
1717857926551696100,1.100696044921875,0.032583588218688966,-0.03207373900040984,-0.028783657079609108
1717857926561737000,1.110737060546875,0.033332945281267165,-0.0042913039857521654,-0.03393569694738835
1717857926571778000,1.120778076171875,0.01014145478606224,-0.0013656257973983883,-0.03348541872950736
1717857926581818000,1.130818115234375,0.01837327655851841,-0.00935991248693317,-0.030644614946166982
1717857926591859200,1.140859130859375,0.035732407638430594,-0.028846045658178627,-0.024646771904011256
1717857926601900000,1.150900146484375,0.02376198385953903,-0.011068068111687897,-0.02117427348785568
1717857926611941000,1.160941162109375,0.016729016482830046,-0.011951536415331065,-0.02046948621936608
1717857926621981200,1.170981201171875,0.01822889965176582,-0.014884338464215397,-0.03359504398328718
1717857926632022000,1.18102197265625,0.02810848863124847,-0.007797485475800931,-0.03483277365127578
1717857926642063000,1.19106298828125,0.04157879557907581,-0.010111023115180431,-0.029995549053442663
1717857926652104200,1.201104248046875,0.026467151165008543,-0.026804310697503386,-0.027979720285581423
1717857926662144300,1.211144287109375,0.009558686462044715,-0.013515534329041838,-0.01217843137322925
1717857926672185000,1.22118505859375,0.026170214045047758,-0.017767894543893634,-0.029777120529790407
1717857926682226200,1.23122607421875,0.03275660669803619,-0.01889788495451212,-0.03632820440737996
1717857926692267300,1.241267333984375,0.02497720486819744,-0.018798845026828347,-0.03467778401896357
1717857926702307300,1.251307373046875,0.017199556604027746,-0.007703961973451077,-0.03241594916735776
1717857926712348200,1.26134814453125,0.014660393515229225,-0.02236157900970429,-0.03570786685221828
1717857926722389200,1.27138916015625,0.02154606137573719,-0.03321531025096774,-0.03658227963314857
1717857926732430300,1.281430419921875,0.02334405070841312,-0.017714008932188153,-0.03656949778338894
1717857926742470100,1.29147021484375,0.025588614764809607,-0.02057272283155471,-0.026686250975518487
1717857926752511000,1.301510986328125,0.02005202342569828,-0.013848967534489928,-0.03052952806598041
1717857926762552000,1.311552001953125,0.023193244060873985,-0.018002580082602797,-0.01823359865976963
1717857926772593000,1.321593017578125,0.020949264526367185,-0.018780542185157536,-0.031168707318929952
1717857926782633000,1.331633056640625,0.03291851926147937,-0.011552855953946709,-0.02799520098250359
1717857926792674000,1.341674072265625,0.032471944537758826,-0.017751820191927253,-0.029964930152893064
1717857926802715100,1.351715087890625,0.02678922272622585,-0.01607405970543623,-0.031182238087360745
1717857926812756000,1.361755859375,0.026641338688135147,-0.0155061236243695,-0.02330725779540371
1717857926822796000,1.371796142578125,0.026491116562485692,-0.022701515021175143,-0.02815463389449287
1717857926832837000,1.381837158203125,0.029784897410869596,-0.01675623328331858,-0.02729509902228601
1717857926842878200,1.391878173828125,0.02305354332923889,-0.010981230078451336,-0.04976724400068633
1717857926852919000,1.4019189453125,0.024401450806856153,-0.024645525228418407,-0.024127953927987254
1717857926862959000,1.411958984375,0.02140928325355053,-0.019437654387019575,-0.03037937900556717
1717857926873000200,1.422000244140625,0.03323240751624107,-0.030267383698187766,-0.030079752171598372
1717857926883041000,1.432041015625,0.02694996624588966,-0.021197649796865878,-0.03821336513343267
1717857926893082000,1.44208203125,-0.07330547470748425,-0.02784004695340991,-0.025067221239209174
1717857926903122200,1.4521220703125,0.03668108666539192,-0.030048991707153618,-0.011448897822550498
1717857926913163300,1.462163330078125,0.072897478428483,-0.011199804732576013,-0.031691790478117765
1717857926923204000,1.4722041015625,0.10611702646315097,-0.009706132108718157,-0.03230742902527563
1717857926933245200,1.4822451171875,0.10865735859572886,-0.03710672819893807,-0.01114357646673452
1717857926943285200,1.49228515625,0.009000468057394026,-0.061539560524746774,-0.03156946100639179
1717857926953326300,1.502326416015625,-0.082875267085433,-0.03704429395459592,-0.02063084622696042
1717857926963367200,1.5123671875,-0.01793137800991535,-0.02648461375646293,-0.024420114408130755
1717857926973408300,1.522408203125,0.09040800067782402,0.01251918023545295,-0.030556877297209573
1717857926983448000,1.532447998046875,0.0911538506090641,0.015738836401700974,-0.026834002582868558
1717857926993489200,1.5424892578125,-0.001325111123919487,-0.004234861090779305,-0.01481234637366142
1717857927003530000,1.552530029296875,-0.05324877510666847,-0.02521956225670874,-0.01369721103888005
1717857927013571000,1.562571044921875,0.0012210662275552748,-0.04262110770624131,-0.02402665354455821
1717857927023611100,1.572611083984375,0.08741291051506996,-0.02662409529238939,-0.03379377229262609
1717857927033652000,1.58265185546875,0.04805763620436191,-0.030181495513021944,-0.0473177182569867
1717857927043693000,1.592693115234375,-0.021971593311429023,-0.021395072065107525,-0.046758075080229895
1717857927053734100,1.602734130859375,-0.012242810979485512,-0.022063180585019288,-0.023998929853993465
1717857927063774200,1.612774169921875,0.05120353301465511,-0.015638992756418883,-0.008535549392807297
1717857927073815000,1.62281494140625,0.05449380673170089,-0.017234664450027047,-0.016143257050705143
1717857927083856100,1.632856201171875,0.022471359527111053,-0.012736622378416359,-0.021411109884455798
1717857927093897200,1.642897216796875,0.008108487653732298,-0.012967143198661506,-0.01959914225877728
1717857927103937000,1.65293701171875,0.010203414106369019,-0.02881839046627283,-0.02470261657736264
1717857927113978000,1.66297802734375,0.028908699098229407,-0.031836532711051406,-0.034240324183460326
1717857927124019200,1.673019287109375,0.06123334411978721,-0.036866380104422565,-0.027369369834894314
1717857927134060000,1.68306005859375,0.02502162853181362,-0.03899462430477142,-0.026147714518872087
1717857927144100000,1.69310009765625,-0.009991232660412788,-0.017504129041172562,-0.0345889138588449
1717857927154141200,1.70314111328125,0.001384147834777832,-0.01923888041190803,-0.024843573117745106
1717857927164182300,1.713182373046875,0.03849602713286877,-0.007763802401907742,-0.023217944677290506
1717857927174223000,1.72322314453125,0.04209083675444126,0.0020084537455812095,-0.02819549106126651
1717857927184263200,1.73326318359375,0.010818915656208992,-0.0281356688991189,-0.025689252994535488
1717857927194304300,1.74330419921875,0.010818331134319304,-0.012420578699186443,-0.02770931041294243
1717857927204345300,1.753345458984375,0.027726795837283134,-0.02542217215672135,-0.034582717013498764
1717857927214386200,1.76338623046875,0.058849663853645325,-0.0313572247615084,-0.0375650618591113
1717857927224427300,1.77342724609375,0.04328969115018844,-0.03455218487791717,-0.030303464225144124
1717857927234467000,1.783467041015625,0.011264905858039855,-0.030180363001860677,-0.025825104101537724
1717857927244508000,1.7935078125,0.0009404957205057144,-0.020017025177553296,-0.018939911165065132
1717857927254549000,1.803549072265625,0.02308744559884071,-0.020645934198237955,-0.02230450592706911
1717857927264590000,1.813590087890625,0.046129883012175556,-0.007577047658152878,-0.0218547391658416
1717857927274630100,1.823630126953125,0.03026888153553009,-0.014173048389703034,-0.022473492118692956
1717857927284671000,1.8336708984375,0.003335281902551651,-0.014796112191490829,-0.033305230723856945
1717857927294712000,1.843712158203125,0.009321955096721648,-0.026655184550397098,-0.03229432294853032
1717857927304753200,1.853753173828125,0.03550853575468063,-0.021418672136403617,-0.026297525652567856
1717857927314793200,1.863793212890625,0.0263818109691143,-0.029373138272203503,-0.03933967031619977
1717857927324834000,1.873833984375,0.024585575202107426,-0.02935476236529648,-0.04384192733862437
1717857927334875100,1.883875244140625,0.014561024793982505,-0.025049283723719416,-0.03004845285103656
1717857927344916200,1.893916259765625,0.007530395504832268,-0.01660732633192092,-0.023386044952925292
1717857927354956000,1.9039560546875,0.02997428250312805,-0.0008711933439597487,-0.01627634994504042
1717857927364997000,1.9139970703125,0.03207154704332352,-0.017245039713568985,-0.03315479853565339
1717857927375038200,1.9240380859375,0.020700842723250387,-0.03572035187445581,-0.03204522985855583
1717857927385079000,1.9340791015625,0.022799860829114914,-0.02480148297511041,-0.040924331992026414
1717857927395119000,1.944119140625,0.028034838873147963,-0.02205291491933167,-0.03981437972243875
1717857927405160200,1.95416015625,0.030430209577083586,-0.02568071349505335,-0.03289011971747968
1717857927415201300,1.964201171875,0.021156769797205925,-0.027888270009309053,-0.025596560609247535
1717857927425242000,1.9742421875,0.013527590093016623,-0.028724647768214342,-0.0216852141181007
1717857927435282200,1.9842822265625,0.03358078256249428,-0.017855536294728518,-0.019403121929755435
1717857927445323300,1.9943232421875,0.023854922839999196,-0.020590477683953938,-0.016475270050624383
1717857927455364400,2.0043642578125,0.03208440652489662,-0.016990078571811316,-0.023600139794754796
1717857927465405200,2.0144052734375,0.026847090393304823,-0.021034239396080373,-0.025190833919146095
1717857927475445000,2.024445068359375,0.02894435493350029,-0.014233290676958858,-0.028020901679340748
1717857927485486000,2.034486083984375,0.024303835651278496,-0.02076444601137191,-0.027269498790148644
1717857927495527000,2.04452685546875,0.025796120035648344,-0.023499387400597333,-0.03046135820059571
1717857927505568000,2.054568115234375,0.027442718198895454,-0.030412783518247305,-0.01797912157520186
1717857927515608000,2.064608154296875,0.021608020696043968,-0.024608517686277625,-0.02442885027043521
1717857927525649200,2.074649169921875,0.016072598400712013,-0.023882431901432574,-0.02017849478300195
1717857927535690000,2.08468994140625,0.023103812211751937,-0.017833105267211793,-0.01635072122234851
1717857927545731000,2.09473095703125,0.031183658292889594,-0.013610482603497802,-0.023565712368767706
1717857927555771100,2.104771240234375,0.024451135167479515,-0.016504158218391237,-0.02458572133257985
1717857927565812200,2.114812255859375,0.018016133683919907,-0.013938326318375766,-0.03477723493860103
1717857927575853000,2.12485302734375,0.028639234507083892,-0.03364592022057623,-0.029374608710082246
1717857927585894100,2.13489404296875,0.03178103966414928,-0.026149938441999254,-0.03548725550463423
1717857927595934200,2.144934326171875,0.02160568260848522,-0.016740560790151356,-0.01971619276718702
1717857927605975000,2.15497509765625,0.019513094243407247,-0.016831271280907095,-0.01843782969471067
1717857927616016100,2.16501611328125,0.026399931147694587,-0.020372706747427582,-0.02216566827853676
1717857927626057200,2.17505712890625,0.01697334663271904,-0.02174549293797463,-0.0275541746501578
1717857927636097300,2.18509716796875,0.019067104041576386,-0.026509200208447874,-0.0361514322015224
1717857927646138000,2.19513818359375,0.02235679323673248,-0.023152144865505396,-0.036872905743331644
1717857927656179200,2.20517919921875,0.031034605211019514,-0.01594973920602351,-0.03605049714427441
1717857927666220300,2.21522021484375,0.01891512835025787,-0.020476715111173688,-0.023760225727292708
1717857927676261000,2.22526123046875,0.015473463463783263,-0.014804405095800756,-0.03343427763073705
1717857927686301200,2.23530126953125,0.03313128522932529,-0.025613310814648866,-0.02574911625587847
1717857927696342300,2.24534228515625,0.03148760967552662,-0.015348375779390334,-0.02858016126360744
1717857927706383000,2.255383056640625,0.02729775677025318,-0.024774448837712407,-0.033995802237326275
1717857927716424200,2.265424072265625,0.024753332984447478,-0.019986082050018013,-0.036888733500125816
1717857927726464000,2.275464111328125,0.023107903864979743,-0.016154906389303503,-0.03673173914039507
1717857927736505000,2.285505126953125,0.019516016852855683,-0.018095153736881912,-0.03815206340025179
1717857927746546000,2.2955458984375,0.026848259437084198,-0.006726020319387316,-0.022668695030384697
1717857927756587000,2.3055869140625,0.020713702204823492,-0.014677271584793924,-0.021779673768789507
1717857927766627000,2.315626953125,0.030588030487298964,-0.018211181331984697,-0.03238349450274836
1717857927776668200,2.325668212890625,0.02011398274600506,-0.01959722886290401,-0.029024023440433665
1717857927786709000,2.335708984375,0.013081015369296073,-0.012723726364225148,-0.027018506004032678
1717857927796750000,2.34575,0.03567804710268974,-0.015333689666911959,-0.025204803078994153
1717857927806790100,2.3557900390625,0.02056698721051216,-0.01704772704318166,-0.032671677494095636
1717857927816831200,2.365831298828125,0.03523264142274856,-0.02891494617592543,-0.028734602906648067
1717857927826872000,2.3758720703125,0.026703298008441925,-0.01948730221502483,-0.029052961840550413
1717857927836913200,2.3859130859375,0.021017653587460515,-0.013834719813428818,-0.01819457725705579
1717857927846953200,2.395953125,0.02341302429139614,-0.012531820521317422,-0.03222085128694307
1717857927856994000,2.405994140625,0.02461129416525364,-0.011518807553872466,-0.022970618852716868
1717857927867035100,2.41603515625,0.026555998492240905,-0.013755699760466812,-0.020331785648572256
1717857927877076200,2.426076171875,0.033137714970111844,-0.01745090101659298,-0.03414530284376815
1717857927887116300,2.4361162109375,-0.03988602018654346,-0.01791632657125592,-0.03828421101309359
1717857927897157000,2.4461572265625,-0.01160451307594776,-0.012847791135311126,-0.029983488722890615
1717857927907198200,2.4561982421875,0.07024784070253372,-0.005106894684955478,-0.0389964007033268
1717857927917239300,2.4662392578125,0.12276771701276301,0.0026308599602431057,-0.029788491307175716
1717857927927279000,2.476279052734375,0.09687748895287514,-0.02314103894960135,-0.036903168450854715
1717857927937320200,2.4863203125,0.0015565817922353743,-0.05973799099549651,-0.029831371467676945
1717857927947361300,2.496361328125,-0.07535890010595321,-0.0489101979130879,-0.03413660808065906
1717857927957402000,2.506402099609375,-0.022983985224366187,-0.02236008117236197,-0.03550913854287937
1717857927967442000,2.51644189453125,0.09208674754500389,0.01179400776606053,-0.024170596626470794
1717857927977483000,2.52648291015625,0.09477730180323124,0.02582640557605773,-0.013102638112637214
1717857927987524000,2.536524169921875,0.007089666000008582,0.009374598599411546,-0.014639209163305349
1717857927997565000,2.54656494140625,-0.058600657528638835,-0.024936726727336645,-0.01827048747090157
1717857928007605000,2.55660498046875,0.005296352842450142,-0.03815620071925223,-0.033934144311118866
1717857928017646000,2.56664599609375,0.08759586586654186,-0.033340105674415824,-0.032171532252500766
1717857928027687200,2.576687255859375,0.05691957257390022,-0.0344916137970984,-0.040916212617652485
1717857928037728000,2.58672802734375,-0.012062778237462043,-0.038108306456916034,-0.03511823952915147
1717857928047769000,2.59676904296875,-0.02732522929906845,-0.03349840150866657,-0.03955882035905961
1717857928057809200,2.60680908203125,0.03283259454369545,-0.024929602866806087,-0.03366838321413379
1717857928067850200,2.616850341796875,0.06979425171613693,-0.007159516365826129,-0.016178323797509074
1717857928077891000,2.62689111328125,0.03941664910912514,-0.015491620174981654,-0.006942434982466511
1717857928087932200,2.63693212890625,-0.010414426508545875,-0.010378551477566361,-0.01831010709523689
1717857928097972200,2.64697216796875,-0.010414426508545875,-0.01637994731683284,-0.026206554866908118
1717857928108013000,2.657012939453125,0.024751579418778417,-0.025397256911173463,-0.030802536321082152
1717857928118054100,2.66705419921875,0.063359834754467,-0.020055822817981243,-0.022764702750765718
1717857928128095200,2.67709521484375,0.044207975038886065,-0.030409751310944557,-0.02793825119745452
1717857928138135300,2.68713525390625,-0.0027788170635700223,-0.030706871093995867,-0.024917035646177827
1717857928148176100,2.697176025390625,-0.00367255103290081,-0.03264141935314983,-0.02486959804156795
1717857928158217200,2.70721728515625,0.03568330779969692,-0.014720160878449677,-0.017542894715559667
1717857928168258300,2.71725830078125,0.051394087150692935,-0.011843144137412309,-0.028609743551118297
1717857928178298000,2.727298095703125,0.027152795341610907,-0.011690839652530849,-0.027531022103433497
1717857928188339200,2.737339111328125,0.011592822638154029,-0.018193280349113047,-0.027727311860513873
1717857928198380300,2.74738037109375,0.02745557768046856,-0.030648930361680683,-0.042847431841981594
1717857928208421000,2.757421142578125,0.04271744422018528,-0.024626857060566543,-0.03209348031391855
1717857928218461000,2.7674609375,0.04421440477967262,-0.03494834458865225,-0.02382276956948917
1717857928228502000,2.777501953125,0.022366145586967468,-0.030714360280707478,-0.027109426557342522
1717857928238543000,2.787543212890625,0.005455342796444893,-0.03471691045295447,-0.03094001769616734
1717857928248584000,2.797583984375,0.02835048069357872,-0.01722717526331544,-0.028663455632887778
1717857928258624000,2.8076240234375,0.02999649433493614,-0.012293152927234768,-0.02397954016693402
1717857928268665000,2.8176650390625,0.039869069051742555,-0.008906579228863119,-0.017363072036090305
1717857928278706200,2.8277060546875,0.019967267751693725,-0.01802979688309133,-0.02351538412075024
1717857928288747000,2.8377470703125,0.02191372564435005,-0.019569171812199054,-0.0275165369203547
1717857928298788000,2.8477880859375,0.03657937985658646,-0.02018934953715652,-0.028323779916320926
1717857928308828400,2.857828369140625,0.04136778317689895,-0.03843574831299484,-0.027908956604311242
1717857928318869200,2.867869140625,0.029547581523656843,-0.015741539815440773,-0.029078338310401883
1717857928328910300,2.877910400390625,0.004857961425185203,-0.030877040029130873,-0.02650788960077334
1717857928338951400,2.887951416015625,0.019824644410610198,-0.02286667898762971,-0.03659799779208842
1717857928348991500,2.897991455078125,0.035088264515995976,-0.007185600655153394,-0.02898005186796654
1717857928359032300,2.9080322265625,0.03434183006286621,-0.010202939182333648,-0.02399358695859555
1717857928369073400,2.918073486328125,0.022969956699013708,-0.017688984088785945,-0.025774497292307203
1717857928379114500,2.928114501953125,0.0036672903358936308,-0.015013517801836133,-0.027508166384231297
1717857928389154600,2.938154541015625,0.013393734580278396,-0.018162885210849345,-0.02429920057535637
1717857928399195400,2.9481953125,0.031053309911489486,-0.024514153933711348,-0.02612875409007538
1717857928409236500,2.958236572265625,0.022376082459092138,-0.020681809229217467,-0.03753193590764422
1717857928419277300,2.96827734375,0.007260930913686752,-0.02540730338115245,-0.02301988765480928
1717857928429317400,2.9783173828125,0.02342179211974144,-0.021679515029676258,-0.028688676839112304
1717857928439358500,2.9883583984375,0.01729015749692917,-0.014148863796517253,-0.02676208812412806
1717857928449399600,2.998399658203125,0.035545945155620574,-0.021320435926318167,-0.02608681921106763
1717857928459440400,3.0084404296875,0.03794248490333557,-0.018525288782455025,-0.021217582906619646
1717857928469480400,3.01848046875,0.02297697096168995,-0.022531674879603086,-0.014134511044179088
1717857928479521500,3.028521484375,0.034200960287451745,-0.027500951192155478,-0.02314839570557233
1717857928489562600,3.038562744140625,0.02028466313779354,-0.01687295499816537,-0.03806941748494282
1717857928499603500,3.048603515625,0.026866964137554166,-0.023261158197931946,-0.025905037469952364
1717857928509643300,3.058643310546875,0.017139350849390028,-0.02696216814033687,-0.021460972341592423
1717857928519684400,3.068684326171875,0.026565935364365575,-0.018426541115716098,-0.013069119435525498
1717857928529725400,3.078725341796875,0.02821487161517143,-0.027789778070896862,-0.015177572090015745
1717857928539766300,3.088766357421875,0.02237958959043026,-0.009531908052973449,-0.02494390995337162
1717857928549807400,3.098807373046875,0.023876550149917602,-0.03049282648451626,-0.029051098677027036
1717857928559847400,3.108847412109375,0.030462942802906033,-0.01829381811413914,-0.03321937450473197
1717857928569888300,3.11888818359375,0.01834405046403408,-0.015817016204446553,-0.034114907705504446
1717857928579929300,3.128929443359375,0.014904723665118217,-0.035193770717084405,-0.026618752396991473
1717857928589970400,3.138970458984375,0.019698387682437896,-0.03099102179761976,-0.02925534341169987
1717857928600010500,3.149010498046875,0.022540917631983754,-0.029480763365142045,-0.02776904124354478
1717857928610051300,3.15905126953125,0.02687690100967884,-0.024439335131831465,-0.016802839770866558
1717857928620092400,3.169092529296875,0.0249310276389122,-0.02726509660966694,-0.025339740870543755
1717857928630133500,3.179133544921875,0.009671499186754227,-0.014198036700487136,-0.019969322711462154
1717857928640173300,3.18917333984375,0.03166939598321915,-0.01887574618794024,-0.02997754303929396
1717857928650214400,3.19921435546875,0.034515433064103124,-0.018974165061116217,-0.020356440599216145
1717857928660255500,3.20925537109375,0.01865209349989891,-0.01234177784193307,-0.013199070524703711
1717857928670296300,3.21929638671875,0.027477789512276647,-0.018081161744147537,-0.03103057292329613
1717857928680336400,3.22933642578125,0.008324760752916336,-0.023922471650876104,-0.03267923517946619
1717857928690377500,3.23937744140625,0.029424247404932973,-0.03922565658167004,-0.035332617498771285
1717857928700418600,3.24941845703125,0.043642157849669454,-0.03345916547682136,-0.028286502946121617
1717857928710459400,3.25945947265625,0.026136896297335625,-0.02528937608990818,-0.03314324966175482
1717857928720500500,3.26950048828125,-0.0012456161469221114,-0.02607720199935138,-0.02994661817806773
1717857928730540500,3.27954052734375,0.014466916769742965,-0.010239325669966638,-0.036334835077566095
1717857928740581600,3.28958154296875,0.03377075217664242,-0.010847776424512267,-0.01904691063691862
1717857928750622500,3.29962255859375,0.021798574832081793,-0.01155124851875007,-0.018194316962151787
1717857928760663600,3.30966357421875,0.024790157863497732,-0.017200360321626067,-0.010454493657452985
1717857928770703400,3.319703369140625,0.0183563254237175,-0.015554492810741066,-0.01966922552003525
1717857928780744200,3.329744140625,0.017907997134327888,-0.01675279921721667,-0.0231868554192828
1717857928790785300,3.339785400390625,0.027034137398004532,-0.051131052300333976,-0.02848233147889841
1717857928800826400,3.349826416015625,0.02015606832206249,-0.0327323490396142,-0.049716381463129074
1717857928810866400,3.359866455078125,0.020307459491491316,-0.026673377794213592,-0.040255428887670856
1717857928820907300,3.3699072265625,0.03991349271535873,-0.03874433933813125,-0.039528571351268325
1717857928830948400,3.3799482421875,0.027343349477648732,-0.00819733498096466,-0.028919193092780186
1717857928840989400,3.389989501953125,0.028838556471467016,0.002309190257824957,-0.018280588739807715
1717857928851029500,3.400029541015625,0.03272971869111061,0.0008072612622752785,-0.02144778863303363
1717857928861070300,3.4100703125,0.03422726377248764,-0.006568601267971098,-0.011979680231004021
1717857928871111400,3.420111328125,0.02794131537079811,-0.016402999398857355,-0.013791844219504855
1717857928881152500,3.430152587890625,-0.02891863597035408,-0.01782148789465427,-0.0290852566749556
1717857928891193300,3.440193359375,-0.07575228333771228,-0.027807496390677987,-0.021836491123097948
1717857928901233400,3.4502333984375,0.05547931063771248,-0.025555406614951787,-0.022667950678290798
1717857928911274500,3.4602744140625,0.12775544229745864,-0.01270867492556572,-0.04249155847586226
1717857928921315300,3.4703154296875,0.16845453243255615,-0.03549151155464351,-0.019603215645696035
1717857928931356400,3.4803564453125,0.009836918881535529,-0.0617551029715687,-0.011932347657671198
1717857928941396500,3.490396484375,-0.10927344466745853,-0.03964961761478335,-0.03138588916698936
1717857928951437600,3.5004375,-0.020391046121716497,-0.0069678297186270355,-0.023658920777286402
1717857928961478400,3.510478515625,0.12131576463878153,0.014582688636519014,-0.015923746248241513
1717857928971519500,3.52051953125,0.09886661694347858,0.020412892627343533,-0.025049256324255836
1717857928981559600,3.5305595703125,-0.035063130074739456,-0.00280303818937391,-0.02911808123232331
1717857928991600600,3.5406005859375,-0.06050093819200992,-0.021971885572373867,-0.02957651992377359
1717857929001641500,3.550641357421875,0.02628770294487476,-0.04049377682134509,-0.057719166552950625
1717857929011682600,3.5606826171875,0.1035018755286932,-0.042922392207756635,-0.038888350918702776
1717857929021722400,3.570722412109375,0.06235153449475765,-0.04276332918852568,-0.02590137964156456
1717857929031763200,3.58076318359375,-0.03671031275987625,-0.04644143317937851,-0.022054161594924515
1717857929041804300,3.59080419921875,-0.05092413155138492,-0.04604428708795458,-0.018723122042650357
1717857929051845400,3.600845458984375,0.048289691394567485,-0.024039924018085003,-0.031896911995625124
1717857929061886200,3.61088623046875,0.07747194673717021,-0.001668225473165512,-0.012525989002152346
1717857929071926300,3.62092626953125,0.038709962144494056,0.009304565570503473,-0.017207566380547358
1717857929081967400,3.63096728515625,-0.004388005825877189,0.00025269611943513155,-0.021722568720113484
1717857929092008400,3.641008544921875,-0.02504033323228359,-0.014354542436450719,-0.014601955025992356
1717857929102049300,3.65104931640625,0.0330178879827261,-0.020611593537218868,-0.036581338918232356
1717857929112089300,3.66108935546875,0.05905658460259437,-0.04279854663237929,-0.03928964802885893
1717857929122130400,3.67113037109375,0.03496434587538242,-0.030963987660221754,-0.02857439824310131
1717857929132171500,3.681171630859375,-0.01142155772447586,-0.02593476132135838,-0.0314905505512841
1717857929142212400,3.69121240234375,-0.0015437223106622695,-0.02733348567076027,-0.024896472348761745
1717857929152252400,3.70125244140625,0.05098024565279483,-0.024535744711011647,-0.031175584584288298
1717857929162293500,3.71129345703125,0.06175473764538764,-0.00853643074221909,-0.026569483594899065
1717857929172334300,3.721334228515625,0.0253927999317646,-0.004639167575351893,-0.009384850565367378
1717857929182375400,3.73137548828125,-0.018000351592898367,-0.011133936422131955,-0.02712244130254257
1717857929192415500,3.74141552734375,0.010727730241417884,-0.031139782618544994,-0.025070847101556135
1717857929202456600,3.75145654296875,0.045291678622364995,-0.029579109173081812,-0.03415891581058968
1717857929212497400,3.761497314453125,0.04888298111259937,-0.029744455802626905,-0.04083923382472712
1717857929222538500,3.77153857421875,0.00578442862033844,-0.030115079213306306,-0.029105166951823046
1717857929232579600,3.78157958984375,0.0005459434449672699,-0.033245376595668494,-0.022669658578187226
1717857929242619400,3.791619384765625,0.0346644861459732,-0.031057291966862976,-0.01973111177510582
1717857929252660500,3.801660400390625,0.0381067355543375,-0.012967070133425294,-0.03081758775974158
1717857929262701600,3.81170166015625,0.029425416448712348,-0.00242572930958122,-0.02858878296148032
1717857929272742400,3.821742431640625,-0.0005015197813510895,-0.013497889074496923,-0.019053102915687486
1717857929282782200,3.8317822265625,0.012668927437067032,-0.02255768610369414,-0.025586852065986022
1717857929292823300,3.8418232421875,0.030624855366349218,-0.028981472073495388,-0.03946839756267145
1717857929302864400,3.851864501953125,0.04289513887465,-0.01894968820698559,-0.038786803940101526
1717857929312905200,3.8619052734375,0.024341245052218435,-0.03618968641925603,-0.03354410381391644
1717857929322945300,3.8719453125,0.00818038384616375,-0.024966902669891714,-0.03262868773574009
1717857929332986400,3.881986328125,0.01760813740491867,-0.012134345636330545,-0.0394531999935396
1717857929343027500,3.89202734375,0.03676350425183773,-0.018166209679096938,-0.042806716239103114
1717857929353068300,3.902068359375,0.03302490224540233,-0.019864245768636463,-0.023382638286286964
1717857929363109400,3.912109375,0.019708909076452254,-0.006316489670425653,-0.018854602935211733
1717857929373149200,3.922149169921875,0.02030512140393257,-0.009551927927695214,-0.01726109123264905
1717857929383190300,3.932190185546875,0.02913257098197937,-0.025535423272848128,-0.03114805725654587
1717857929393231000,3.942231201171875,0.04289747696220875,-0.025493556892499325,-0.03351633902415633
1717857929403272200,3.952272216796875,0.037809798434376714,-0.036422764522768554,-0.02646317824278958
1717857929413312300,3.962312255859375,0.012969956210255621,-0.024152152220904825,-0.03691399123896844
1717857929423353000,3.97235302734375,0.014015665870904921,-0.024111929808370767,-0.02578738873992115
1717857929433394200,3.982394287109375,0.021499299624562263,-0.017123605290986596,-0.03189262854615226
1717857929443435300,3.992435302734375,0.030178865164518353,-0.007266374273784459,-0.02651584001178853
1717857929453475300,4.002475341796875,0.02254676285088062,-0.01338478408884257,-0.01426582753995899
1717857929463516200,4.01251611328125,0.02120353154838085,-0.022901567637920377,-0.03408027478354052
1717857929473557200,4.02255712890625,0.01940846482515335,-0.02203282197937369,-0.03394792624129914
1717857929483598300,4.032598388671875,0.028237083446979522,-0.030562457654625175,-0.02294774943378288
1717857929493639200,4.04263916015625,0.016113514932990073,-0.036912118942290545,-0.03297284783117939
1717857929503679200,4.05267919921875,0.02329670443534851,-0.024803419203869997,-0.02383764291163534
1717857929513720300,4.06272021484375,0.023595395120978354,-0.02107066241633147,-0.016607974785892293
1717857929523761200,4.07276123046875,0.021949381479620934,-0.025418409297056493,-0.027308593258098698
1717857929533802200,4.08280224609375,0.03242459826469421,-0.01944627608489245,-0.02990296169943176
1717857929543842300,4.09284228515625,0.024791911429166792,-0.02464256608635187,-0.024674299231753682
1717857929553883400,4.10288330078125,0.030474633240699767,-0.019142982289381324,-0.025124399353121406
1717857929563924200,4.11292431640625,0.03271569016575813,-0.01932447633612901,-0.030251606173743492
1717857929573965300,4.12296533203125,0.01655073730647564,-0.016218838470987974,-0.025432803148590026
1717857929584005400,4.13300537109375,0.03525543777644634,-0.032216946863383056,-0.02513724513496272
1717857929594046500,4.14304638671875,0.03660392977595329,-0.0307806669825688,-0.024352647795644587
1717857929604087300,4.15308740234375,0.03361000865697861,-0.03224456552267074,-0.030049480330920777
1717857929614128400,4.16312841796875,0.01026478890478611,-0.01513016645144671,-0.03544970453979913
1717857929624169500,4.17316943359375,0.02522913380265236,-0.00483235205989331,-0.024207891862979156
1717857929634209300,4.183209228515625,0.03869651814103126,-0.019777699996344746,-0.021872681247908622
1717857929644250000,4.19325,0.016249124011397362,-0.0209223399868235,-0.019352113261725753
1717857929654291200,4.203291259765625,0.044381578040122986,-0.02392641717363149,-0.02937392372349277
1717857929664332000,4.21333203125,0.004577975440025329,-0.02063146728146821,-0.01591873671298381
1717857929674372000,4.2233720703125,0.017595277923345566,-0.00952847398687154,-0.0313179384973133
1717857929684413200,4.2334130859375,0.02627425894141197,-0.017459449649229644,-0.034468931607832196
1717857929694454300,4.243454345703125,0.02387888823747635,-0.01652691803947091,-0.028150473742606118
1717857929704495000,4.2534951171875,0.011612111860513686,-0.02560921916142106,-0.038488396382261994
1717857929714535200,4.26353515625,0.023583120161294935,-0.030100831492245194,-0.024607339509343726
1717857929724576300,4.273576171875,0.025979075387120246,-0.021309147347323594,-0.02420080453506671
1717857929734617300,4.283617431640625,0.032416999480128286,-0.018139942726679147,-0.034483585754269734
1717857929744658200,4.293658203125,0.026434417939186095,-0.03933229529391974,-0.04148595706331543
1717857929754699300,4.30369921875,0.016258476361632346,-0.024364077938534318,-0.024086361542274243
1717857929764739300,4.3137392578125,0.024487375524640084,-0.01697922838423401,-0.025059362159739248
1717857929774780200,4.3237802734375,0.03361585387587547,-0.0377819971119985,-0.023918028371199034
1717857929784821200,4.3338212890625,0.027778233763575553,-0.019010661146603523,-0.01916004302203655
1717857929794862300,4.3438623046875,0.027328736430406567,-0.010755531563796102,-0.03656613678252324
1717857929804902400,4.35390234375,0.015952771413326263,-0.020827720505930482,-0.030846868653153066
1717857929814943200,4.363943115234375,0.035706104153394695,-0.024754940419644114,-0.009622705308697186
1717857929824984300,4.373984375,0.02403261749446392,-0.01752484303563833,-0.02114230288043618
1717857929835025400,4.384025390625,0.018794716840982436,-0.021555596389062702,-0.0338119883693289
1717857929845065500,4.3940654296875,0.038248189851641655,-0.01633552365321666,-0.018734218825399874
1717857929855106300,4.404106201171875,0.005027472773194313,-0.018241284209303557,-0.0242610011565499
1717857929865147400,4.4141474609375,-0.04479717310369014,-0.026020174582488835,-0.04050154456926975
1717857929875188200,4.424188232421875,0.049176411101222034,-0.019499248381145296,-0.026075338835828004
1717857929885229300,4.434229248046875,0.08853226993381977,-0.013091609828546643,-0.04415630878373049
1717857929895269000,4.44426904296875,0.08853110089004039,-0.013504720674082637,-0.03405108522167429
1717857929905310200,4.454310302734375,0.056959320062398906,-0.020261063066497442,-0.007831894635478965
1717857929915351000,4.46435107421875,-0.0009533552020788192,-0.044123146299645304,-0.02203765341811813
1717857929925392100,4.47439208984375,-0.01471943022608757,-0.04443754601106047,-0.028921147587848826
1717857929935432200,4.48443212890625,0.047531566503643985,-0.02652147516813129,-0.033711820497061125
1717857929945473300,4.494473388671875,0.06848316911756992,-0.007885273357108235,-0.03911878040740266
1717857929955514000,4.50451416015625,0.036760581642389295,-0.0023528832690790295,-0.03695247835214249
1717857929965555200,4.51455517578125,-0.007682371196150779,-0.020886391890607772,-0.01602309670317918
1717857929975596300,4.52459619140625,-0.002593523624539375,-0.03125445850677788,-0.003918867643899284
1717857929985636400,4.53463623046875,0.029428923580050465,-0.02991553805321455,-0.01004236005945131
1717857929995677200,4.54467724609375,0.05591653301119804,-0.023810937567800283,-0.030728918529022483
1717857930005718300,4.55471826171875,0.03242342922091484,-0.027710721485316753,-0.03672423625395167
1717857930015759000,4.564759033203125,0.01237140579521656,-0.03305847572144121,-0.04592662922476884
1717857930025799200,4.574799072265625,0.01341711545586586,-0.02880812480058521,-0.024403263738029635
1717857930035840300,4.58484033203125,0.028231238228082656,-0.025809819767437875,-0.015307888505375011
1717857930045881300,4.59488134765625,0.04513970293104648,-0.022184067018330096,-0.013634936624742112
1717857930055922200,4.604922119140625,0.03571311841607094,-0.012002755145914852,-0.03361009085536934
1717857930065962200,4.614962158203125,0.0008458031743764876,-0.005980133855529129,-0.03730207724110223
1717857930076003300,4.62500341796875,0.01745733075737953,-0.014577610602602362,-0.05009409220172092
1717857930086044400,4.63504443359375,0.03032674920260906,-0.027921989615820347,-0.02419041100521572
1717857930096085200,4.645085205078125,0.045590953829884526,-0.022420286926999686,-0.016517880783067086
1717857930106125300,4.655125244140625,0.011623802298307418,-0.03858659149315208,-0.016013684987439773
1717857930116166400,4.66516650390625,0.011925415593385696,-0.027881328811869024,-0.019612878523184916
1717857930126207200,4.675207275390625,0.020755787780880927,-0.021184936445765197,-0.019812319218576884
1717857930136248300,4.685248291015625,0.04544657692313194,-0.013586480673402547,-0.02829421132854186
1717857930146289400,4.695289306640625,0.048887657287716865,-0.012518157322145998,-0.03262043593062553
1717857930156329200,4.7053291015625,0.027787586113810537,-0.013394757493585348,-0.026330784034775567
1717857930166370000,4.7153701171875,0.0206043966114521,-0.028779264032281933,-0.034995677161985074
1717857930176411100,4.7254111328125,0.01835924803316593,-0.021881065483763812,-0.030369382767938075
1717857930186452200,4.7354521484375,0.039159459477663035,-0.025191359075531362,-0.03336938200125005
1717857930196492300,4.7454921875,0.019853870505094528,-0.01223740415200591,-0.05033335801742505
1717857930206533000,4.755533203125,0.0036906712114810943,-0.020537578452937303,-0.03437439889190718
1717857930216574200,4.76557421875,0.021501053190231323,-0.033360308212228115,-0.03186525648203678
1717857930226615300,4.775615234375,0.026288871988654136,-0.011946604511886835,-0.019306470321980303
1717857930236656000,4.78565625,0.03332183936536312,-0.021947700979188082,-0.01667230872637592
1717857930246696200,4.7956962890625,0.032276714226603505,-0.005272058651410043,-0.030082601715810595
1717857930256737300,4.8057373046875,0.0230009363591671,-0.021500176407396793,-0.027359300532029007
1717857930266778000,4.815778076171875,0.017615736189484595,-0.019169395372271535,-0.021152130154706537
1717857930276819200,4.825819091796875,0.03377718191742897,-0.030269612187892196,-0.026210678486176763
1717857930286859300,4.835859375,0.03033668607473373,-0.0374998191697523,-0.031704417064250444
1717857930296900400,4.845900390625,0.037816812697052955,-0.030719072988443074,-0.024790806317469105
1717857930306941200,4.855941162109375,0.01985971572399139,-0.03457172982860356,-0.029996804862190037
1717857930316981800,4.865981689453125,0.024645780956745147,-0.014132095324806868,-0.043982176059531045
1717857930327021800,4.876021728515625,0.021653028881549834,-0.006498531706444919,-0.02708123250931967
1717857930337063000,4.88606298828125,0.02464870356619358,-0.017499087539874017,-0.018764728128095157
1717857930347103700,4.896103759765625,0.01836450873017311,-0.02378960251882672,-0.03418100891138892
1717857930357144800,4.906144775390625,0.020906594428420064,-0.023295462326332925,-0.02367578514711931
1717857930367186000,4.91618603515625,0.03736673084199428,-0.02269910386838019,-0.035071728939726016
1717857930377226000,4.92622607421875,0.03183130854666233,-0.027515856500342488,-0.041394255625293586
1717857930387266800,4.936266845703125,0.02614624864757061,-0.028296448951400814,-0.029115140356565823
1717857930397308000,4.946307861328125,0.022104864302277562,-0.024981223456189035,-0.03234998039221391
1717857930407349000,4.956348876953125,0.02614449508190155,-0.018983809672296046,-0.036219163675489836
1717857930417388800,4.966388916015625,0.04454699773490429,-0.02921075078472495,-0.017521988924848846
1717857930427430000,4.976429931640625,0.032576573956012725,-0.020705811159312724,-0.027664521423145197
1717857930437471000,4.986470947265625,0.032278467792272565,-0.009828589444607495,-0.026010648702317847
1717857930447511800,4.99651171875,0.030631869629025456,-0.019676796905137597,-0.03262123051506933
1717857930457553000,5.006552978515625,0.011925415593385696,-0.022617489999532697,-0.028008549087843854
1717857930467593000,5.016593017578125,0.02389583937227726,-0.020208273433335124,-0.037516076184809205
1717857930477634000,5.026634033203125,0.021202947026491163,-0.03025989451147616,-0.030460129791311918
1717857930487675000,5.0366748046875,0.02239829429090023,-0.02660816707089543,-0.02513671084542293
1717857930497716000,5.046716064453125,0.021353753674030303,-0.01039130136128515,-0.039208171157329344
1717857930507755800,5.056755859375,0.01626665966808796,-0.03238543529808521,-0.018466704162745734
1717857930517796900,5.066796875,0.028835049340128895,-0.021435586738586424,-0.027875625156867315
1717857930527837700,5.076837646484375,0.02868716530203819,-0.015189641553722322,-0.03362375862111803
1717857930537878800,5.086878662109375,0.03152969525158405,-0.017267434208467602,-0.022275138268689623
1717857930547918800,5.0969189453125,0.04080547311902046,-0.02049037831034511,-0.03814364719835575
1717857930557959700,5.106959716796875,0.028833880296349524,-0.021086846366152167,-0.04587890392579138
1717857930568000800,5.117000732421875,0.033473230534791946,-0.023645079481601713,-0.03571787678957917
1717857930578041900,5.127041748046875,0.024644611912965773,-0.033534276539646087,-0.028198418237292206
1717857930588082700,5.137082763671875,0.00908405468761921,-0.023855251633562145,-0.01761919308847282
1717857930598122800,5.147122802734375,0.03467851467132568,-0.02119257176294923,-0.020065257366606963
1717857930608163800,5.157163818359375,0.03482932131886482,-0.006554390079528093,-0.019803208896936847
1717857930618205000,5.167204833984375,0.02629997790455818,-0.015235489989444613,-0.021564469248685054
1717857930628245800,5.177245849609375,0.02764846990406513,-0.020530564190261065,-0.021411625907686537
1717857930638285800,5.187285888671875,0.02450491118133068,-0.02244439845494926,-0.02890272144859191
1717857930648327000,5.197326904296875,0.037224692022800446,-0.02022073105610907,-0.042665065578976646
1717857930658368000,5.207367919921875,0.0243558580994606,-0.020970782238431275,-0.033535578014166095
1717857930668408800,5.217408935546875,0.013732757276296614,-0.027895795728638765,-0.040851741679850964
1717857930678450000,5.227449951171875,0.0333358678907156,-0.028799247374385592,-0.02647612905590795
1717857930688490000,5.237489990234375,0.03228489753305912,-0.011350026858225464,-0.024475794684700666
1717857930698530800,5.24753076171875,0.0252490075469017,-0.00872018981128931,-0.02443405160193797
1717857930708572000,5.257572021484375,0.024199790754914283,-0.010615428973361849,-0.031770751165575345
1717857930718613000,5.267613037109375,0.040508535999059674,-0.03360372504666447,-0.018270880196546203
1717857930728653000,5.277653076171875,0.0237502934217453,-0.02887260487154126,-0.012106124188844113
1717857930738694000,5.28769384765625,0.024948563295602796,-0.030246998497284946,-0.014628897831845096
1717857930748735000,5.29773486328125,0.02853986578583717,-0.022775858899019657,-0.023129179548448883
1717857930758776000,5.307776123046875,0.02524725398123264,-0.02141388636343181,-0.024285217715776523
1717857930768815900,5.31781591796875,0.020309797579050062,-0.026546353881061076,-0.020171069528372026
1717857930778856700,5.327856689453125,0.020907178950309753,-0.019779417029395698,-0.01488473118986003
1717857930788897800,5.337897705078125,0.036916064465045924,-0.023755042662099,-0.018737867520633153
1717857930798938600,5.347938720703125,0.019256489133834837,-0.010210574499517679,-0.022000504312082194
1717857930808979700,5.357979736328125,0.019255320090055466,-0.030397403286024926,-0.027201886047190052
1717857930819019800,5.368019775390625,0.0312269129127264,-0.013946217363886534,-0.03653726231448818
1717857930829060900,5.378060791015625,0.030029812082648277,-0.029664339771121737,-0.03676536741536111
1717857930839101700,5.388101806640625,-0.04104571161568164,-0.03200041803587228,-0.03250313426046632
1717857930849142800,5.398142822265625,-0.007072714865207672,-0.038313692835904654,-0.02838277096140664
1717857930859182800,5.408182861328125,0.09318506417572497,-0.025020459488034247,-0.012770328285195864
1717857930869224000,5.418223876953125,0.09303425752818584,-0.013286474813520908,-0.04203794665657915
1717857930879264800,5.4282646484375,0.03572013267874718,-0.020395539633743465,-0.026155655796732753
1717857930889305900,5.438305908203125,0.00040448914766311644,-0.025294271460734305,-0.01507294723833911
1717857930899347000,5.448346923828125,-0.01710194144845009,-0.02906710453033447,-0.028834935175697317
1717857930909386800,5.45838671875,0.029584406402707097,-0.01438175923693925,-0.02373866691603325
1717857930919427800,5.468427734375,0.10155892476737499,0.0019489786433055996,-0.03174572632217314
1717857930929469000,5.478468994140625,0.037062194937467575,-0.006335998088493943,-0.03342157797936816
1717857930939509800,5.488509765625,-0.019800094491243363,-0.02174940192811191,-0.03302209380038548
1717857930949549800,5.4985498046875,-0.0048363341152668,-0.036107488028518854,-0.021227008322090842
1717857930959591000,5.5085908203125,0.03930675899386406,-0.03867057998217642,-0.020074212424620052
1717857930969632000,5.518632080078125,0.05711480288505554,-0.019825630791299044,-0.041295704321376976
1717857930979672800,5.5286728515625,0.032573066824674604,-0.021878069809079168,-0.029216915664030237
1717857930989713000,5.538712890625,-0.0037894554108381267,-0.023216003881953655,-0.02979221763422247
1717857930999754000,5.54875390625,-0.003938508492708206,-0.019040289099887014,-0.0217240300248377
1717857931009795000,5.558795166015625,0.052476621690392494,-0.026562610896117982,-0.02532518262222875
1717857931019836000,5.5688359375,0.043645664981007574,-0.019758264643512664,-0.025798065397562457
1717857931029877000,5.578876953125,0.024938041901588437,-0.014138305869884788,-0.026787071868334896
1717857931039916800,5.588916748046875,0.00473521182835102,-0.0063252940313890576,-0.03647082774846349
1717857931049957600,5.59895751953125,0.020298107141256332,-0.022642916701734066,-0.027063674019742755
1717857931059998700,5.608998779296875,0.045588031220436094,-0.022824045422300696,-0.03173462953942362
1717857931070039800,5.619039794921875,0.033171617239713666,-0.0258876342440024,-0.0158640976160299
1717857931080080000,5.629079833984375,0.015367080479860304,-0.02506828068513423,-0.017535460327775216
1717857931090120700,5.63912060546875,0.010430793121457099,-0.023919841302372513,-0.02139772981307469
1717857931100161800,5.649161865234375,0.03302724033296108,-0.02562993315588683,-0.039246717636007816
1717857931110203000,5.659202880859375,0.039462241816520686,-0.0029031375629827378,-0.018577608058159237
1717857931120243700,5.66924365234375,0.03212941471040249,-0.01276478902697563,-0.034326874522329305
1717857931130283800,5.67928369140625,0.018510639202594756,-0.016441614376194773,-0.03344478989159688
1717857931140324900,5.689324951171875,0.01611409945487976,-0.02518858259655535,-0.024929123376193456
1717857931150366000,5.699365966796875,0.02195171956717968,-0.02492792236637324,-0.031137586094881407
1717857931160406800,5.70940673828125,0.023150573962926864,-0.021248978125303984,-0.03818438563412055
1717857931170446800,5.71944677734375,0.03272738060355186,-0.02168905004300177,-0.03301911182543263
1717857931180488000,5.729488037109375,0.011481178957223892,-0.02158284972216934,-0.029222920713131314
1717857931190528800,5.73952880859375,0.02539981419444084,-0.028677666821330786,-0.026431477063428608
1717857931200569900,5.74956982421875,0.02988894230723381,-0.026881138793379066,-0.024187314865831283
1717857931210611000,5.75961083984375,0.03931669586598873,-0.0189645935151726,-0.02837358300795313
1717857931220651000,5.769651123046875,0.022857728496193885,-0.026347726036421954,-0.03002688947319984
1717857931230691800,5.77969189453125,0.005949263793230056,-0.01439418032709509,-0.027183692803373558
1717857931240733000,5.78973291015625,0.02674655262827873,-0.025231764151155946,-0.03157168949609622
1717857931250774000,5.79977392578125,0.020012275937199592,-0.03300258081573993,-0.02298574335661251
1717857931260813800,5.809813720703125,0.020460604226589203,-0.02639956582151353,-0.020746645493200048
1717857931270855000,5.81985498046875,0.025550036320090293,-0.04020747069325298,-0.024837979060597717
1717857931280896000,5.82989599609375,0.01717033050954342,-0.019859679191373287,-0.03243645766584668
1717857931290936800,5.839936767578125,0.014327216038107871,-0.01493289031367749,-0.0226973411695566
1717857931300978000,5.84997802734375,0.03482464514374733,-0.023826135136932134,-0.01969566600238904
1717857931311018200,5.860018310546875,0.027640286597609517,-0.02512012047022581,-0.021051163131417704
1717857931321059300,5.870059326171875,0.0200075997620821,-0.019245675478875637,-0.03211340429051779
1717857931331100200,5.88010009765625,0.025843466308712957,-0.023425006990134715,-0.01970846155188046
1717857931341141200,5.890141357421875,0.020008184283971785,-0.01626505223289132,-0.026155317870015276
1717857931351181300,5.900181396484375,0.033626959791779515,-0.02934822302665561,-0.037934260497684585
1717857931361222100,5.91022216796875,0.02973813565969467,-0.022507344155944884,-0.03859963820439297
1717857931371263200,5.92026318359375,0.028092706540226935,-0.01860671998821199,-0.029755698715848846
1717857931381304300,5.93030419921875,0.030936990055441854,-0.02385937981940806,-0.027699958062707444
1717857931391345200,5.94034521484375,0.030040333476662635,-0.024347090271115302,-0.032825625946791843
1717857931401385200,5.95038525390625,0.023905191722512244,-0.022998634804226457,-0.02941251130136661
1717857931411426300,5.96042626953125,0.023003274446725844,-0.01808887012656778,-0.024241584070026873
1717857931421467400,5.97046728515625,0.020305705925822256,-0.02381429856866598,-0.0327394546338357
1717857931431508200,5.98050830078125,0.036167291924357414,-0.02634191735014319,-0.025576431136671452
1717857931441548300,5.99054833984375,0.026142156994342802,-0.026667386444844305,-0.03788851252666209
1717857931451589400,6.00058935546875,0.022252163818478582,-0.03236220055297017,-0.022000303382682614
1717857931461630500,6.01063037109375,0.015218027397990226,-0.01810176614075899,-0.02637864633107092
1717857931471671300,6.02067138671875,0.030332594421505925,-0.012021423313766717,-0.03128900466377381
1717857931481712400,6.03071240234375,0.031679332855343814,-0.013085033957287669,-0.030471856761723756
1717857931491752200,6.040752197265625,0.023299627044796944,-0.015461261569336056,-0.023025737440283408
1717857931501793000,6.05079296875,0.02120528511404991,-0.016523447440750894,-0.03624805184325669
1717857931511834000,6.060834228515625,0.01955927147269249,-0.029979835461080073,-0.02698200991854537
1717857931521875200,6.070875244140625,0.024048399585485457,-0.024000724518857895,-0.02952431481250096
1717857931531915300,6.080915283203125,0.029884266132116317,-0.028797457276098427,-0.02966473249676637
1717857931541956000,6.0909560546875,0.03302490224540233,-0.022162585838884113,-0.030661077457200734
1717857931551997200,6.1009970703125,0.02479775664806366,-0.02763056892119348,-0.03309203549774829
1717857931562038300,6.111038330078125,0.020009937849640846,-0.020299604978598652,-0.031508182106097224
1717857931572079000,6.1210791015625,0.027192542830109596,-0.014178236021474003,-0.028954008677834642
1717857931582119200,6.131119140625,0.03302607128918171,-0.023075718628428873,-0.017891630521416662
1717857931592160300,6.14116015625,0.02778875515758991,-0.02637012053132057,-0.030018039446463807
1717857931602201300,6.151201416015625,0.02823883701264858,-0.02129325565844774,-0.029493942507123574
1717857931612242200,6.1612421875,0.026143326038122177,-0.024567820349708197,-0.020956758279656058
1717857931622282200,6.1712822265625,0.030782676276564596,-0.02473882953505963,-0.040242583105829545
1717857931632323300,6.1813232421875,0.03213058375418186,-0.028975261528417465,-0.04202500954319257
1717857931642364200,6.1913642578125,0.03243161252737045,-0.030209260302782058,-0.03130012884598691
1717857931652405200,6.2014052734375,0.03003624182343483,-0.013710362781397997,-0.0278662271408597
1717857931662446300,6.2114462890625,0.02479775664806366,-0.004565371686778962,-0.02799154772069305
1717857931672486400,6.221486328125,0.02300268992483616,-0.03030285687036812,-0.024606074567441828
1717857931682527200,6.23152734375,0.022703999239206313,-0.01086271826531738,-0.02639840134431142
1717857931692568300,6.241568359375,0.02255377711355686,-0.01788264349736273,-0.030142981000384313
1717857931702609400,6.251609375,0.016417466315627096,-0.029976730188541113,-0.025756020920700392
1717857931712649500,6.2616494140625,0.02239829429090023,-0.023239311692304906,-0.02771257094910834
1717857931722690300,6.271690185546875,0.025690321573615074,-0.01321209440305829,-0.022690299507416783
1717857931732731400,6.2817314453125,0.02060264304578304,-0.025162973231263458,-0.026820252618729137
1717857931742772200,6.291772216796875,0.019707155510783194,-0.028366372382454572,-0.027783453361387364
1717857931752813300,6.301813232421875,0.016115268498659133,-0.030300518782809375,-0.01534749442997854
1717857931762853000,6.31185302734375,0.03182663237154484,-0.023844766772165894,-0.023272291513299567
1717857931772894200,6.321894287109375,0.031526188120245935,-0.017224873708374798,-0.03207572546151932
1717857931782935000,6.33193505859375,0.021349662020802497,-0.029915391922742125,-0.02426172267575748
1717857931792976100,6.34197607421875,0.02838262939751148,-0.03186005971711129,-0.03535514442441053
1717857931803016200,6.35201611328125,0.0068348144561052315,-0.022107494650781153,-0.01799438764299266
1717857931813057300,6.362057373046875,-0.08728606926500797,-0.02571216807924211,-0.03143053202631418
1717857931823098000,6.37209814453125,0.05367372252047062,-0.01708966648876667,-0.03131740877435077
1717857931833139200,6.38213916015625,0.11203647964000701,-0.010766016425192355,-0.03150239168612752
1717857931843180300,6.39218017578125,0.05442424862682819,-0.019086283666081727,-0.04266835351460613
1717857931853220400,6.402220458984375,0.04349836546480655,-0.029615641791187225,-0.010998742902255616
1717857931863261200,6.41226123046875,-0.019201544076204297,-0.034358890795521436,-0.03434292604140937
1717857931873302300,6.42230224609375,-0.020998948886990547,-0.021877631417661903,-0.026912734941462985
1717857931883343000,6.432343017578125,0.04379413354098797,-0.0013631415793672202,-0.030532962132082318
1717857931893384200,6.44238427734375,0.08060147693455219,-0.005888400451466441,-0.05226094681282993
1717857931903424300,6.45242431640625,0.03331424058079719,-0.004031410940550267,-0.03779838199121877
1717857931913465300,6.46246533203125,-0.010079495465755463,-0.024857487478666007,-0.01417160535128787
1717857931923506200,6.472506103515625,-0.007086158868670463,-0.03205689746346325,-0.017806249226327054
1717857931933547300,6.48254736328125,0.027627427116036413,-0.03765720168855041,-0.03000774638131261
1717857931943587300,6.49258740234375,0.06279460208714008,-0.028434505715221166,-0.024520145283080635
1717857931953628400,6.50262841796875,0.03331774771213531,-0.018156418937444685,-0.045953339135181154
1717857931963669200,6.512669189453125,0.0018920973569154739,-0.005967091710865497,-0.045888078179513105
1717857931973710300,6.52271044921875,0.015807225462794304,-0.0146156775906682,-0.03220158946404699
1717857931983751400,6.53275146484375,0.040051439881324764,-0.026845629088580607,-0.018682826564880087
1717857931993791200,6.542791259765625,0.03855272575616836,-0.02751980202309787,-0.012559516812418587
1717857932003832300,6.552832275390625,0.007874678897857666,-0.030595117815211414,-0.02689267396754585
1717857932013873400,6.562873291015625,0.012216507494449615,-0.01406202576328069,-0.028196331311482935
1717857932023914200,6.572914306640625,0.02568213826715946,-0.011908245262876153,-0.04529307142843026
1717857932033954000,6.5829541015625,0.031068507480621337,-0.025500498089939354,-0.037586332976003174
1717857932043995100,6.5929951171875,0.04663023374974727,-0.025024405010789633,-0.0204272453796817
1717857932054036200,6.6030361328125,0.017452070060372353,-0.01712875639013946,-0.02132582905406598
1717857932064077000,6.6130771484375,0.007873509854078293,-0.01617667982969433,-0.029064108855649827
1717857932074118100,6.6231181640625,0.016101239973306654,-0.021186616946198045,-0.02068037075737957
1717857932084158200,6.633158203125,0.034356443110108374,-0.028353659031353888,-0.01425483122190926
1717857932094199300,6.64319921875,0.030613749450445173,-0.006157938107848167,-0.030867751610977573
1717857932104240000,6.653240234375,0.023279753300547597,-0.024219189575128256,-0.040403669118788094
1717857932114281200,6.66328125,0.021484686577320097,-0.025286928404495118,-0.0357320468788268
1717857932124322000,6.673322021484375,0.02582300804257393,-0.027942520947195588,-0.025870925137796437
1717857932134362000,6.683362060546875,0.037945992034673685,-0.023976539925672113,-0.03247574849661905
1717857932144403200,6.6934033203125,0.03809270702898502,-0.023130992479622362,-0.026345945071289314
1717857932154444300,6.7034443359375,0.03315466610491276,-0.020129399510845542,-0.03625150874224491
1717857932164485000,6.713485107421875,0.015495675295591354,-0.007527144101820885,-0.019890900880121624
1717857932174525200,6.723525146484375,0.038536943665146824,-0.02030322170779109,-0.014469862212077713
1717857932184566300,6.733566162109375,0.04766133036315441,-0.020056297742016612,-0.02297533612702973
1717857932194607400,6.743607421875,0.03329495135843753,-0.011619345318898558,-0.0266047604042571
1717857932204648200,6.753648193359375,0.019677344894409178,-0.02446636926922947,-0.025888880919595247
1717857932214689300,6.763689208984375,0.0259592016428709,-0.019896796331368385,-0.023881883912160992
1717857932224729300,6.773729248046875,0.031794483667612075,-0.020476020991429686,-0.032295350428414527
1717857932234770200,6.783770263671875,0.020569325298070908,-0.021606778587028384,-0.043300650935620064
1717857932244811300,6.793811279296875,0.019371639946103095,-0.01291471889168024,-0.025832378659117965
1717857932254852400,6.803852294921875,0.02879880898296833,-0.021571195816993714,-0.035609196817292826
1717857932264892400,6.813892333984375,0.027601123631000517,-0.015420052776113151,-0.0327782705405727
1717857932274933200,6.823933349609375,0.03268880215883255,-0.02275393932815641,-0.03948297864387277
1717857932284974300,6.833974365234375,0.03104045042991638,-0.03107628892827779,-0.02585359041050542
1717857932295015400,6.844015380859375,0.02655015327334404,-0.013674158956855535,-0.02765142904613167
1717857932305056300,6.85405615234375,0.03073766809105873,-0.023779702179320156,-0.02521273522370029
1717857932315096000,6.864095947265625,0.029988895550370216,-0.01734006105326116,-0.025457732093869707
1717857932325137200,6.87413720703125,0.02879004115462303,-0.02463215429019183,-0.023295028501492922
1717857932335178200,6.88417822265625,0.02759235580265522,-0.028364764947257936,-0.018479919837345368
1717857932345219000,6.894218994140625,0.012328151175379753,-0.017858641567267478,-0.040580875149485655
1717857932355259000,6.9042587890625,0.022054010897874832,-0.015758308287151156,-0.01799005852774717
1717857932365300000,6.914300048828125,0.030284663626551626,-0.010671725737862289,-0.014425411148997954
1717857932375341000,6.924341064453125,0.03223229056298733,-0.01820902590751648,-0.02406903138156049
1717857932385382000,6.9343818359375,0.019214403557777402,-0.032447467683628196,-0.026930019436404107
1717857932395423000,6.944423095703125,0.027594693890213965,-0.024534173808433115,-0.035571481455676256
1717857932405463000,6.954463134765625,0.028490765947103498,-0.027920491778478024,-0.026746214701561254
1717857932415504000,6.96450390625,0.033278000223636625,-0.034026407438144085,-0.0371961372151738
1717857932425545000,6.974544921875,0.018163433200120926,-0.026361973757483063,-0.022819022187311203
1717857932435586000,6.9845859375,0.022497078490257262,-0.02139620457626879,-0.017030734809185377
1717857932445626000,6.994626220703125,0.02234510279893875,-0.016069894986972214,-0.020101904149143954
1717857932455667000,7.0046669921875,0.01920095955431461,-0.021696502697095273,-0.024462551610637456
1717857932465708000,7.0147080078125,0.016657704812288284,-0.021863712490163743,-0.01726027381531894
1717857932475749000,7.0247490234375,0.02324175937771797,-0.012891995603218675,-0.03968192614892032
1717857932485790000,7.0347900390625,0.01291734924018383,-0.017851261978410183,-0.026486805713549253
1717857932495830000,7.044830078125,0.014262918630242347,-0.03158613814655691,-0.029463328173151237
1717857932505871000,7.05487109375,0.027127660900354383,-0.02052497469969094,-0.036557473985454995
1717857932515912000,7.064911865234375,0.0355056131452322,-0.017624029093794524,-0.039857570410193874
1717857932525953000,7.074953125,0.0371481196552515,-0.015123298319242895,-0.029182944895769468
1717857932535994000,7.084994140625,0.025624855121970175,-0.020149455918185413,-0.01822468470095191
1717857932546034200,7.0950341796875,0.024874329015612602,-0.017083017552271484,-0.03326527317280415
1717857932556075000,7.105074951171875,0.038194998359680175,-0.018213957810960708,-0.02908920219771098
1717857932566116000,7.1151162109375,0.027570728492736816,-0.023450031833536923,-0.035652058711485
1717857932576157200,7.1251572265625,0.019337153154611587,-0.027680435944907364,-0.028937797328550365
1717857932586197200,7.135197265625,0.017986907589435577,-0.030133528185449537,-0.03859527255652938
1717857932596238000,7.145238037109375,0.023822189614176748,-0.027865473655611275,-0.018717646716511806
1717857932606279200,7.155279052734375,0.02906242835521698,-0.01911339086871594,-0.024579364657029507
1717857932616320300,7.1653203125,0.030410335832834243,-0.007632102313637733,-0.03149193879077211
1717857932626360000,7.175360107421875,0.0211316353559494,-0.01732259846180677,-0.02723476083690766
1717857932636401000,7.18540087890625,0.01918459294140339,-0.021780491186119615,-0.038067024598456914
1717857932646442000,7.19544189453125,0.03175356713533401,-0.017279343841969965,-0.03296817165606189
1717857932656482800,7.20548291015625,0.023820436048507688,-0.029042846871912477,-0.030668982202443292
1717857932666524000,7.21552392578125,0.024567455023527144,-0.024238880656287074,-0.03775898156259209
1717857932676564000,7.22556396484375,0.02546001994907856,-0.021105770262330768,-0.03135637537813745
1717857932686605000,7.23560498046875,0.024115619602799416,-0.016228300419077277,-0.03810046564375516
1717857932696646000,7.24564599609375,0.02755611544549465,-0.026373664195276796,-0.0286199863839196
1717857932706687000,7.25568701171875,0.0178290866792202,-0.018284392698667943,-0.022609078364213928
1717857932716727000,7.26572705078125,0.018879472514986992,-0.010887523913010955,-0.03430114185945131
1717857932726768000,7.27576806640625,0.031148586979508397,-0.009927227513492107,-0.026180169183481483
1717857932736809000,7.28580908203125,0.040725978142023084,-0.01563614321220666,-0.021709266280545852
1717857932746850000,7.29585009765625,0.013639818295836447,-0.029364224313385784,-0.03169508754690178
1717857932756891100,7.30589111328125,0.0033142391145229337,-0.019484233475103974,-0.021835888334899207
1717857932766931000,7.315930908203125,-0.049804772132635115,-0.020926431640051302,-0.015713290968490765
1717857932776972000,7.325971923828125,0.08651450037062168,-0.025866116531938314,-0.022241354730096644
1717857932787013000,7.33601318359375,0.10072715011835098,-0.0036419001663103696,-0.03714017837739084
1717857932797054000,7.346053955078125,0.016627894195914268,-0.006366685487702488,-0.035440726648899724
1717857932807094000,7.356093994140625,0.027697569742798803,-0.028225319943949577,-0.029756945391441695
1717857932817135000,7.366135009765625,0.051637248256802555,-0.03382379753813147,-0.02342950050216168
1717857932827176200,7.37617626953125,0.0068920976012945175,-0.021432079607248303,-0.021736227352707645
1717857932837217000,7.386217041015625,0.009432429733872413,-0.01607373091187328,-0.020698194108437745
1717857932847258000,7.396258056640625,0.048937341648340224,-0.01757628096193075,-0.021925187753280624
1717857932857298200,7.406298095703125,0.043697102907299994,-0.01136113277412951,-0.03780320886338595
1717857932867339000,7.416339111328125,0.007483049231767654,-0.000360065484046936,-0.023220351263508198
1717857932877380000,7.426380126953125,0.003293780848383903,-0.025506160645745693,-0.03179599977126345
1717857932887421200,7.436421142578125,0.0074824647098779675,-0.02848462846726179,-0.028382720729056746
1717857932897462000,7.4464619140625,0.027529811960458755,-0.034509222519025204,-0.019337897506705483
1717857932907501800,7.456501708984375,0.04473638282716274,-0.03759692286867648,-0.03964951258350629
1717857932917543000,7.46654296875,0.03321311829388141,-0.02662201293315738,-0.03255978265141602
1717857932927584000,7.476583984375,0.02034486889243126,-0.015262962518259883,-0.019388586514326744
1717857932937624800,7.486624755859375,0.019894202515482903,0.0010797945933416486,-0.028292686091735957
1717857932947665000,7.496664794921875,0.02782499551475048,-0.012232435715943573,-0.03567422487752046
1717857932957706000,7.5067060546875,0.024382161584496496,-0.014141301544569431,-0.023221922166086734
1717857932967747000,7.5167470703125,0.03216156341433525,-0.018595577539689837,-0.025720383351738565
1717857932977788000,7.526787841796875,0.0014841010779142378,-0.021835509308986364,-0.0177182193164248
1717857932987829000,7.5368291015625,0.01240706163048744,-0.01538764834385365,-0.035496913815545844
1717857932997869000,7.546869140625,0.036948797690868375,-0.023079554553329943,-0.03377087090765126
1717857933007910000,7.556909912109375,0.022883447459340095,-0.016811214873567223,-0.03180888665230013
1717857933017951000,7.566950927734375,0.016299977415800092,-0.012206278361380099,-0.031161793520953503
1717857933027992000,7.576991943359375,0.001786298894882202,-0.010452858822792769,-0.01943481854253914
1717857933038032100,7.5870322265625,0.020339023673534393,-0.011130648486502468,-0.022734622706333175
1717857933048073000,7.597072998046875,0.02108721169233322,-0.008869462088868022,-0.028323231927049344
1717857933058114000,7.607114013671875,0.021985037314891813,-0.019493585825338958,-0.019106856096652334
1717857933068155100,7.617155029296875,0.016003040295839308,-0.014938735532574354,-0.026645046748872844
1717857933078196000,7.627196044921875,0.026927169892191884,-0.018843451353535056,-0.026540563461091366
1717857933088236000,7.637236083984375,0.03515548453330993,-0.020879377627931534,-0.03239437208978925
1717857933098277000,7.647277099609375,0.03291208952069282,-0.01733257186654955,-0.03913197781569324
1717857933108318200,7.657318115234375,0.030216274565458296,-0.01739898816626519,-0.033153962852014225
1717857933118359000,7.667359130859375,0.025576339805126188,-0.02185505425967276,-0.025341772997425866
1717857933128399000,7.677399169921875,0.027968203377723693,-0.023746494029462335,-0.025605606998805888
1717857933138440200,7.687440185546875,0.021985037314891813,-0.018714637342095376,-0.03685215064967051
1717857933148481000,7.69748095703125,0.039943887853622434,-0.01520374314431101,-0.037322179314214735
1717857933158522000,7.707522216796875,0.03380757705569267,-0.016348054341226815,-0.022373748938110654
1717857933168563200,7.717563232421875,0.029766777232289314,-0.0238286193549633,-0.021573008748167193
1717857933178603000,7.72760302734375,0.016749474748969078,-0.02448850803580135,-0.031198499668994916
1717857933188643800,7.737643798828125,0.03216507054567337,-0.02441613691933453,-0.029561614615586585
1717857933198685000,7.747684814453125,0.02797521764039993,-0.019487411812879146,-0.020291759598860516
1717857933208726000,7.75772607421875,0.02079436622560024,-0.012500037143565713,-0.015241988228890113
1717857933218766800,7.767766845703125,0.01241582945883274,-0.013869718061573803,-0.026694073522370305
1717857933228807000,7.777806884765625,0.02199263609945774,-0.013135229774564505,-0.03107614736438263
1717857933238848000,7.787847900390625,0.028429975670576094,-0.017553740336559712,-0.017076587811484932
1717857933248889000,7.79788916015625,0.023493688312172887,-0.02657715087812394,-0.028214446923485955
1717857933258930000,7.807929931640625,0.02244797865152359,-0.02751574690248817,-0.03770655268903356
1717857933268970000,7.817969970703125,0.020503274324536323,-0.027093174108862875,-0.02019718121716287
1717857933279011000,7.828010986328125,0.02065408097207546,-0.03189783444423228,-0.03522019749970641
1717857933289052000,7.838052001953125,0.032623920229077334,-0.014039740866236388,-0.029437472212687135
1717857933299093000,7.848093017578125,0.04250058659911155,-0.023170593837648627,-0.02635933884240221
1717857933309134000,7.858134033203125,0.019908815562725064,-0.02013020322844386,-0.025665378928603603
1717857933319174700,7.868174560546875,0.02529576929807663,-0.010381802880577742,-0.03294590045874938
1717857933329215500,7.878215576171875,0.03636486032307148,-0.0060742418797686696,-0.02338624131574761
1717857933339256600,7.888256591796875,0.019752748218178746,-0.02110408976189792,-0.02595711471706163
1717857933349297400,7.89829736328125,0.023345804274082182,-0.02308437685891986,-0.03112157567499671
1717857933359337500,7.90833740234375,0.010329086312651633,-0.02237162547968328,-0.027300163356470872
1717857933369378600,7.918378662109375,0.0240945768147707,-0.014711502647958695,-0.02640485391798429
1717857933379419600,7.928419677734375,0.023648002091050148,-0.021947920174896714,-0.025868299355870112
1717857933389460500,7.93846044921875,0.031580548655986786,-0.00671611997988075,-0.034072625766624696
1717857933399501600,7.94850146484375,0.018863105902075766,-0.016641374731995163,-0.03144474321475718
1717857933409541600,7.958541748046875,0.031283027014136315,-0.014397249067015946,-0.023784378354437648
1717857933419582700,7.968582763671875,0.034277532655000685,-0.03183138161189854,-0.04079100163567345
1717857933429623600,7.97862353515625,0.01751929007768631,-0.019869469933025536,-0.04118567264222074
1717857933439664600,7.98866455078125,0.017520459121465683,-0.012563421235978603,-0.04792998667012434
1717857933449704400,7.998704345703125,0.014678513693809509,-0.02547507138773799,-0.030731019154563544
1717857933459745300,8.008745361328126,0.038919805502891536,-0.016193923225440086,-0.03555316948085092
1717857933469786400,8.018786376953125,0.028294366592168805,-0.02468881638087332,-0.025659917302196845
1717857933479827500,8.028827392578124,0.026800913164019582,-0.01953490421641618,-0.02628463877153117
1717857933489868300,8.038868408203125,0.026951135289669036,-0.009534903727658093,-0.026362567412527276
1717857933499908400,8.048908447265624,0.030392800176143646,-0.008349310672283172,-0.03833958989556413
1717857933509949400,8.058949462890626,0.028000352081656455,-0.0285839241232723,-0.03433662873136345
1717857933519990500,8.068990478515625,0.036979192829132077,-0.017245331974513826,-0.02126868747277185
1717857933530031400,8.07903125,0.0215630125105381,-0.008751973189041019,-0.027767141547403295
1717857933540071400,8.089071533203125,0.02829553563594818,-0.024279687590710818,-0.045561303043714724
1717857933550112500,8.099112548828124,0.017220599392056463,-0.009262078135646879,-0.025641979786707087
1717857933560153600,8.109153564453125,0.025751111850142477,-0.02052884715721011,-0.026486458653677252
1717857933570194400,8.1191943359375,0.029940964755415914,-0.02906432805135846,-0.026744762529991566
1717857933580235500,8.129235595703125,0.030392215654253957,-0.018063516489602624,-0.03165952760975342
1717857933590275600,8.139275634765625,0.02530219903886318,-0.01635327850561589,-0.024140808842983096
1717857933600316400,8.14931640625,0.03128594962358475,-0.020501520758867263,-0.02803241858719848
1717857933610357500,8.159357421875,0.03247954332232475,-0.01051302804481238,-0.026407826759782618
1717857933620398600,8.169398681640626,0.023202011889219283,-0.02816496805883944,-0.02520289881627541
1717857933630438700,8.179438720703125,0.030682138511538504,-0.015391593866609037,-0.028377099272445774
1717857933640479500,8.1894794921875,0.029933950492739676,-0.018829897752217946,-0.027885301734087986
1717857933650520600,8.1995205078125,0.02948445315957069,-0.013284648182615637,-0.03638322709682398
1717857933660561700,8.209561767578125,0.02933423103392124,-0.02223667398840189,-0.032808565214136616
1717857933670602500,8.2196025390625,0.026194179442524907,-0.019174436873570084,-0.02534175929769408
1717857933680642600,8.229642578125,-0.05175999785363674,-0.02105743760857731,-0.024496549778361805
1717857933690683600,8.23968359375,-0.005219780474901199,-0.025955365717969834,-0.010024806136451661
1717857933700724500,8.249724365234375,0.07827917146682739,-0.018071151806786655,-0.0328737850706093
1717857933710765600,8.259765625,0.10162322217524052,-0.01942757138442248,-0.04726464549603406
1717857933720805400,8.269805419921875,0.08426467561721801,-0.014128003671579062,-0.02620018905820325
1717857933730846500,8.279846435546874,0.00301028773188591,-0.039071525465883314,-0.024201019164198076
1717857933740887300,8.28988720703125,-0.058341129809617996,-0.028588234972208738,-0.031002789867226963
1717857933750928400,8.299928466796874,0.011090718334913253,-0.005825564348325133,-0.025044406619202344
1717857933760969500,8.309969482421875,0.0880038621455431,0.0054214405268430705,-0.03899739621717017
1717857933771009500,8.320009521484375,0.07288754155635833,0.011950476969406008,-0.03709782793985214
1717857933781050400,8.33005029296875,0.005547697255015373,-0.0014085881562903523,-0.033699929129867814
1717857933791091500,8.340091552734375,-0.026778116810321807,-0.017312953850626943,-0.022747979944827964
1717857933801132500,8.350132568359374,0.024546412235498426,-0.03911204013936222,-0.03431701984859537
1717857933811173400,8.36017333984375,0.06494739620685577,-0.043108087505586444,-0.01757374651154969
1717857933821213400,8.37021337890625,0.04429682236611843,-0.030068061733804642,-0.0244739178214455
1717857933831254500,8.380254638671875,-0.0008919804036617279,-0.01560366571471095,-0.0503635111270938
1717857933841295400,8.39029541015625,0.010183540362119674,-0.007586473073624074,-0.04425624376055784
1717857933851336400,8.40033642578125,0.03652385027706623,-0.0072674702523276204,-0.025531336186197583
1717857933861376500,8.41037646484375,0.04595335740149021,0.0022162512773647902,-0.023570324611803514
1717857933871417600,8.42041748046875,0.0281464825540781,-0.004499430311098694,-0.03120645464658737
1717857933881458400,8.43045849609375,0.007497077757120132,-0.01963609956856817,-0.018045588107267394
1717857933891499500,8.44049951171875,-0.014799509724974631,-0.024105244339257478,-0.03344653889068868
1717857933901540600,8.45054052734375,0.018269816184043882,-0.023192842202074824,-0.038111224499787204
1717857933911580700,8.46058056640625,0.03742401398718357,-0.031881065972521896,-0.04561354468760546
1717857933921621500,8.47062158203125,0.036225159591436386,-0.02435030514150858,-0.036794767039781434
1717857933931662600,8.48066259765625,0.012882277926802634,-0.017791750343516467,-0.03598537318592425
1717857933941703700,8.49070361328125,0.023208441630005835,-0.01679404454305768,-0.025029939702432603
1717857933951743500,8.500743408203125,0.03772212015092373,-0.011075886091962457,-0.019425685388012787
1717857933961784600,8.51078466796875,0.030240239962935445,-0.013475458046980202,-0.017172700563143007
1717857933971825700,8.52082568359375,0.01572422335445881,-0.02568962745387107,-0.02517682366010267
1717857933981866500,8.530866455078124,0.007494739669561386,-0.024069588503986595,-0.032217709481786004
1717857933991907600,8.540907470703125,0.03517769636511803,-0.0204794915901497,-0.04161516380039975
1717857934001947400,8.550947509765624,0.04400689950883388,-0.025116905599832533,-0.03239988851512316
1717857934011988500,8.560988525390625,0.035327918490767475,-0.026329971184022725,-0.02876665114588104
1717857934022029300,8.571029296875,0.022609306693077084,-0.03261449481360614,-0.020294860304822214
1717857934032070400,8.5810703125,0.017519874599575994,-0.03003310001827776,-0.022054472122178412
1717857934042110500,8.5911103515625,0.02111117708981037,-0.01940360598694533,-0.03358730363482609
1717857934052151600,8.601151611328126,0.027696400699019432,-0.006716010382026434,-0.024324663810175843
1717857934062192400,8.6111923828125,0.013780103549361229,-0.009403020976297556,-0.02298427748531103
1717857934072233500,8.6212333984375,0.02305705046057701,-0.01925502782911062,-0.032740290317474864
1717857934082274600,8.631274658203125,0.019766776743531226,-0.017961590485088528,-0.028743539698352104
1717857934092314400,8.641314453125,0.032488895672559734,-0.03180431094188243,-0.03357437565459404
1717857934102355500,8.65135546875,0.04041968867182731,-0.04033818440083414,-0.027726298080361447
1717857934112396500,8.661396484375,0.019621230792999267,-0.03573003301825374,-0.03401913744714111
1717857934122437400,8.671437255859376,0.01648234824538231,-0.022669183654151857,-0.03120424442319199
1717857934132477400,8.6814775390625,0.016484686332941055,-0.02649082430154085,-0.025504895703843792
1717857934142518500,8.6915185546875,0.02531272043287754,-0.0013364362355321644,-0.027862222252599895
1717857934152559600,8.7015595703125,0.03204816616773605,0.0010156798485666512,-0.021923767547751775
1717857934162600400,8.711600341796874,0.031001287463307377,-0.021729856977425514,-0.021250466829491776
1717857934172641500,8.7216416015625,0.023068740898370743,-0.025881094905361533,-0.027508979234984143
1717857934182681600,8.731681640625,0.019326047238707542,-0.028818719259835777,-0.02645953868071083
1717857934192722400,8.741722412109375,0.027406477841734885,-0.028832418991625308,-0.02789537103695329
1717857934202763500,8.751763427734375,0.026658289822936058,-0.024790596254914997,-0.04016707475078292
1717857934212804600,8.7618046875,0.01828092209994793,-0.018863800021819768,-0.038267830700450575
1717857934222844700,8.7718447265625,0.016785130584239957,-0.021579050329886374,-0.016553609683574177
1717857934232885500,8.781885498046876,0.018731588476896283,-0.014277750873193143,-0.021207230475964022
1717857934242926600,8.791926513671875,0.030853403425216672,-0.020312720188498497,-0.022251410333230158
1717857934252967700,8.8019677734375,0.03204816616773605,-0.02069159997086972,-0.02518970597456209
1717857934263007500,8.812007568359375,0.023819267004728317,-0.016218692340515553,-0.03139717774598393
1717857934273048300,8.82204833984375,0.020827683973312378,-0.0270109757181257,-0.019355410330509765
1717857934283089400,8.83208935546875,0.02142448082268238,-0.025762473494373262,-0.03221464987501967
1717857934293130500,8.842130615234375,0.014240706798434257,-0.0195978133847937,-0.02051158092857804
1717857934303171300,8.85217138671875,0.02546118899285793,-0.025212584526650605,-0.023666012671776114
1717857934313211100,8.862211181640625,0.024860300490260123,-0.02049779443182051,-0.034136799876904114
1717857934323252200,8.872252197265626,0.019772037440538404,-0.017626988235861063,-0.034799793830281124
1717857934333293300,8.882293212890625,0.012436872246861456,-0.0076676485510542985,-0.03398748650013003
1717857934343334100,8.892334228515624,0.03159223909378051,-0.02209956707265228,-0.02318387801090721
1717857934353375200,8.902375244140625,0.029347090515494344,-0.01686586767025292,-0.014099156603007576
1717857934363415300,8.912415283203124,0.012586509850621222,-0.022839060328342018,-0.028083176093478684
1717857934373456100,8.9224560546875,0.03652735740840435,-0.019652758442424235,-0.03621151922515128
1717857934383497200,8.932497314453125,0.03578092295527458,-0.027930867042019962,-0.02367044681829866
1717857934393538300,8.942538330078126,0.02485913144648075,-0.02484298402927816,-0.03831609942212235
1717857934403578400,8.952578369140625,0.02530921330153942,-0.019770685733668504,-0.03238659520871006
1717857934413619200,8.962619140625,0.015731237617135047,-0.013020700016804039,-0.029006885075964963
1717857934423660300,8.972660400390625,0.031142741760611534,0.0009289514131844044,-0.029573748011374846
1717857934433701400,8.982701416015624,0.01946983962357044,-0.007117211594060063,-0.031216510249720886
1717857934443741400,8.992741455078125,0.027252748584747313,-0.013316248897276818,-0.033037122406158595
1717857934453782300,9.0027822265625,0.02395896773636341,-0.02523022978119552,-0.027655593764595685
1717857934463823400,9.0128232421875,0.026952304333448408,-0.024796258810721335,-0.03000479180582333
1717857934473864200,9.0228642578125,0.03188800716996193,-0.016634725795499978,-0.031283976862207054
1717857934483905300,9.0329052734375,0.02305880402624607,-0.023503442521207032,-0.04190575794454198
1717857934493945000,9.042945068359375,0.017520459121465683,-0.01283135145716369,-0.02465200063497759
1717857934503986400,9.052986328125,0.023211948761343956,-0.006394267614372074,-0.02122979850079864
1717857934514027300,9.06302734375,0.02949497455358505,-0.01174370235092938,-0.028825180966663172
1717857934524068400,9.073068359375,0.035631285351514816,-0.020600158827751874,-0.024351939976168795
1717857934534109400,9.083109375,0.020066636472940443,-0.018884185222722588,-0.03853301184212323
1717857934544149200,9.093149169921874,0.016773440146446227,-0.01917644616756588,-0.03188484709849581
1717857934554190000,9.103190185546875,0.013479659298062325,-0.027795988615974782,-0.024997685967222787
1717857934564231200,9.113231201171875,0.02709726576209068,-0.013907675451785326,-0.022554891358409077
1717857934574272300,9.123272216796876,0.026198271095752713,-0.018354900651611387,-0.03495840019178577
1717857934584312300,9.133312255859375,0.029040801045298575,-0.01116893467027694,-0.025040451963292434
1717857934594353200,9.143353271484376,0.02185585797727108,-0.012749737588316202,-0.01932738067926839
1717857934604394200,9.153394287109375,0.01676467231810093,-0.014880940930731593,-0.021870397959277033
1717857934614435000,9.16343505859375,0.02574351306557655,-0.0077081632245332,-0.026103185823978855
1717857934624476200,9.17347607421875,0.015270634368062018,-0.01674998620562255,-0.02769513575711753
1717857934634516200,9.18351611328125,0.022604045996069907,-0.024875059667974708,-0.03622931061016861
1717857934644557300,9.193557373046875,0.028289105895161627,-0.012712474317848681,-0.0377173617774155
1717857934654598100,9.20359814453125,0.030681553989648818,-0.020885807368718087,-0.032042156552057714
1717857934664639200,9.21363916015625,0.021403438034653662,-0.023560908329486846,-0.03416670182482339
1717857934674679300,9.22367919921875,0.027836101430654524,-0.030233335298113524,-0.02472128931179177
1717857934684720400,9.233720458984376,-0.031421558701992036,-0.026138138406351208,-0.023807823162106796
1717857934694761200,9.24376123046875,-0.05132277548015118,-0.017358948416821656,-0.02677198389705736
1717857934704802300,9.25380224609375,0.12240414439737796,-0.010436017285846174,-0.026499226803705096
1717857934714843400,9.263843505859375,0.09067804979085922,0.0008867927718907594,-0.044871987338992766
1717857934724883200,9.27388330078125,0.06269055719077586,-0.018998970708809793,-0.031043692699773234
1717857934734924300,9.28392431640625,0.002384264788031578,-0.05767777053005993,-0.006810538531374186
1717857934744965400,9.29396533203125,-0.038166356787085534,-0.042892691189236935,-0.03761592896324582
1717857934755006200,9.304006103515626,-0.0037491234004497524,-0.01597976901810616,-0.02427920353352092
1717857934765046300,9.31404638671875,0.07301321376264094,-0.0023017741363495587,-0.035416916515049524
1717857934775087400,9.32408740234375,0.0577484246134758,0.01287117201089859,-0.024846705789747646
1717857934785128400,9.33412841796875,-0.0172235220015049,0.012555712853558361,-0.028513210674352012
1717857934795169300,9.344169189453124,-0.01946808605790138,0.004327325147204101,-0.019512573653599246
1717857934805210400,9.35421044921875,0.03574760520756244,-0.01901131873372942,-0.03383700407957658
1717857934815250200,9.364250244140624,0.06656769088506698,-0.03755896547846496,-0.0308226201278856
1717857934825291300,9.374291259765625,0.03783434835374355,-0.05199179731551557,-0.034996695508714766
1717857934835332000,9.38433203125,0.013294950380921364,-0.05039375100173056,-0.028651545999385415
1717857934845373200,9.394373291015626,0.004618307450413704,-0.04254175885971635,-0.033978175249090414
1717857934855413200,9.404413330078125,0.05130465530157089,-0.010060717700049281,-0.044600417555728925
1717857934865454000,9.4144541015625,0.048611762955784794,0.00578713203407824,-0.039947239721333606
1717857934875495200,9.4244951171875,0.007462590965628624,0.008767609149590135,-0.031217747792159207
1717857934885536300,9.434536376953124,-0.003762567403912544,0.0004488032134249806,-0.007067919959081337
1717857934895577000,9.4445771484375,0.015539514437317848,-0.016575762149877844,-0.015734968510759062
1717857934905617200,9.4546171875,0.046963995748758314,-0.0195998592114076,-0.03351653995355591
1717857934915658200,9.464658203125,0.033496026888489724,-0.023178594481013715,-0.03597895257829223
1717857934925699300,9.47469921875,0.01883212624192238,-0.02828917896039784,-0.03415188784818165
1717857934935740200,9.484740234375,0.007309446230530738,-0.03096800624821335,-0.03279427182730287
1717857934945780200,9.4947802734375,0.04307283352911472,-0.024859460240043697,-0.03556764553077519
1717857934955821300,9.5048212890625,0.0432218866109848,-0.010163483954779803,-0.02914016519996803
1717857934965862400,9.5148623046875,0.029604280146956444,-0.00790569509062916,-0.01819489691746421
1717857934975903200,9.5249033203125,0.014043138399720191,-0.0007519508784636855,-0.03347936344805639
1717857934985944300,9.5349443359375,0.006113514444231987,-0.02084595028236508,-0.016290908193355425
1717857934995984400,9.544984375,0.019131985971331596,-0.01799713672250509,-0.03684295356306247
1717857935006025200,9.555025146484375,0.05324760606288909,-0.02436024201363325,-0.043319825993548146
1717857935016066300,9.56506640625,0.038131285473704334,-0.024123510648310184,-0.035235632530855945
1717857935026107400,9.575107421875,0.008954290828108787,-0.02270202647782862,-0.04153904352399986
1717857935036147500,9.5851474609375,0.03215162654221058,-0.028349859639070926,-0.033725223401328545
1717857935046188300,9.595188232421876,0.028862521868944165,-0.01062649835664779,-0.0222041690914426
1717857935056229400,9.6052294921875,0.03933773865401745,-0.01201137684378773,-0.027863738356251267
1717857935066270500,9.6152705078125,0.013602408894896506,-0.015649550683051346,-0.021658782768901437
1717857935076311300,9.625311279296875,0.014500819039344786,-0.014910970742814241,-0.013434623713092878
1717857935086351000,9.63535107421875,0.022878771284222603,-0.01638487922027707,-0.017994940198841503
1717857935096392200,9.64539208984375,0.030512042641639706,-0.018685082454048096,-0.03998663558338303
1717857935106433300,9.655433349609375,0.024527707535028455,-0.027102818720042703,-0.035288070537569
1717857935116474000,9.66547412109375,0.007619242832064628,-0.030873752093501388,-0.029441577565646727
1717857935126515200,9.67551513671875,0.01091477724611759,-0.033199199366383256,-0.0304438864759868
1717857935136555300,9.68555517578125,0.01809562866091728,-0.02519187053218484,-0.03351323375161737
1717857935146596000,9.69559619140625,0.04203589169681072,-0.011662599938735365,-0.029951445050234903
1717857935156637200,9.70563720703125,0.02497720486819744,-0.016886654729954896,-0.030040589204989372
1717857935166678300,9.71567822265625,0.02468085227012634,-0.011729564227722585,-0.03471640356287826
1717857935176718300,9.72571826171875,0.027523382219672203,-0.022057664159685374,-0.023581736488384193
1717857935186759200,9.73575927734375,0.028870705175399778,-0.03226063987463713,-0.01997147356935311
1717857935196800300,9.74580029296875,0.037404140242934224,-0.021160130798071622,-0.040169006412965245
1717857935206841300,9.75584130859375,0.025431378376483914,-0.027240364027209578,-0.03118583655024413
1717857935216882200,9.765882080078125,0.03560322830080986,-0.018614537968486545,-0.038469719081255606
1717857935226922200,9.775922119140626,0.02722235344648361,-0.026190891506895422,-0.025651217972510493
1717857935236963300,9.78596337890625,0.03485387123823166,-0.008851378442905842,-0.017498612615838644
1717857935247004200,9.796004150390624,0.03455634959638119,-0.007863317253626883,-0.017901594793004915
1717857935257045200,9.806045166015625,0.018096213182806967,-0.013565693613700568,-0.01530893425156828
1717857935267085300,9.816085205078124,0.013007365611195563,-0.01203994535114616,-0.02198919746677857
1717857935277126400,9.82612646484375,0.035601474735140796,-0.011259389432705939,-0.045292240311368366
1717857935287167200,9.836167236328125,0.024226094239950178,-0.016565423418954013,-0.030617768038436768
1717857935297208300,9.846208251953126,0.022578911554813383,-0.011290515223331748,-0.023301257312879898
1717857935307249400,9.85624951171875,0.029907062485814092,-0.014884228866361081,-0.02921247695093043
1717857935317288400,9.866288330078126,0.024069442373514174,-0.01872797174770385,-0.022162138314312324
1717857935327329300,9.876329345703125,0.025115152034163472,-0.02541804397087544,-0.027802176328166388
1717857935337370400,9.886370361328124,0.029304420417547224,-0.021648973760940132,-0.02374194571850821
1717857935347411500,9.896411376953125,0.014639935249090194,-0.007464490661770105,-0.02052772377920337
1717857935357451500,9.906451416015624,0.025712533405423163,-0.02347560466621071,-0.03180951227338519
1717857935367492400,9.916492431640625,0.025262451550364492,-0.022705095217749476,-0.02815184371578507
1717857935377533400,9.926533447265625,0.021673487147688863,-0.020957813159003854,-0.03866323235935997
1717857935387574500,9.936574462890626,0.019129063361883164,-0.02139255131445825,-0.038519348642951805
1717857935397615400,9.946615478515625,0.014940379500389098,-0.03189798057470471,-0.034373120250273496
1717857935407655400,9.956655517578126,0.026463059511780736,-0.016501454804651438,-0.03857977815987542
1717857935417696500,9.966696533203125,0.030502105769515037,-0.025000731874257325,-0.02525429564337246
1717857935427737600,9.976737548828124,0.018979425758123395,-0.013161825520545243,-0.025828168274881318
1717857935437778400,9.9867783203125,0.021820786663889882,-0.006810812526009976,-0.023889309166790915
1717857935447819500,9.996819580078125,0.026907880669832226,-0.010247070585004984,-0.02435818705386482
1717857935457859300,10.006859375,0.02810556602180004,-0.02329772734865546,-0.030873163005034437
1717857935467900200,10.016900146484375,0.02496317634284496,-0.01924779437072575,-0.035972253409447146
1717857935477941200,10.026941162109376,0.029900048223137854,-0.006931224035285413,-0.02701160590578802
1717857935487982300,10.036982421875,0.02436637949347496,-0.017500914170779286,-0.032292382153193466
1717857935498022400,10.0470224609375,0.030354806253314017,-0.017286358104646207,-0.03050698744060937
1717857935508063200,10.057063232421875,0.031253216397762296,-0.022234847357496618,-0.022169152576988562
1717857935518104300,10.067104248046874,0.02856090857386589,-0.018522731499187647,-0.01677232133501675
1717857935528145400,10.0771455078125,0.029309096592664716,-0.01748863921109587,-0.02425794154978357
1717857935538186200,10.087186279296875,0.03185352037847042,-0.008819887326098978,-0.0291776704990305
1717857935548226300,10.097226318359375,0.01674070692062378,-0.016033325836248696,-0.03060419617081061
1717857935558267400,10.107267333984375,0.025420856982469556,-0.034631351061351595,-0.023672424146253614
1717857935568308500,10.11730859375,0.02721884631514549,-0.02287573907691985,-0.02376418494977988
1717857935578349300,10.127349365234375,0.025422610548138616,-0.022413199599087236,-0.027215530980052426
1717857935588389400,10.137389404296876,0.029162381598353385,-0.01922160048354417,-0.026640735899936405
1717857935598430500,10.147430419921875,0.02646948925256729,-0.019848427144996822,-0.03276251584901474
1717857935608471300,10.15747119140625,0.024227263283729553,-0.017669000746682286,-0.031069818088295866
1717857935618512400,10.167512451171875,0.024376316365599632,-0.005101012933440507,-0.028656350038666276
1717857935628553500,10.177553466796875,0.022878771284222603,-0.007602145566791296,-0.030003736926475538
1717857935638593500,10.187593505859375,0.02183189257979393,-0.012545264524780213,-0.040808286130614574
1717857935648634400,10.19763427734375,0.027816812208294867,-0.016863200789131224,-0.029012967756879515
1717857935658675500,10.207675537109376,0.026470658296346664,-0.020035656812787055,-0.040357400557957585
1717857935668716500,10.217716552734375,0.01405190622806549,-0.0215704286320135,-0.01909370892071165
1717857935678757400,10.22775732421875,0.012255670461058616,-0.021526735620759425,-0.019470241482369602
1717857935688797400,10.23779736328125,-0.05567570999264717,-0.010895853349938988,-0.01930906413786579
1717857935698838500,10.247838623046874,0.05535480747520923,-0.018079956167750058,-0.01857569922886323
1717857935708879400,10.25787939453125,0.06028817222416401,-0.008097454803064464,-0.029054277014802208
1717857935718920400,10.26792041015625,0.0689677377641201,-0.001519793445803225,-0.03143443644987419
1717857935728960300,10.277960205078125,0.07719488336145877,-0.015056699356436729,-0.02813125758548267
1717857935739001300,10.28800146484375,0.03469780389368534,-0.04259834788516163,-0.032572459469898604
1717857935749042200,10.298042236328126,-0.0393745635330677,-0.0429957497049123,-0.03766817060713656
1717857935759083300,10.308083251953125,-0.009594926819205284,-0.012067089086398482,-0.020767852678010238
1717857935769124400,10.318124267578124,0.06387947471439838,-0.006903422712907194,-0.03780053284910973
1717857935779164400,10.328164306640625,0.07794248685836791,0.013996961170434951,-0.03699423513463698
1717857935789205200,10.338205322265624,0.021375380983948707,0.010537504898943006,-0.029089298095833507
1717857935799246300,10.348246337890625,-0.010197568887472152,-0.0013041048685088752,-0.028467554034874772
1717857935809287400,10.358287353515625,0.007906827601790428,-0.01501742679197341,-0.01898279589214362
1717857935819328300,10.368328369140626,0.04890636198818683,-0.033832090442441405,-0.028574937099218368
1717857935829368300,10.378368408203125,0.05084872822761535,-0.05037197756133973,-0.029003259213618002
1717857935839409400,10.388409423828126,-0.0182820911437273,-0.03543835659530013,-0.040145694036036725
1717857935849450200,10.3984501953125,0.008352817803621291,-0.03197247058302164,-0.043931030394183467
1717857935859491300,10.4084912109375,0.035136779832839964,-0.01668265659045428,-0.029508235893957315
1717857935869531400,10.418531494140625,0.03513385722339153,-0.004478752849251031,-0.02241685742747504
1717857935879572500,10.428572509765624,0.03363514309823513,-0.012640139733999967,-0.021546874226490036
1717857935889613300,10.43861328125,0.008794131830334662,-0.012621069707348942,-0.008118999914592131
1717857935899654400,10.448654296875,0.01732230620086193,-0.012453932979516684,-0.02002262380127795
1717857935909695500,10.458695556640626,0.031234511697292328,-0.022790216217935085,-0.029939485184382646
1717857935919735600,10.468735595703125,0.04514905528128147,-0.0390417513821274,-0.042493531237239944
1717857935929776400,10.4787763671875,0.029884850654006003,-0.02388316255379468,-0.05119121238919906
1717857935939817500,10.4888173828125,-0.0036351416319608688,-0.021025690763443707,-0.03109166002734564
1717857935949858300,10.4988583984375,0.00908405468761921,-0.025512115462496876,-0.03627997678490356
1717857935959898400,10.5088984375,0.03691664898693561,-0.020598149533756077,-0.021544992796657607
1717857935969939500,10.518939453125,0.03736556179821491,0.00003938216231763363,-0.009634747372940181
1717857935979980500,10.52898046875,0.019257073655724523,-0.009311872094124554,-0.012485926419822498
1717857935990021400,10.539021484375,0.02045358996391296,-0.009290865838713943,-0.020011015561874956
1717857936000062500,10.5490625,0.030031565648317337,-0.016795980771817265,-0.0332001857470721
1717857936010102300,10.559102294921875,0.03826046481132507,-0.03276212312337011,-0.030242710481234825
1717857936020143400,10.569143310546876,0.032273207095265384,-0.021054478466510772,-0.02662663887592498
1717857936030184200,10.57918408203125,0.013569675669074058,-0.022878186762332914,-0.02395809095352888
1717857936040225300,10.589225341796874,0.024640520259737966,-0.01772168078199029,-0.037400212986487893
1717857936050266400,10.599266357421875,0.027183775001764297,-0.014105755307152867,-0.029039796398300677
1717857936060306400,10.609306396484374,0.03615793957412243,-0.008291808331385254,-0.024869977067480793
1717857936070347300,10.61934716796875,0.029122634109854696,-0.018414887210540472,-0.029391139719774945
1717857936080388400,10.629388427734375,0.023884148934483526,-0.015391118942573665,-0.02981723791104741
1717857936090429200,10.63942919921875,0.022982816180586813,-0.022306780082546173,-0.029057277256064114
1717857936100469200,10.64946923828125,0.027021277916431427,-0.021973967931605873,-0.03603074669761117
1717857936110510300,10.65951025390625,0.03345686392188072,-0.022756679274514316,-0.03841889764289372
1717857936120551400,10.669551513671875,0.03285597541928291,-0.022081812220253048,-0.019249739732639864
1717857936130592300,10.67959228515625,0.011905541849136352,-0.021598229954391715,-0.033160155130783096
1717857936140633300,10.68963330078125,0.01983282771706581,-0.001465725171007216,-0.03562777365359943
1717857936150673400,10.69967333984375,0.04048340155780315,-0.01270476593542844,-0.02929094444804359
1717857936160714500,10.709714599609375,0.042727381092309946,-0.012241349674761294,-0.030187185468291862
1717857936170755300,10.71975537109375,0.017588848182559014,-0.01645947882644832,-0.022090013793017713
1717857936180796400,10.72979638671875,0.025070143848657606,-0.022859482061862946,-0.019711338495556265
1717857936190837500,10.73983740234375,0.02686345700621605,-0.021291100233979524,-0.024342710923519917
1717857936200877300,10.749877197265626,0.034493805754184724,-0.009440613040328026,-0.03374960892391391
1717857936210918400,10.75991845703125,0.017733809611201284,-0.022736257540993392,-0.03108465489782393
1717857936220959500,10.76995947265625,0.023271569994091985,-0.019029986901581288,-0.0312339819743298
1717857936231000300,10.780000244140625,0.01997837366759777,-0.013630027554184198,-0.0279929679262219
1717857936241041400,10.79004150390625,0.020872692158818245,-0.020107078081183134,-0.024187387931067495
1717857936251081500,10.80008154296875,0.0229658650457859,-0.018870339360460637,-0.03406662528410088
1717857936261122600,10.81012255859375,0.013687749090790747,-0.016287300597317516,-0.032313073314772914
1717857936271163400,10.820163330078126,0.02760229267477989,-0.013111556638032196,-0.031076900849631054
1717857936281204500,10.83020458984375,0.01652794095277786,-0.006339212958887219,-0.03226139792646281
1717857936291244300,10.840244384765626,0.025355975052714346,-0.017082871421799064,-0.030376387897459788
1717857936301285400,10.850285400390625,0.02430968087017536,-0.01996460087057203,-0.02196725962960627
1717857936311326200,10.860326171875,0.03343465209007263,-0.019578560695052146,-0.031244028444308784
1717857936321368300,10.870368408203126,0.026400515669584273,-0.012206022633053362,-0.027801336077949962
1717857936331409200,10.8804091796875,0.02774608505964279,-0.005430244887806475,-0.030498708236031232
1717857936341449200,10.89044921875,0.02609773333072662,-0.007444178526103496,-0.014809556194953619
1717857936351490300,10.900490234375,0.021906126859784124,-0.019972784177027643,-0.027951142645068466
1717857936361531100,10.91053125,0.021456629526615142,-0.03045238487627357,-0.025004111141432077
1717857936371572200,10.920572265625,0.02130640740096569,-0.013804434273019433,-0.024766694789519532
1717857936381613300,10.93061328125,0.017864157992601392,-0.010167539075389503,-0.02876987514942884
1717857936391653000,10.940653076171875,0.025792028382420538,-0.013989362385869026,-0.02555601396972779
1717857936401694000,10.95069384765625,0.023398411244153976,-0.016117935379780828,-0.024567226694663984
1717857936411735000,10.960735107421876,0.019060089778900145,-0.018251038418337702,-0.01769643674287945
1717857936421776100,10.970776123046875,0.014869067829847335,-0.013586809466965496,-0.018998080226243472
1717857936431817000,10.98081689453125,0.02220306397974491,-0.0034627076745033262,-0.027032411231799048
1717857936441857000,10.99085693359375,0.01905950525701046,-0.014054573109187184,-0.015035994495125486
1717857936451898000,11.000898193359374,0.014271101936697958,-0.017647044643200934,-0.02476824285921175
1717857936461939200,11.010939208984375,0.02639233236312866,-0.009160225196368992,-0.03066199077265337
1717857936471980000,11.02097998046875,0.017714520388841627,-0.006653320409357548,-0.03211011178831104
1717857936482020000,11.03102001953125,0.023995208093523977,-0.011768873324804007,-0.04035484327469021
1717857936492061200,11.041061279296875,0.022500001099705694,-0.027680691673234104,-0.029389271989674306
1717857936502102000,11.05110205078125,0.014869067829847335,-0.019146708616428077,-0.02359462793599814
1717857936512143000,11.06114306640625,0.039109190595149994,-0.0279432881321758,-0.023346923085511662
1717857936522184200,11.07118408203125,0.027734394621849057,-0.018280958632566034,-0.02204220629564952
1717857936532224300,11.081224365234375,0.019204466685652732,-0.01855455140955746,-0.030329909274075178
1717857936542265000,11.09126513671875,0.02638882523179054,-0.016791523792408405,-0.02260874957065098
1717857936552306200,11.10130615234375,0.024140754044055936,-0.013388108557090163,-0.025036529273423366
1717857936562347300,11.11134716796875,0.019649872365593908,-0.016026055845245718,-0.02791091109937988
1717857936572388000,11.12138818359375,0.03850421043932438,-0.020197752039320765,-0.025672310992889105
1717857936582428200,11.13142822265625,0.030572832918167113,-0.021680172616802156,-0.03851882805314381
1717857936592469200,11.14146923828125,0.03087152360379696,-0.012833324218541383,-0.04680573644712567
1717857936602510300,11.15151025390625,0.032818566018342966,-0.01153294567707926,-0.041319824982481074
1717857936612551200,11.16155126953125,0.028029578176140782,-0.007633088694326579,-0.031073124290234407
1717857936622591200,11.17159130859375,0.03176993374824524,-0.022423392199538646,-0.023182782032364048
1717857936632632300,11.18163232421875,0.0245867442458868,-0.017330233778990803,-0.015224671767908147
1717857936642673200,11.191673095703125,0.038950785163044926,-0.006811470113135874,-0.02825112567206379
1717857936652714200,11.20171435546875,0.03251519915759563,-0.013212825055420398,-0.03492180364159867
1717857936662755300,11.21175537109375,0.03296352744698524,-0.015759842657111583,-0.02365939570132177
1717857936672795100,11.221795166015625,0.02982055324614048,-0.027854331207089123,-0.023768874824629162
1717857936682836000,11.2318359375,0.024581483548879624,-0.02823774103410542,-0.020848352302005515
1717857936692877000,11.241876953125,-0.027192542830109596,-0.008338314354233444,-0.02614431241881102
1717857936702918100,11.251918212890626,0.04822714755237102,-0.02279175058789551,-0.025173188664601182
1717857936712959000,11.261958984375,0.07351590258777141,-0.014583236625790596,-0.03541301665806677
1717857936722999000,11.2719990234375,0.03685527418851852,-0.017008965935371816,-0.02605634187441319
1717857936733040000,11.2820400390625,0.018748539611697194,-0.011006364519707858,-0.018869919235352424
1717857936743081200,11.292081298828125,0.01680208171904087,-0.03583411444723606,-0.023296786633739245
1717857936753122000,11.3021220703125,0.04373801943957805,-0.02987221036814153,-0.02734647758307401
1717857936763163100,11.3121630859375,0.031767595660686494,-0.018796580004505813,-0.02488423392169643
1717857936773203200,11.322203125,0.024433599510788915,-0.012001038112863897,-0.022984071989334186
1717857936783244000,11.332244140625,0.015157237121462821,-0.0011120163625106215,-0.02739304297142662
1717857936793285000,11.34228515625,0.039249475848674775,-0.00710457130819559,-0.03027122875624336
1717857936803326200,11.352326171875,0.04493512026965618,-0.0030393676958978175,-0.025472176177753134
1717857936813366300,11.3623662109375,0.028021394869685173,-0.014709274158254265,-0.03182137624111492
1717857936823407000,11.372406982421875,0.024725860455632208,-0.019691519550234078,-0.026238228646805507
1717857936833448200,11.3824482421875,0.017542670953273772,-0.02717895269617438,-0.024502550260885617
1717857936843489300,11.3924892578125,0.019787235009670258,-0.01402611419968307,-0.033535888541419985
1717857936853530000,11.402530029296875,0.03998772699534893,-0.006242255390435457,-0.038882670096587385
1717857936863570200,11.412570068359376,0.026369536009430882,-0.005759367244318127,-0.03301920315697789
1717857936873611300,11.422611328125,0.017389526218175886,-0.010652034656703472,-0.023338821977446786
1717857936883652000,11.432652099609374,0.01873568013012409,-0.008403013620898127,-0.019366392948827704
1717857936893693200,11.442693115234375,0.03280103036165237,-0.012459522470086812,-0.014930698356591164
1717857936903734300,11.452734375,0.04686754963696003,-0.012325082435458897,-0.03345590494065545
1717857936913774300,11.4627744140625,0.023372692281007766,-0.020196400332450865,-0.028426226510643027
1717857936923815200,11.472815185546875,0.016337386816740036,-0.010251637162268162,-0.03513276581142563
1717857936933856300,11.482856201171876,0.025468787777423858,-0.014853651065006851,-0.02854762896718457
1717857936943897300,11.4928974609375,0.03399754666984081,-0.01887581925317645,-0.030160306594520805
1717857936953938200,11.502938232421876,0.03324818960726261,-0.007602803153917193,-0.04292328269032296
1717857936963978000,11.51297802734375,0.02846153985261917,-0.014987141251564026,-0.022590359964012166
1717857936974019000,11.52301904296875,0.025021044009923932,-0.0066547451814636584,-0.02061107751398813
1717857936984060200,11.53306005859375,0.030560557958483694,0.001037855147756636,-0.03226240257346071
1717857936994101000,11.54310107421875,0.0314577990591526,-0.01092179150879383,-0.02179352419762872
1717857937004141000,11.55314111328125,0.028463293418288228,-0.0077276351099833844,-0.026150093705626203
1717857937014182100,11.56318212890625,0.028465046983957288,-0.017342874064855275,-0.027963276040856726
1717857937024223000,11.573222900390626,0.02232932070791721,-0.022272549019381402,-0.026786368615436366
1717857937034264000,11.58326416015625,0.025022797575592993,-0.0152414813388139,-0.021971657243510707
1717857937044305200,11.59330517578125,0.02502513566315174,-0.015311331704631446,-0.02840397814621683
1717857937054345200,11.60334521484375,0.03250760037302971,-0.010996646843291819,-0.027605548644368535
1717857937064386000,11.613385986328124,0.0363987625926733,-0.017147022699192164,-0.021046331692673264
1717857937074427100,11.62342724609375,0.022333996883034706,-0.017333887040801344,-0.031204897443740626
1717857937084468200,11.63346826171875,0.033110242441296574,-0.014857340859435499,-0.024553956221137194
1717857937094509000,11.643509033203125,0.011415712505578993,-0.018519151302613317,-0.020998848422290755
1717857937104549000,11.653549072265625,0.020994272711873055,-0.024410145569965243,-0.01938041690760292
1717857937114590200,11.663590087890626,0.02114157222807407,-0.01746036296468228,-0.03137651398386806
1717857937124631000,11.673631103515625,0.030566987699270246,-0.018148235630989072,-0.03210690148449503
1717857937134672100,11.683672119140626,0.027573066580295562,-0.011961875146254896,-0.011954335727193392
1717857937144713200,11.693713134765625,0.036404607811570164,-0.024167130594328044,-0.0359194546431303
1717857937154753300,11.703753173828124,0.03415945923328399,-0.026548180511966345,-0.03517725797370076
1717857937164794000,11.713794189453125,0.02294073060452938,-0.010956205235049128,-0.026406575517612507
1717857937174835200,11.723835205078124,0.02817921577990055,-0.010384506294317543,-0.0295513443833217
1717857937184876300,11.733876220703126,0.032068039911985396,-0.0076354998471215366,-0.022821903697564264
1717857937194917000,11.743917236328125,0.015760463711619377,-0.019557992831058798,-0.02535313007507939
1717857937204957200,11.753957275390626,0.030122166541218756,-0.01691401766091585,-0.03965599255664274
1717857937214998300,11.763998291015625,0.028775428107380867,-0.009147511845268309,-0.01883361494611017
1717857937225039400,11.774039306640624,0.024735212805867195,-0.015872399653494358,-0.02948311058585532
1717857937235080200,11.784080078125,0.03131751380562782,-0.016729674069955944,-0.03824653218409512
1717857937245120000,11.7941201171875,0.037602877685427666,-0.017040712780505417,-0.02505754009541124
1717857937255161000,11.8041611328125,0.026826047605276106,-0.007090652380697429,-0.03351694181235507
1717857937265202000,11.814201904296874,0.01679857458770275,0.0007450096810236573,-0.017624563383334315
1717857937275243000,11.824242919921875,0.02338204463124275,-0.009745075879618524,-0.03367979965729173
1717857937285284000,11.8342841796875,0.019040216034650802,-0.00397876743786037,-0.030842913997243156
1717857937295324200,11.84432421875,0.015748188751935958,-0.016835545597225426,-0.016960071592614985
1717857937305365000,11.854364990234375,0.016942951494455336,-0.014961239625327288,-0.027200132481520995
1717857937315406000,11.864406005859376,0.019188684594631192,-0.017699578548036516,-0.03629959936740342
1717857937325447700,11.87444775390625,0.019938041657209395,-0.01790693768840283,-0.021826750613795593
1717857937335488500,11.884488525390625,0.03056289604604244,-0.020318382744304836,-0.026271117136254907
1717857937345528600,11.894528564453125,0.009614800563454628,-0.012294796895049512,-0.034445628364058206
1717857937355569700,11.904569580078125,0.03310615078806877,-0.014203918452002107,-0.030017706086323596
1717857937365610500,11.914610595703126,0.020684476110339165,-0.029698424703814088,-0.028961173637560567
1717857937375651600,11.924651611328125,0.021130466312170026,-0.02676295577380806,-0.042000678819534364
1717857937385692700,11.934692626953124,0.02801321156322956,-0.01133804415948689,-0.02314457804698031
1717857937395732700,11.944732666015625,0.020980244186520575,-0.01912150110993534,-0.012675133415567688
1717857937405773600,11.954773681640624,0.02711655498445034,-0.02379040623642504,-0.01923598976850044
1717857937415814700,11.964814697265625,0.03429740639925003,-0.008492408937402069,-0.020373989955638536
1717857937425855700,11.974855712890625,0.025319734695553778,-0.018086678169481455,-0.028855904898489822
1717857937435896600,11.984896484375,0.025471125864982604,-0.01844849721919745,-0.030959142521745524
1717857937445936400,11.994936279296875,0.032055764952301974,-0.014723339216224849,-0.03573948583318852
1717857937455977500,12.0049775390625,0.028017303216457366,-0.01925919254757464,-0.02997316369169857
1717857937466018600,12.0150185546875,0.03280746010243892,-0.022896160810440776,-0.018749809120176358
1717857937476059400,12.025059326171874,0.03190846543610096,-0.011950403904169796,-0.021400944683467968
1717857937486099500,12.035099365234375,0.0372919120401144,-0.022779292965121566,-0.018372911232337353
