time,seconds_elapsed,z,y,x
1717857925545111000,0.094111083984375,9.831040929412842,0.2967313682556152,0.029179332733154296
1717857925555152000,0.10415185546875,9.834033681488037,0.29269115295410153,0.025438392639160156
1717857925565193000,0.11419287109375,9.827299989318847,0.2998737579345703,0.027682956695556638
1717857925575234000,0.124234130859375,9.808296013641357,0.29658173065185545,0.03980360260009765
1717857925585273900,0.13427392578125,9.821763397979735,0.2929904281616211,0.024091654205322263
1717857925595315000,0.14431494140625,9.822361948394775,0.2932897033691406,0.03920505218505859
1717857925605356000,0.15435595703125,9.815628256225585,0.28999767608642574,0.01601122360229492
1717857925615396900,0.16439697265625,9.814281517791747,0.29867665710449215,0.031573534393310544
1717857925625436700,0.174436767578125,9.840318460845946,0.3033154228210449,0.04115034103393554
1717857925635477800,0.184477783203125,9.832836580657958,0.29867665710449215,0.027084406280517576
1717857925645518800,0.194518798828125,9.816226806640625,0.29553426742553707,0.03696048812866211
1717857925655559700,0.2045595703125,9.822511585998535,0.29867665710449215,0.0430956298828125
1717857925665599700,0.214599853515625,9.831040929412842,0.2976291938781738,0.03920505218505859
1717857925675640800,0.224640869140625,9.816077169036864,0.29403789138793945,0.031124621582031248
1717857925685682000,0.234681884765625,9.820117384338378,0.28730419921875,0.02528875503540039
1717857925695722800,0.24472265625,9.82580361328125,0.2973299186706543,0.03486556167602539
1717857925705762800,0.2547626953125,9.81263550415039,0.3022679595947265,0.041000703430175776
1717857925715804000,0.264803955078125,9.843311212921142,0.2958335426330566,0.034715924072265626
1717857925725844700,0.2748447265625,9.848398891448975,0.29179332733154295,0.0326209976196289
1717857925735885800,0.2848857421875,9.823259774017334,0.29568390502929687,0.03666121292114258
1717857925745926000,0.29492578125,9.834781869506836,0.2989759323120117,0.029179332733154296
1717857925755967000,0.304967041015625,9.842413387298583,0.30271687240600587,0.034715924072265626
1717857925766007800,0.3150078125,9.848398891448975,0.30301614761352536,0.02124853973388672
1717857925776049000,0.325048828125,9.837176071166992,0.31109657821655273,0.03725976333618164
1717857925786089000,0.3350888671875,9.827150351715087,0.28176760787963867,0.030974983978271482
1717857925796130000,0.345130126953125,9.826252526092528,0.2980781066894531,0.040402153015136714
1717857925806171000,0.3551708984375,9.820566297149657,0.30570962448120115,0.033518823242187495
1717857925816210700,0.365210693359375,9.815029705810547,0.28790274963378903,0.03336918563842773
1717857925826252000,0.375251953125,9.81936919631958,0.2904465888977051,0.035464112091064454
1717857925836292900,0.38529296875,9.828197814941406,0.28371289672851563,0.02633621826171875
1717857925846334000,0.395333984375,9.83792425918579,0.29867665710449215,0.022146365356445312
1717857925856373800,0.405373779296875,9.809792389678954,0.29074586410522457,0.02558803024291992
1717857925866414800,0.415414794921875,9.814730430603026,0.29014731369018554,0.03531447448730469
1717857925876455700,0.42545556640625,9.83792425918579,0.28371289672851563,0.028880057525634766
1717857925886496800,0.435496826171875,9.829993466186522,0.3033154228210449,0.0383072265625
1717857925896536800,0.445536865234375,9.83238766784668,0.3091512893676758,0.031124621582031248
1717857925906578000,0.455577880859375,9.823259774017334,0.3001730331420898,0.02977788314819336
1717857925916618800,0.46561865234375,9.810091664886475,0.29388825378417965,0.03127425918579101
1717857925926659800,0.475659912109375,9.827748902130127,0.2964320930480957,0.029927520751953124
1717857925936700000,0.485699951171875,9.835530057525634,0.2846107223510742,0.029328970336914062
1717857925946741000,0.495740966796875,9.808445651245117,0.27099370040893556,0.029628245544433593
1717857925956781800,0.50578173828125,9.815328981018066,0.2976291938781738,0.037110125732421874
1717857925966823000,0.515822998046875,9.849595992279053,0.28805238723754883,0.03441664886474609
1717857925976863000,0.525863037109375,9.852289469146728,0.29358897857666016,0.03232172241210937
1717857925986903800,0.53590380859375,9.823259774017334,0.30466216125488277,0.04414309310913086
1717857925996945000,0.54594482421875,9.802759422302245,0.29972412033081053,0.04878185882568359
1717857926006986000,0.555986083984375,9.822511585998535,0.29269115295410153,0.04908113403320312
1717857926017026000,0.566026123046875,9.851840556335448,0.30092122116088865,0.03696048812866211
1717857926027067000,0.57606689453125,9.836727158355712,0.29239187774658204,0.026186580657958983
1717857926037108000,0.58610791015625,9.808744926452636,0.28909985046386716,0.013467384338378905
1717857926047149000,0.596149169921875,9.799317757415771,0.2814683326721191,0.03426701126098632
1717857926057188900,0.60618896484375,9.827449626922608,0.28371289672851563,0.026036943054199218
1717857926067229700,0.616229736328125,9.829544553375243,0.296881005859375,0.030974983978271482
1717857926077270800,0.626270751953125,9.821164847564697,0.2914940521240234,0.033219548034667964
1717857926087312000,0.636311767578125,9.81862100830078,0.31483751831054685,0.04159925384521484
1717857926097351700,0.6463515625,9.809792389678954,0.3066074501037597,0.04055179061889648
1717857926107392800,0.656392822265625,9.822661223602294,0.2952349922180176,0.03845686416625976
1717857926117433900,0.666433837890625,9.843760125732421,0.3001730331420898,0.030526071166992186
1717857926127474700,0.676474609375,9.83897172241211,0.28431144714355466,0.033818098449707026
1717857926137514800,0.6865146484375,9.807547825622558,0.2856581855773926,0.03441664886474609
1717857926147555800,0.696555908203125,9.816974994659423,0.2946364418029785,0.03456628646850586
1717857926157597000,0.706596923828125,9.822212310791015,0.29777883148193357,0.03202244720458984
1717857926167637800,0.7166376953125,9.826701438903807,0.29822774429321286,0.0474351203918457
1717857926177677800,0.726677734375,9.816675719451904,0.2958335426330566,0.04115034103393554
1717857926187719000,0.736718994140625,9.807398188018798,0.29388825378417965,0.042646717071533204
1717857926197759700,0.746759765625,9.81906992111206,0.2985270195007324,0.03725976333618164
1717857926207800800,0.75680078125,9.842862300109863,0.29718028106689454,0.035464112091064454
1717857926217841000,0.7668408203125,9.845855052185058,0.2950853546142578,0.0330699104309082
1717857926227882000,0.776882080078125,9.82610288848877,0.2932897033691406,0.02483984222412109
1717857926237922800,0.7869228515625,9.816974994659423,0.2950853546142578,0.03501519927978516
1717857926247964000,0.7969638671875,9.830891291809081,0.2941875289916992,0.04773439559936523
1717857926258004000,0.80700390625,9.816675719451904,0.29777883148193357,0.03681085052490234
1717857926268045000,0.817045166015625,9.824007962036132,0.3007715835571289,0.03920505218505859
1717857926278086000,0.8270859375,9.83178911743164,0.30615853729248044,0.046238019561767575
1717857926288127000,0.837126953125,9.82535470046997,0.2962824554443359,0.03696048812866211
1717857926298166800,0.847166748046875,9.833884043884277,0.2952349922180176,0.03426701126098632
1717857926308208000,0.8572080078125,9.829544553375243,0.2932897033691406,0.037110125732421874
1717857926318249200,0.867249267578125,9.829095640563965,0.2792237686157226,0.031872809600830075
1717857926328290300,0.877290283203125,9.816825357055663,0.28805238723754883,0.02693476867675781
1717857926338330000,0.887330078125,9.82460651245117,0.2941875289916992,0.03037643356323242
1717857926348371000,0.897370849609375,9.830741654205323,0.3000233955383301,0.03561374969482422
1717857926358412000,0.907412109375,9.823559049224853,0.29134441452026366,0.044592005920410155
1717857926368453000,0.917453125,9.826851076507568,0.30346506042480464,0.03037643356323242
1717857926378493200,0.9274931640625,9.809642752075195,0.29927520751953124,0.03621230010986328
1717857926388534000,0.937533935546875,9.833285493469237,0.2953846298217773,0.028431144714355466
1717857926398575000,0.9475751953125,9.83134020462036,0.2914940521240234,0.03681085052490234
1717857926408616200,0.9576162109375,9.813533329772948,0.29089550170898437,0.028131869506835935
1717857926418656000,0.967656005859375,9.802609784698486,0.3001730331420898,0.028131869506835935
1717857926428697000,0.977697021484375,9.809343476867674,0.29718028106689454,0.03800795135498047
1717857926438738200,0.98773828125,9.834931507110594,0.2985270195007324,0.04384381790161133
1717857926448779000,0.997779052734375,9.842862300109863,0.2953846298217773,0.05596446380615234
1717857926458819000,1.007819091796875,9.846303964996338,0.2925415153503418,0.04534019393920898
1717857926468860200,1.017860107421875,9.842263749694824,0.282815071105957,0.031872809600830075
1717857926478901200,1.0279013671875,9.819818109130859,0.2914940521240234,0.03172317199707031
1717857926488942000,1.037942138671875,9.79991630783081,0.30316578521728516,0.02454056701660156
1717857926498982100,1.047982177734375,9.808894564056397,0.2980781066894531,0.02483984222412109
1717857926509023200,1.058023193359375,9.816825357055663,0.2905962265014648,-0.004938040924072265
1717857926519064000,1.06806396484375,9.82505542526245,0.2973299186706543,0.014963760375976562
1717857926529105200,1.078105224609375,9.829544553375243,0.29822774429321286,0.03366846084594726
1717857926539145200,1.088145263671875,9.820566297149657,0.2792237686157226,0.05162497329711914
1717857926549186300,1.098186279296875,9.827748902130127,0.2768295669555664,0.03890577697753906
1717857926559227100,1.10822705078125,9.839719910430908,0.30630817489624024,0.031573534393310544
1717857926569268200,1.118268310546875,9.819668471527098,0.31064766540527344,0.021697452545166016
1717857926579308000,1.12830810546875,9.814131880187988,0.3064578125,0.027832594299316404
1717857926589349000,1.13834912109375,9.83882208480835,0.2902969512939453,0.0378583137512207
1717857926599390000,1.148389892578125,9.827898539733885,0.29703064346313474,0.04474164352416992
1717857926609431000,1.15843115234375,9.818172095489501,0.2958335426330566,0.03621230010986328
1717857926619471000,1.16847119140625,9.817872820281982,0.29074586410522457,0.03486556167602539
1717857926629512200,1.17851220703125,9.82610288848877,0.3006219459533691,0.028431144714355466
1717857926639553000,1.188552978515625,9.843161575317382,0.3043628860473633,0.0326209976196289
1717857926649594000,1.198593994140625,9.836577520751952,0.2976291938781738,0.035464112091064454
1717857926659634200,1.20863427734375,9.81263550415039,0.29658173065185545,0.04563946914672851
1717857926669675000,1.218675048828125,9.82520506286621,0.30151977157592774,0.046238019561767575
1717857926679716000,1.228716064453125,9.832836580657958,0.29239187774658204,0.030825346374511717
1717857926689757200,1.238757080078125,9.827000714111328,0.29553426742553707,0.024690204620361325
1717857926699797200,1.24879736328125,9.819668471527098,0.30481179885864257,0.0383072265625
1717857926709838000,1.258838134765625,9.811737678527832,0.28805238723754883,0.03366846084594726
1717857926719879200,1.268879150390625,9.816376444244383,0.2846107223510742,0.0282815071105957
1717857926729920300,1.278920166015625,9.829694190979003,0.28790274963378903,0.02424129180908203
1717857926739960300,1.288960205078125,9.823858324432372,0.2919429649353027,0.03142389678955078
1717857926750001200,1.299001220703125,9.815927531433104,0.29703064346313474,0.033518823242187495
1717857926760042200,1.309042236328125,9.820117384338378,0.2980781066894531,0.042646717071533204
1717857926770083000,1.3190830078125,9.830891291809081,0.29568390502929687,0.03681085052490234
1717857926780123000,1.329122802734375,9.832686943054199,0.2998737579345703,0.03755903854370117
1717857926790164200,1.339164306640625,9.835230782318115,0.3001730331420898,0.03411737365722656
1717857926800205300,1.349205322265625,9.827000714111328,0.2902969512939453,0.03336918563842773
1717857926810246100,1.35924609375,9.829394915771484,0.29358897857666016,0.03202244720458984
1717857926820286000,1.369285888671875,9.824157599639893,0.29179332733154295,0.03621230010986328
1717857926830327000,1.3793271484375,9.83178911743164,0.30301614761352536,0.04683656997680664
1717857926840368000,1.3893681640625,9.822062673187256,0.3058592620849609,0.01571194839477539
1717857926850409000,1.399408935546875,9.822661223602294,0.28431144714355466,0.03696048812866211
1717857926860449000,1.409448974609375,9.820267021942138,0.2914940521240234,0.0383072265625
1717857926870490000,1.419489990234375,9.840318460845946,0.289848038482666,0.031872809600830075
1717857926880531200,1.42953125,9.835380419921874,0.29089550170898437,0.02528875503540039
1717857926890572000,1.439572021484375,9.739313078308104,0.289848038482666,0.03621230010986328
1717857926900612000,1.449612060546875,9.806500362396239,0.2877531120300293,0.054767362976074214
1717857926910653200,1.459653076171875,9.871293444824218,0.3021183219909668,0.03845686416625976
1717857926920694000,1.469694091796875,9.907505744934081,0.3103483901977539,0.02663549346923828
1717857926930735000,1.479735107421875,9.909899946594237,0.2882020248413086,0.04414309310913086
1717857926940775200,1.489775146484375,9.83852280960083,0.25468320159912106,0.03965396499633789
1717857926950816300,1.499816162109375,9.727192432403564,0.270694425201416,0.0378583137512207
1717857926960857000,1.509857177734375,9.752481187438963,0.28640637359619137,0.03441664886474609
1717857926970898200,1.519898193359375,9.875632935333252,0.31753099517822264,0.035763387298583985
1717857926980938200,1.529938232421875,9.903615167236328,0.340275910949707,0.037110125732421874
1717857926990979000,1.53997900390625,9.828946002960205,0.31169512863159177,0.04713584518432617
1717857927001020200,1.550020263671875,9.754276838684081,0.2931400657653808,0.05237316131591797
1717857927011061200,1.560061279296875,9.791087689208984,0.27518355331420896,0.033518823242187495
1717857927021101000,1.57010107421875,9.877727861785887,0.2877531120300293,0.02798223190307617
1717857927031142000,1.580141845703125,9.866804316711425,0.28476035995483395,0.01915361328125
1717857927041183200,1.590183349609375,9.7928833404541,0.2916436897277832,0.011222820281982421
1717857927051224300,1.600224365234375,9.771335525512695,0.2967313682556152,0.03860650177001953
1717857927061264100,1.61026416015625,9.835530057525634,0.2976291938781738,0.0474351203918457
1717857927071305000,1.620304931640625,9.863063376617431,0.2995744827270508,0.05057751007080078
1717857927081346000,1.630345947265625,9.82460651245117,0.2991255699157715,0.041000703430175776
1717857927091387100,1.64038720703125,9.807098912811279,0.3033154228210449,0.03950432739257812
1717857927101427200,1.65042724609375,9.815029705810547,0.2868552864074707,0.044592005920410155
1717857927111468000,1.660468017578125,9.819668471527098,0.28790274963378903,0.0326209976196289
1717857927121509000,1.670509033203125,9.857975698089598,0.2814683326721191,0.03815758895874023
1717857927131550000,1.680550048828125,9.837325708770752,0.2769792045593262,0.038756139373779294
1717857927141590000,1.690590087890625,9.797522106170653,0.2962824554443359,0.02558803024291992
1717857927151631000,1.700631103515625,9.802310509490967,0.2989759323120117,0.031872809600830075
1717857927161672200,1.710672119140625,9.833285493469237,0.30092122116088865,0.040402153015136714
1717857927171713000,1.720713134765625,9.841066648864745,0.313490779876709,0.03441664886474609
1717857927181753000,1.730753173828125,9.817872820281982,0.29403789138793945,0.0430956298828125
1717857927191794200,1.740794189453125,9.809343476867674,0.29882629470825195,0.033818098449707026
1717857927201835300,1.750835205078125,9.815777893829345,0.29224224014282224,0.030526071166992186
1717857927211876000,1.7608759765625,9.85064345550537,0.29074586410522457,0.02483984222412109
1717857927221917200,1.770917236328125,9.85782606048584,0.2889502128601074,0.025737667846679687
1717857927231957200,1.780957275390625,9.814730430603026,0.2859574607849121,0.03755903854370117
1717857927241998000,1.790998046875,9.807398188018798,0.2973299186706543,0.04773439559936523
1717857927252039200,1.8010390625,9.816825357055663,0.3006219459533691,0.04563946914672851
1717857927262080300,1.811080322265625,9.8449572265625,0.3066074501037597,0.03815758895874023
1717857927272120000,1.8211201171875,9.836577520751952,0.30481179885864257,0.03696048812866211
1717857927282161000,1.831160888671875,9.807547825622558,0.2995744827270508,0.030825346374511717
1717857927292202000,1.841201904296875,9.802759422302245,0.29074586410522457,0.022445640563964843
1717857927302243300,1.851243408203125,9.83807389678955,0.3003226707458496,0.037708676147460936
1717857927312283100,1.861283203125,9.834183319091796,0.28954876327514645,0.029927520751953124
1717857927322324000,1.871323974609375,9.83238766784668,0.2862567359924316,0.02154781494140625
1717857927332365000,1.881364990234375,9.820267021942138,0.29269115295410153,0.028880057525634766
1717857927342406100,1.89140625,9.79991630783081,0.29433716659545894,0.039055414581298825
1717857927352446000,1.901446044921875,9.8319387550354,0.3151367935180664,0.040701428222656245
1717857927362487000,1.911487060546875,9.833135855865478,0.3010708587646484,0.04025251541137695
1717857927372528000,1.921528076171875,9.820267021942138,0.2889502128601074,0.02319382858276367
1717857927382569000,1.93156884765625,9.820267021942138,0.2819172454833984,0.022146365356445312
1717857927392609000,1.941609130859375,9.830891291809081,0.30181904678344723,0.020949264526367185
1717857927402650000,1.951650146484375,9.82580361328125,0.28865093765258787,0.03277063522338867
1717857927412691200,1.961691162109375,9.823708686828613,0.29179332733154295,0.0330699104309082
1717857927422732000,1.97173193359375,9.81293477935791,0.2904465888977051,0.04474164352416992
1717857927432772000,1.981772216796875,9.834931507110594,0.3003226707458496,0.03950432739257812
1717857927442813200,1.991813232421875,9.836727158355712,0.2953846298217773,0.04189852905273437
1717857927452854300,2.001854248046875,9.822511585998535,0.29703064346313474,0.038756139373779294
1717857927462895000,2.01189501953125,9.829245278167724,0.2950853546142578,0.03232172241210937
1717857927472935200,2.02193505859375,9.832836580657958,0.3021183219909668,0.032172084808349606
1717857927482976300,2.031976318359375,9.82610288848877,0.2876034744262695,0.030825346374511717
1717857927493017000,2.04201708984375,9.827150351715087,0.2932897033691406,0.028431144714355466
1717857927503058200,2.05205810546875,9.820267021942138,0.289848038482666,0.03232172241210937
1717857927513098000,2.062097900390625,9.82610288848877,0.2920926025390625,0.03651157531738281
1717857927523139000,2.07213916015625,9.81936919631958,0.2952349922180176,0.03666121292114258
1717857927533180000,2.082179931640625,9.820865572357176,0.2964320930480957,0.0430956298828125
1717857927543221000,2.092220947265625,9.827299989318847,0.30795418853759765,0.03396773605346679
1717857927553261000,2.102260986328125,9.831489842224121,0.30092122116088865,0.039354689788818356
1717857927563302100,2.11230224609375,9.816526081848144,0.3022679595947265,0.029628245544433593
1717857927573343000,2.122343017578125,9.823708686828613,0.2937386161804199,0.030226795959472655
1717857927583384000,2.132384033203125,9.827449626922608,0.28042086944580075,0.028730419921875
1717857927593424100,2.142424072265625,9.822062673187256,0.29882629470825195,0.035763387298583985
1717857927603465000,2.15246484375,9.82610288848877,0.29972412033081053,0.04159925384521484
1717857927613506000,2.162506103515625,9.827150351715087,0.2964320930480957,0.04025251541137695
1717857927623547100,2.172547119140625,9.813682967376709,0.30092122116088865,0.03860650177001953
1717857927633587200,2.182587158203125,9.827150351715087,0.28909985046386716,0.03366846084594726
1717857927643628000,2.1926279296875,9.823559049224853,0.2862567359924316,0.024390929412841794
1717857927653669000,2.202669189453125,9.833734406280517,0.30615853729248044,0.02663549346923828
1717857927663710200,2.212710205078125,9.831489842224121,0.2964320930480957,0.039055414581298825
1717857927673751000,2.2227509765625,9.813084416961669,0.2979284690856933,0.02977788314819336
1717857927683791000,2.232791015625,9.835829332733153,0.2871545616149902,0.03681085052490234
1717857927693832200,2.242832275390625,9.83238766784668,0.3001730331420898,0.032172084808349606
1717857927703873300,2.252873291015625,9.825953250885009,0.28924948806762696,0.026485855865478514
1717857927713914000,2.2629140625,9.823259774017334,0.2882020248413086,0.02902969512939453
1717857927723954200,2.2729541015625,9.82535470046997,0.303913973236084,0.023942016601562498
1717857927733995300,2.282995361328125,9.819668471527098,0.3010708587646484,0.02079962692260742
1717857927744036000,2.2930361328125,9.827150351715087,0.30092122116088865,0.03336918563842773
1717857927754077200,2.3030771484375,9.822960498809813,0.30346506042480464,0.04713584518432617
1717857927764117000,2.313116943359375,9.837325708770752,0.2967313682556152,0.03561374969482422
1717857927774158000,2.323157958984375,9.823259774017334,0.2973299186706543,0.031124621582031248
1717857927784199000,2.333198974609375,9.81996774673462,0.3072060005187988,0.039055414581298825
1717857927794240000,2.343239990234375,9.83208839263916,0.30092122116088865,0.03441664886474609
1717857927804280000,2.353280029296875,9.833584768676758,0.2979284690856933,0.023942016601562498
1717857927814321200,2.363321044921875,9.835230782318115,0.29388825378417965,0.029179332733154296
1717857927824362000,2.373362060546875,9.826701438903807,0.29014731369018554,0.027234043884277342
1717857927834403000,2.383403076171875,9.828197814941406,0.2973299186706543,0.04129997863769531
1717857927844443100,2.393443115234375,9.824905787658691,0.3016694091796875,0.03396773605346679
1717857927854484000,2.40348388671875,9.81936919631958,0.30570962448120115,0.03247136001586914
1717857927864525000,2.413525146484375,9.828497090148925,0.3021183219909668,0.03965396499633789
1717857927874566100,2.423566162109375,9.828946002960205,0.29658173065185545,0.023792378997802732
1717857927884606200,2.433606201171875,9.789591313171385,0.299424845123291,0.02454056701660156
1717857927894647000,2.44364697265625,9.760112705230712,0.3006219459533691,0.026036943054199218
1717857927904688000,2.453688232421875,9.85752678527832,0.30047230834960936,0.02289455337524414
1717857927914729200,2.463729248046875,9.912743061065672,0.3184288208007812,0.02558803024291992
1717857927924769300,2.473769287109375,9.911097047424315,0.29882629470825195,0.02902969512939453
1717857927934810000,2.48381005859375,9.827150351715087,0.26695348510742184,0.02977788314819336
1717857927944851200,2.493851318359375,9.733327574157714,0.2624643569946289,0.030825346374511717
1717857927954892000,2.50389208984375,9.747692784118652,0.2885013000488281,0.029628245544433593
1717857927964932000,2.51393212890625,9.870994169616699,0.3173813575744629,0.034715924072265626
1717857927974973200,2.52397314453125,9.900772052764893,0.3345896820068359,0.04444236831665039
1717857927985014300,2.53401416015625,9.826551801300049,0.3238157745361328,0.046238019561767575
1717857927995055000,2.54405517578125,9.743054018402098,0.29972412033081053,0.047884033203124995
1717857928005095000,2.554094970703125,9.781510882568359,0.27742811737060546,0.03441664886474609
1717857928015136000,2.564135986328125,9.880122063446045,0.2775777549743652,0.02528875503540039
1717857928025177000,2.574177001953125,9.871143807220458,0.277727392578125,0.024690204620361325
1717857928035218000,2.584218017578125,9.798419931793212,0.27832594299316404,0.015861585998535155
1717857928045259000,2.594259033203125,9.770288062286376,0.28805238723754883,0.018854338073730468
1717857928055299000,2.604299072265625,9.814131880187988,0.28161797027587887,0.03037643356323242
1717857928065340200,2.614340087890625,9.866205766296385,0.3054103492736816,0.044292730712890624
1717857928075381000,2.624381103515625,9.846603240203857,0.31109657821655273,0.046238019561767575
1717857928085422000,2.634422119140625,9.803507610321045,0.2964320930480957,0.044891281127929686
1717857928095462100,2.644462158203125,9.780912332153319,0.3003226707458496,0.03366846084594726
1717857928105503000,2.6545029296875,9.807098912811279,0.29822774429321286,0.034715924072265626
1717857928115544000,2.6645439453125,9.859920986938477,0.28805238723754883,0.032920272827148434
1717857928125585200,2.674585205078125,9.858873523712157,0.2871545616149902,0.0326209976196289
1717857928135625200,2.684625244140625,9.81278514175415,0.28954876327514645,0.031872809600830075
1717857928145666000,2.694666015625,9.789890588378906,0.28790274963378903,0.04384381790161133
1717857928155707100,2.70470703125,9.828646727752686,0.3000233955383301,0.04414309310913086
1717857928165748200,2.714748291015625,9.853037657165526,0.3076549133300781,0.04144961624145507
1717857928175788300,2.724788330078125,9.833584768676758,0.30181904678344723,0.029179332733154296
1717857928185829000,2.7348291015625,9.81233622894287,0.29927520751953124,0.03277063522338867
1717857928195870200,2.7448701171875,9.821913035583496,0.28730419921875,0.02528875503540039
1717857928205911000,2.7549111328125,9.839869548034667,0.2976291938781738,0.032172084808349606
1717857928215951000,2.764951171875,9.85079309310913,0.27952304382324217,0.034715924072265626
1717857928225992200,2.7749921875,9.832986218261718,0.28490999755859375,0.031872809600830075
1717857928236033300,2.785033203125,9.807697463226317,0.28356325912475583,0.03486556167602539
1717857928246074000,2.79507421875,9.822212310791015,0.2967313682556152,0.03232172241210937
1717857928256114000,2.805114013671875,9.833285493469237,0.3113958534240722,0.041000703430175776
1717857928266155000,2.815155029296875,9.840318460845946,0.30346506042480464,0.04339490509033203
1717857928276196000,2.825196044921875,9.824007962036132,0.30615853729248044,0.03651157531738281
1717857928286237000,2.83523681640625,9.817573545074461,0.29703064346313474,0.03591302490234375
1717857928296278000,2.845278076171875,9.827150351715087,0.2998737579345703,0.033219548034667964
1717857928306318600,2.855318603515625,9.853486569976805,0.2825157958984375,0.027533319091796873
1717857928316359400,2.865359375,9.83208839263916,0.29553426742553707,0.035763387298583985
1717857928326400500,2.875400390625,9.810839852905273,0.2916436897277832,0.030825346374511717
1717857928336441600,2.885441650390625,9.814431155395507,0.28865093765258787,0.026036943054199218
1717857928346481400,2.8954814453125,9.8311905670166,0.3076549133300781,0.03426701126098632
1717857928356522200,2.905522216796875,9.833884043884277,0.3094505645751953,0.03950432739257812
1717857928366563300,2.915563232421875,9.827898539733885,0.2964320930480957,0.0378583137512207
1717857928376604400,2.9256044921875,9.810540577697754,0.2989759323120117,0.037708676147460936
1717857928386644500,2.93564453125,9.812186591339112,0.299424845123291,0.037708676147460936
1717857928396685300,2.945685302734375,9.830442378997802,0.297479556274414,0.03127425918579101
1717857928406726400,2.955726318359375,9.822960498809813,0.2925415153503418,0.02154781494140625
1717857928416767200,2.965767333984375,9.81263550415039,0.29074586410522457,0.029179332733154296
1717857928426807300,2.975807373046875,9.81951883392334,0.2920926025390625,0.03651157531738281
1717857928436848400,2.985848388671875,9.827150351715087,0.2959831802368164,0.029478607940673827
1717857928446889500,2.995889404296875,9.834781869506836,0.29358897857666016,0.03621230010986328
1717857928456930300,3.005930419921875,9.84465795135498,0.2929904281616211,0.03441664886474609
1717857928466970400,3.015970458984375,9.823559049224853,0.3033154228210449,0.04534019393920898
1717857928477011500,3.026011474609375,9.829245278167724,0.28535891036987304,0.036062662506103516
1717857928487052500,3.036052490234375,9.82550433807373,0.28924948806762696,0.02498947982788086
1717857928497093400,3.04609326171875,9.822960498809813,0.30151977157592774,0.03411737365722656
1717857928507133400,3.056133544921875,9.829394915771484,0.2850596351623535,0.037708676147460936
1717857928517174500,3.066174560546875,9.823559049224853,0.29568390502929687,0.03725976333618164
1717857928527215400,3.07621533203125,9.822361948394775,0.28924948806762696,0.04803367080688476
1717857928537256400,3.08625634765625,9.824905787658691,0.30346506042480464,0.04234744186401367
1717857928547297500,3.096297607421875,9.819818109130859,0.29433716659545894,0.03336918563842773
1717857928557337600,3.106337646484375,9.836577520751952,0.2914940521240234,0.01631049880981445
1717857928567378400,3.11637841796875,9.819219558715819,0.3054103492736816,0.032172084808349606
1717857928577419500,3.12641943359375,9.822810861206055,0.28431144714355466,0.032920272827148434
1717857928587460600,3.136460693359375,9.818321733093262,0.2911947769165039,0.033818098449707026
1717857928597500400,3.14650048828125,9.821613760375977,0.2947860794067383,0.02858078231811523
1717857928607541200,3.156541259765625,9.828946002960205,0.2941875289916992,0.03890577697753906
1717857928617582300,3.166582275390625,9.82460651245117,0.2941875289916992,0.03890577697753906
1717857928627623400,3.17662353515625,9.808296013641357,0.2962824554443359,0.03980360260009765
1717857928637663500,3.18666357421875,9.827150351715087,0.303913973236084,0.03681085052490234
1717857928647704300,3.196704345703125,9.838672447204589,0.2980781066894531,0.033518823242187495
1717857928657745400,3.206745361328125,9.82610288848877,0.304512523651123,0.0430956298828125
1717857928667786200,3.2167861328125,9.82550433807373,0.29837738189697266,0.03441664886474609
1717857928677826300,3.226826416015625,9.817124632263184,0.2916436897277832,0.03411737365722656
1717857928687867400,3.236867431640625,9.821913035583496,0.28490999755859375,0.024390929412841794
1717857928697908500,3.246908447265625,9.840917011260986,0.28700492401123046,0.028880057525634766
1717857928707949300,3.25694921875,9.841515561676024,0.2925415153503418,0.025887305450439452
1717857928717990400,3.266990478515625,9.807098912811279,0.2929904281616211,0.029328970336914062
1717857928728030500,3.277030517578125,9.807697463226317,0.30047230834960936,0.01840542526245117
1717857928738071600,3.287071533203125,9.835978970336914,0.30196868438720703,0.03456628646850586
1717857928748112400,3.2971123046875,9.82505542526245,0.3043628860473633,0.04474164352416992
1717857928758153500,3.307153564453125,9.8189202835083,0.29972412033081053,0.04908113403320312
1717857928768193500,3.317193603515625,9.81862100830078,0.30361469802856444,0.046537294769287106
1717857928778234400,3.327234375,9.815029705810547,0.3055599868774414,0.0326209976196289
1717857928788275500,3.337275390625,9.829245278167724,0.2727893516540527,0.0326209976196289
1717857928798316500,3.347316650390625,9.83134020462036,0.27563246612548825,0.014814122772216796
1717857928808356600,3.357356689453125,9.813832604980469,0.29089550170898437,0.016909049224853513
1717857928818397400,3.3673974609375,9.830891291809081,0.28371289672851563,0.03232172241210937
1717857928828438500,3.3774384765625,9.827449626922608,0.30361469802856444,0.025139117431640625
1717857928838479600,3.387479736328125,9.826402163696288,0.3167828071594238,0.03142389678955078
1717857928848519400,3.39751953125,9.830592016601562,0.3178302703857422,0.043544542694091797
1717857928858560300,3.407560302734375,9.834482594299315,0.30840310134887694,0.043245267486572266
1717857928868601300,3.417601318359375,9.83837317199707,0.3007715835571289,0.0469862075805664
1717857928878642400,3.427642333984375,9.803806885528564,0.304512523651123,0.02633621826171875
1717857928888683300,3.437683349609375,9.717765263366699,0.2920926025390625,0.03860650177001953
1717857928898723300,3.447723388671875,9.813982242584228,0.29493571701049803,0.033818098449707026
1717857928908764400,3.457764404296875,9.9078050201416,0.30630817489624024,0.015113397979736327
1717857928918805200,3.46780517578125,9.974094478607178,0.2882020248413086,0.022445640563964843
1717857928928846300,3.477846435546875,9.863213014221191,0.25647885284423827,0.049829322052001954
1717857928938886400,3.487886474609375,9.704746791839598,0.2741360900878906,0.0378583137512207
1717857928948927500,3.497927490234375,9.748141696929931,0.3049614364624023,0.03366846084594726
1717857928958968300,3.50796826171875,9.889698870086669,0.3247136001586914,0.047884033203124995
1717857928969009400,3.518009521484375,9.928455009460448,0.3435679382324219,0.03426701126098632
1717857928979049500,3.528049560546875,9.798270294189452,0.3224690361022949,0.024690204620361325
1717857928989090600,3.538090576171875,9.738415252685547,0.30301614761352536,0.03501519927978516
1717857928999131400,3.54813134765625,9.790040225982665,0.2841618095397949,0.011671733093261718
1717857929009172500,3.55817236328125,9.889698870086669,0.2678513107299805,0.012120645904541014
1717857929019212500,3.568212646484375,9.881618439483642,0.2765302917480469,0.041000703430175776
1717857929029253400,3.57825341796875,9.783605809020996,0.26605565948486326,0.04339490509033203
1717857929039294500,3.58829443359375,9.745148944854735,0.2685994987487793,0.03486556167602539
1717857929049335600,3.59833544921875,9.83223803024292,0.28865093765258787,0.028880057525634766
1717857929059376400,3.60837646484375,9.877877499389648,0.31274259185791015,0.04548983154296875
1717857929069416400,3.61841650390625,9.849895267486572,0.3190273712158203,0.048183308410644526
1717857929079457500,3.62845751953125,9.80620108718872,0.318578458404541,0.0383072265625
1717857929089498600,3.63849853515625,9.77358008956909,0.2995744827270508,0.04249707946777344
1717857929099539500,3.64853955078125,9.820566297149657,0.3010708587646484,0.030974983978271482
1717857929109579300,3.658579345703125,9.865008665466307,0.273238264465332,0.02483984222412109
1717857929119620400,3.668620361328125,9.84555577697754,0.28640637359619137,0.03277063522338867
1717857929129661400,3.678661376953125,9.796175367736815,0.2941875289916992,0.029179332733154296
1717857929139702300,3.688702392578125,9.788094937133788,0.28446108474731446,0.03142389678955078
1717857929149742300,3.698742431640625,9.841365924072266,0.3006219459533691,0.0326209976196289
1717857929159783400,3.708783447265625,9.86411083984375,0.3067570877075195,0.0282815071105957
1717857929169824300,3.71882421875,9.834033681488037,0.3103483901977539,0.05237316131591797
1717857929179865300,3.728865234375,9.784353997039794,0.3161842567443848,0.03890577697753906
1717857929189905400,3.738905517578125,9.795576817321777,0.29134441452026366,0.038756139373779294
1717857929199946500,3.748946533203125,9.846902515411376,0.2871545616149902,0.03232172241210937
1717857929209987300,3.7589873046875,9.860669174957275,0.28520927276611324,0.02259527816772461
1717857929220028400,3.7690283203125,9.820416659545899,0.2855085479736328,0.03247136001586914
1717857929230069500,3.779069580078125,9.802310509490967,0.2846107223510742,0.04129997863769531
1717857929240109600,3.789109619140625,9.822511585998535,0.29269115295410153,0.03501519927978516
1717857929250150400,3.799150390625,9.847052153015136,0.3051110740661621,0.04159925384521484
1717857929260191500,3.80919140625,9.836876795959473,0.3173813575744629,0.03501519927978516
1717857929270232300,3.819232421875,9.80724855041504,0.30196868438720703,0.03681085052490234
1717857929280272400,3.8292724609375,9.810241302490233,0.2950853546142578,0.037708676147460936
1717857929290313500,3.8393134765625,9.832986218261718,0.29403789138793945,0.02454056701660156
1717857929300354600,3.8493544921875,9.84465795135498,0.29822774429321286,0.02798223190307617
1717857929310395100,3.85939501953125,9.833884043884277,0.28206688308715816,0.030226795959472655
1717857929320435200,3.869435302734375,9.808744926452636,0.29089550170898437,0.027084406280517576
1717857929330476300,3.879476318359375,9.814431155395507,0.29703064346313474,0.02858078231811523
1717857929340517400,3.889517333984375,9.829245278167724,0.30196868438720703,0.023792378997802732
1717857929350558200,3.89955810546875,9.836577520751952,0.3007715835571289,0.03232172241210937
1717857929360599300,3.909599365234375,9.820566297149657,0.3128922294616699,0.04997895965576172
1717857929370639400,3.919639404296875,9.821164847564697,0.3113958534240722,0.04055179061889648
1717857929380680400,3.929680419921875,9.827599264526366,0.2967313682556152,0.04025251541137695
1717857929390721300,3.93972119140625,9.841066648864745,0.29358897857666016,0.021697452545166016
1717857929400762400,3.949762451171875,9.842263749694824,0.2841618095397949,0.028131869506835935
1717857929410802200,3.95980224609375,9.816974994659423,0.289848038482666,0.025737667846679687
1717857929420843000,3.969843017578125,9.816825357055663,0.29388825378417965,0.03815758895874023
1717857929430884000,3.979884033203125,9.821464122772216,0.2964320930480957,0.025737667846679687
1717857929440925200,3.98992529296875,9.835081144714355,0.3097498397827148,0.030974983978271482
1717857929450965200,3.99996533203125,9.819818109130859,0.31319150466918944,0.04908113403320312
1717857929461006000,4.010006103515625,9.828048177337646,0.2953846298217773,0.023792378997802732
1717857929471047200,4.020047119140625,9.817872820281982,0.2920926025390625,0.026785131072998045
1717857929481088300,4.030088134765625,9.835530057525634,0.29014731369018554,0.03621230010986328
1717857929491129000,4.040129150390625,9.82460651245117,0.28969840087890625,0.03486556167602539
1717857929501169200,4.050169189453125,9.818770645904541,0.28655601119995117,0.035464112091064454
1717857929511210200,4.060210205078125,9.823559049224853,0.3022679595947265,0.04414309310913086
1717857929521251300,4.070251220703125,9.821164847564697,0.28924948806762696,0.03815758895874023
1717857929531292200,4.080292236328125,9.830292741394043,0.29568390502929687,0.03441664886474609
1717857929541332200,4.090332275390625,9.833285493469237,0.2885013000488281,0.03232172241210937
1717857929551373300,4.100373291015625,9.829694190979003,0.296881005859375,0.03501519927978516
1717857929561414100,4.1104140625,9.834482594299315,0.29822774429321286,0.033518823242187495
1717857929571455200,4.120455322265625,9.814281517791747,0.30630817489624024,0.036361937713623046
1717857929581495300,4.130495361328125,9.82535470046997,0.2914940521240234,0.030974983978271482
1717857929591536400,4.140536376953125,9.840318460845946,0.2868552864074707,0.038756139373779294
1717857929601577200,4.1505771484375,9.832986218261718,0.2885013000488281,0.02663549346923828
1717857929611618300,4.160618408203125,9.81248586654663,0.2991255699157715,0.02528875503540039
1717857929621659400,4.170659423828125,9.830292741394043,0.3128922294616699,0.03800795135498047
1717857929631699200,4.18069921875,9.839121360015868,0.3021183219909668,0.043544542694091797
1717857929641740300,4.190740234375,9.821164847564697,0.2952349922180176,0.043544542694091797
1717857929651781400,4.200781494140625,9.841814836883545,0.2989759323120117,0.033818098449707026
1717857929661822200,4.210822265625,9.815777893829345,0.29718028106689454,0.04608838195800781
1717857929671862000,4.220862060546875,9.811139128112792,0.30570962448120115,0.03651157531738281
1717857929681903000,4.230903076171875,9.830592016601562,0.2976291938781738,0.03366846084594726
1717857929691944200,4.240944091796875,9.82505542526245,0.30481179885864257,0.03456628646850586
1717857929701985000,4.250985107421875,9.821464122772216,0.2937386161804199,0.02633621826171875
1717857929712025000,4.261025146484375,9.82565397567749,0.2846107223510742,0.039354689788818356
1717857929722066200,4.271066162109375,9.828347452545165,0.30346506042480464,0.03621230010986328
1717857929732107300,4.281107177734375,9.833135855865478,0.30361469802856444,0.026785131072998045
1717857929742148000,4.291148193359375,9.826252526092528,0.28640637359619137,0.023942016601562498
1717857929752189200,4.301189208984375,9.81293477935791,0.2786252182006836,0.02858078231811523
1717857929762229200,4.311229248046875,9.820416659545899,0.3001730331420898,0.03950432739257812
1717857929772270000,4.32127001953125,9.83134020462036,0.2859574607849121,0.03366846084594726
1717857929782311200,4.331311279296875,9.836427883148193,0.2871545616149902,0.041000703430175776
1717857929792352300,4.341352294921875,9.826851076507568,0.3060088996887207,0.03037643356323242
1717857929802392300,4.351392333984375,9.815927531433104,0.3016694091796875,0.026785131072998045
1717857929812433200,4.36143310546875,9.834781869506836,0.29553426742553707,0.04803367080688476
1717857929822474200,4.37147412109375,9.82505542526245,0.2931400657653808,0.0430956298828125
1717857929832515300,4.381515380859375,9.81847137069702,0.2962824554443359,0.029478607940673827
1717857929842555400,4.391555419921875,9.837176071166992,0.2998737579345703,0.030526071166992186
1717857929852596200,4.40159619140625,9.815179343414306,0.2967313682556152,0.040102877807617184
1717857929862637300,4.41163720703125,9.747094233703613,0.2911947769165039,0.021996727752685546
1717857929872678400,4.421678466796875,9.824456874847412,0.29553426742553707,0.03067570877075195
1717857929882719200,4.43171923828125,9.886406842803954,0.3022679595947265,0.024390929412841794
1717857929892759300,4.44175927734375,9.890746333312988,0.3101987525939941,0.026785131072998045
1717857929902800400,4.45180029296875,9.868001417541503,0.29837738189697266,0.05491700057983398
1717857929912841200,4.46184130859375,9.811438403320311,0.2759317413330078,0.04578910675048828
1717857929922882300,4.47188232421875,9.77402900238037,0.26650457229614255,0.027234043884277342
1717857929932922000,4.481922119140625,9.828946002960205,0.2914940521240234,0.02977788314819336
1717857929942963200,4.491963134765625,9.875632935333252,0.30735563812255856,0.019602526092529295
1717857929953004000,4.502004150390625,9.852289469146728,0.323666136932373,0.025438392639160156
1717857929963045000,4.512045166015625,9.79946739501953,0.30570962448120115,0.04384381790161133
1717857929973086500,4.52208642578125,9.790938051605224,0.2798223190307617,0.056413376617431635
1717857929983126300,4.532126220703125,9.830442378997802,0.289848038482666,0.06120177993774414
1717857929993167000,4.5421669921875,9.852738381958007,0.2876034744262695,0.026186580657958983
1717857930003208200,4.552208251953125,9.846453602600096,0.289848038482666,0.028431144714355466
1717857930013249300,4.562249267578125,9.816825357055663,0.28086978225708004,0.015412673187255858
1717857930023289000,4.5722890625,9.814431155395507,0.2902969512939453,0.029478607940673827
1717857930033330200,4.582330078125,9.821913035583496,0.28909985046386716,0.04189852905273437
1717857930043371300,4.592371337890625,9.833435131072997,0.29882629470825195,0.03920505218505859
1717857930053412000,4.602412109375,9.85169091873169,0.2937386161804199,0.04115034103393554
1717857930063452200,4.6124521484375,9.808744926452636,0.30406361083984373,0.025887305450439452
1717857930073493200,4.6224931640625,9.815478618621826,0.30361469802856444,0.01810615005493164
1717857930083534300,4.632534423828125,9.827449626922608,0.28969840087890625,0.03202244720458984
1717857930093575200,4.6425751953125,9.847501065826416,0.29358897857666016,0.04055179061889648
1717857930103615200,4.652615234375,9.823409411621093,0.28356325912475583,0.04608838195800781
1717857930113656300,4.66265625,9.810989490509032,0.28446108474731446,0.04115034103393554
1717857930123697400,4.672697509765625,9.821613760375977,0.29448680419921874,0.036062662506103516
1717857930133738200,4.68273828125,9.83777462158203,0.30705636291503907,0.037110125732421874
1717857930143779300,4.692779296875,9.849446354675292,0.3076549133300781,0.026485855865478514
1717857930153819400,4.7028193359375,9.826701438903807,0.30256723480224607,0.03456628646850586
1717857930163860200,4.712860107421875,9.827150351715087,0.28969840087890625,0.032172084808349606
1717857930173901300,4.7229013671875,9.821763397979735,0.2953846298217773,0.030526071166992186
1717857930183942400,4.7329423828125,9.842413387298583,0.2932897033691406,0.033518823242187495
1717857930193982200,4.742982177734375,9.836727158355712,0.3028665100097656,0.015263035583496093
1717857930204023000,4.75302294921875,9.810390940093994,0.3024175971984863,0.022744915771484374
1717857930214064000,4.763064208984375,9.81936919631958,0.2825157958984375,0.029328970336914062
1717857930224105500,4.77310546875,9.8311905670166,0.30406361083984373,0.04234744186401367
1717857930234146300,4.783146240234375,9.829544553375243,0.296881005859375,0.05416881256103515
1717857930244186000,4.79318603515625,9.833884043884277,0.31438860549926756,0.03591302490234375
1717857930254227200,4.803227294921875,9.820267021942138,0.2967313682556152,0.028431144714355466
1717857930264268000,4.81326806640625,9.815777893829345,0.2995744827270508,0.04878185882568359
1717857930274309000,4.82330908203125,9.835081144714355,0.28865093765258787,0.0383072265625
1717857930284349200,4.83334912109375,9.83178911743164,0.2811690574645996,0.025737667846679687
1717857930294390300,4.843390380859375,9.841216286468505,0.28176760787963867,0.03456628646850586
1717857930304431000,4.85343115234375,9.827449626922608,0.28311434631347654,0.02977788314819336
1717857930314472000,4.863471923828125,9.828796365356444,0.3001730331420898,0.028730419921875
1717857930324511700,4.87351171875,9.824307237243652,0.31319150466918944,0.03411737365722656
1717857930334552800,4.883552734375,9.829993466186522,0.3076549133300781,0.03890577697753906
1717857930344593700,4.89359375,9.822661223602294,0.30092122116088865,0.03366846084594726
1717857930354634800,4.903634765625,9.816974994659423,0.2998737579345703,0.031573534393310544
1717857930364675800,4.91367578125,9.836427883148193,0.296881005859375,0.025887305450439452
1717857930374716000,4.9237158203125,9.842712662506102,0.29448680419921874,0.02124853973388672
1717857930384756700,4.9337568359375,9.835679695129395,0.2867056488037109,0.023642741394042967
1717857930394797800,4.9437978515625,9.823409411621093,0.29224224014282224,0.03366846084594726
1717857930404839000,4.9538388671875,9.829843828582764,0.2914940521240234,0.028880057525634766
1717857930414878700,4.963878662109375,9.83882208480835,0.29179332733154295,0.03336918563842773
1717857930424919800,4.973919921875,9.835380419921874,0.2932897033691406,0.032920272827148434
1717857930434961000,4.9839609375,9.833135855865478,0.30196868438720703,0.03441664886474609
1717857930445001700,4.994001708984375,9.837325708770752,0.30301614761352536,0.03800795135498047
1717857930455042800,5.004042724609375,9.814131880187988,0.28999767608642574,0.025737667846679687
1717857930465083000,5.014082763671875,9.823259774017334,0.2959831802368164,0.03486556167602539
1717857930475124000,5.0241240234375,9.83163947982788,0.29493571701049803,0.01915361328125
1717857930485164800,5.034164794921875,9.817423907470703,0.2838625343322754,0.040701428222656245
1717857930495206000,5.044205810546875,9.820566297149657,0.30196868438720703,0.020201076507568357
1717857930505246000,5.054245849609375,9.820566297149657,0.29284079055786133,0.040701428222656245
1717857930515287000,5.064287109375,9.824756150054931,0.2902969512939453,0.03441664886474609
1717857930525328000,5.074327880859375,9.8311905670166,0.30750527572631836,0.032172084808349606
1717857930535369000,5.084368896484375,9.830891291809081,0.2941875289916992,0.03486556167602539
1717857930545409000,5.094408935546875,9.841216286468505,0.30151977157592774,0.03815758895874023
1717857930555449900,5.104449951171875,9.835679695129395,0.2953846298217773,0.016460136413574217
1717857930565491000,5.114490966796875,9.829694190979003,0.2962824554443359,0.026186580657958983
1717857930575532000,5.124531982421875,9.833285493469237,0.29179332733154295,0.03501519927978516
1717857930585572900,5.13457275390625,9.814281517791747,0.2883516624450683,0.04638765716552734
1717857930595612700,5.14461279296875,9.824756150054931,0.2976291938781738,0.03725976333618164
1717857930605653800,5.15465380859375,9.840468098449707,0.3049614364624023,0.04249707946777344
1717857930615694800,5.16469482421875,9.830741654205323,0.31109657821655273,0.04085106582641601
1717857930625735700,5.174735595703125,9.821763397979735,0.303913973236084,0.03755903854370117
1717857930635775700,5.184775634765625,9.83223803024292,0.2952349922180176,0.03426701126098632
1717857930645816800,5.19481689453125,9.840318460845946,0.2946364418029785,0.02289455337524414
1717857930655858000,5.20485791015625,9.833584768676758,0.29269115295410153,0.028730419921875
1717857930665898800,5.214898681640625,9.815328981018066,0.2877531120300293,0.02079962692260742
1717857930675939800,5.22493994140625,9.826252526092528,0.27832594299316404,0.027832594299316404
1717857930685980000,5.23497998046875,9.826252526092528,0.2967313682556152,0.03336918563842773
1717857930696020700,5.245020751953125,9.834931507110594,0.3082534637451172,0.03980360260009765
1717857930706061800,5.255061767578125,9.816376444244383,0.30196868438720703,0.03336918563842773
1717857930716103000,5.26510302734375,9.83747534637451,0.28909985046386716,0.03666121292114258
1717857930726143000,5.27514306640625,9.827000714111328,0.28535891036987304,0.04803367080688476
1717857930736183800,5.285183837890625,9.828946002960205,0.2871545616149902,0.05057751007080078
1717857930746225000,5.295224853515625,9.821314485168456,0.2905962265014648,0.03980360260009765
1717857930756266000,5.305265869140625,9.827599264526366,0.29284079055786133,0.03426701126098632
1717857930766306000,5.31530615234375,9.817573545074461,0.29568390502929687,0.0469862075805664
1717857930776347000,5.325346923828125,9.823259774017334,0.2980781066894531,0.03696048812866211
1717857930786388000,5.335387939453125,9.83747534637451,0.2947860794067383,0.04189852905273437
1717857930796428800,5.3454287109375,9.8189202835083,0.30526071166992186,0.03681085052490234
1717857930806470000,5.355469970703125,9.816825357055663,0.29224224014282224,0.03995324020385742
1717857930816510000,5.365510009765625,9.834632231903075,0.30047230834960936,0.03202244720458984
1717857930826551000,5.375551025390625,9.823708686828613,0.28865093765258787,0.019602526092529295
1717857930836591900,5.385591796875,9.786448923492431,0.2914940521240234,0.030974983978271482
1717857930846633000,5.395633056640625,9.752181912231444,0.28101941986083984,0.02798223190307617
1717857930856672800,5.4056728515625,9.885957929992676,0.29403789138793945,0.051475335693359374
1717857930866713900,5.4157138671875,9.906907194519043,0.3049614364624023,0.0282815071105957
1717857930876754700,5.425754638671875,9.852289469146728,0.29718028106689454,0.030825346374511717
1717857930886795800,5.435795654296875,9.811139128112792,0.29388825378417965,0.04129997863769531
1717857930896836900,5.4458369140625,9.789441675567627,0.2877531120300293,0.029628245544433593
1717857930906877000,5.455876953125,9.810989490509032,0.29658173065185545,0.03651157531738281
1717857930916917800,5.465917724609375,9.901071327972412,0.31483751831054685,0.035763387298583985
1717857930926958800,5.475958740234375,9.85752678527832,0.3155857063293457,0.022296002960205077
1717857930936999700,5.485999755859375,9.79303297805786,0.29493571701049803,0.030825346374511717
1717857930947039700,5.496039794921875,9.785102185058593,0.27623101654052734,0.03396773605346679
1717857930957080800,5.506080810546875,9.830592016601562,0.2721908012390137,0.04144961624145507
1717857930967122000,5.516121826171875,9.85677859725952,0.2980781066894531,0.027383681488037107
1717857930977162800,5.526162841796875,9.84450831375122,0.2883516624450683,0.025887305450439452
1717857930987202800,5.536202880859375,9.805901811981201,0.2967313682556152,0.026785131072998045
1717857930997244000,5.546243896484375,9.795427179718017,0.2947860794067383,0.03591302490234375
1717857931007285000,5.556284912109375,9.836577520751952,0.29343934097290036,0.031573534393310544
1717857931017325800,5.566325927734375,9.854234757995606,0.29493571701049803,0.037708676147460936
1717857931027367000,5.576366943359375,9.821763397979735,0.29703064346313474,0.033219548034667964
1717857931037407000,5.586406982421875,9.817723182678222,0.30795418853759765,0.03067570877075195
1717857931047447800,5.59644775390625,9.81906992111206,0.29822774429321286,0.03142389678955078
1717857931057489000,5.606489013671875,9.842712662506102,0.2964320930480957,0.03037643356323242
1717857931067530000,5.616530029296875,9.837325708770752,0.2947860794067383,0.03531447448730469
1717857931077570000,5.626570068359375,9.820566297149657,0.2919429649353027,0.04444236831665039
1717857931087611000,5.63661083984375,9.813982242584228,0.28790274963378903,0.03725976333618164
1717857931097652000,5.64665185546875,9.825953250885009,0.2937386161804199,0.02902969512939453
1717857931107693000,5.656693115234375,9.848847804260254,0.3128922294616699,0.03621230010986328
1717857931117734000,5.66673388671875,9.8319387550354,0.316034619140625,0.0383072265625
1717857931127773700,5.676773681640625,9.820117384338378,0.3012204963684082,0.02633621826171875
1717857931137814800,5.686814697265625,9.816526081848144,0.2914940521240234,0.03142389678955078
1717857931147856000,5.69685595703125,9.82520506286621,0.2973299186706543,0.029179332733154296
1717857931157896700,5.706896728515625,9.822212310791015,0.30196868438720703,0.025737667846679687
1717857931167936800,5.716936767578125,9.836278245544433,0.2998737579345703,0.028880057525634766
1717857931177977900,5.726977783203125,9.81936919631958,0.30092122116088865,0.027383681488037107
1717857931188018700,5.737018798828125,9.82460651245117,0.2919429649353027,0.03860650177001953
1717857931198059800,5.747059814453125,9.828946002960205,0.29403789138793945,0.04444236831665039
1717857931208100900,5.757100830078125,9.83837317199707,0.30047230834960936,0.036361937713623046
1717857931218141000,5.767140869140625,9.826252526092528,0.2964320930480957,0.03277063522338867
1717857931228181800,5.777181640625,9.813533329772948,0.3043628860473633,0.0330699104309082
1717857931238222800,5.787222900390625,9.829694190979003,0.3007715835571289,0.029927520751953124
1717857931248264000,5.797263916015625,9.827599264526366,0.29074586410522457,0.03621230010986328
1717857931258304000,5.807303955078125,9.816825357055663,0.28999767608642574,0.03860650177001953
1717857931268344800,5.8173447265625,9.834781869506836,0.2798223190307617,0.04144961624145507
1717857931278386000,5.827385986328125,9.824456874847412,0.28730419921875,0.03007715835571289
1717857931288426800,5.8374267578125,9.815478618621826,0.3006219459533691,0.0330699104309082
1717857931298467800,5.8474677734375,9.835380419921874,0.28865093765258787,0.046238019561767575
1717857931308508200,5.857508056640625,9.829843828582764,0.29718028106689454,0.039354689788818356
1717857931318549200,5.86754931640625,9.829394915771484,0.3000233955383301,0.03172317199707031
1717857931328590000,5.877590087890625,9.823858324432372,0.2991255699157715,0.042945992279052735
1717857931338631200,5.887631103515625,9.827299989318847,0.3055599868774414,0.03561374969482422
1717857931348671200,5.897671142578125,9.83178911743164,0.2958335426330566,0.023343466186523436
1717857931358712300,5.90771240234375,9.83178911743164,0.2929904281616211,0.022146365356445312
1717857931368753200,5.917753173828125,9.827000714111328,0.3010708587646484,0.035464112091064454
1717857931378794200,5.927794189453125,9.82550433807373,0.2979284690856933,0.029478607940673827
1717857931388835000,5.9378349609375,9.834632231903075,0.3022679595947265,0.031573534393310544
1717857931398875100,5.947875244140625,9.827449626922608,0.2947860794067383,0.03651157531738281
1717857931408916200,5.957916259765625,9.822361948394775,0.30316578521728516,0.040102877807617184
1717857931418957300,5.967957275390625,9.827000714111328,0.2967313682556152,0.037409400939941405
1717857931428998100,5.977998046875,9.833435131072997,0.2989759323120117,0.040701428222656245
1717857931439038200,5.9880380859375,9.833734406280517,0.2888005752563476,0.022445640563964843
1717857931449079300,5.998079345703125,9.820566297149657,0.28790274963378903,0.03561374969482422
1717857931459120400,6.008120361328125,9.814580792999267,0.2976291938781738,0.03441664886474609
1717857931469161200,6.0181611328125,9.821164847564697,0.29927520751953124,0.032920272827148434
1717857931479202300,6.028202392578125,9.826701438903807,0.3064578125,0.0326209976196289
1717857931489242400,6.038242431640625,9.822511585998535,0.2973299186706543,0.041000703430175776
1717857931499283200,6.048283203125,9.823858324432372,0.30271687240600587,0.027234043884277342
1717857931509324300,6.05832421875,9.823858324432372,0.2937386161804199,0.033518823242187495
1717857931519365400,6.068365478515625,9.821015209960937,0.29179332733154295,0.035763387298583985
1717857931529405400,6.078405517578125,9.834931507110594,0.2856581855773926,0.037708676147460936
1717857931539446300,6.0884462890625,9.835978970336914,0.296881005859375,0.03277063522338867
1717857931549487400,6.0984873046875,9.830143103790283,0.2958335426330566,0.028431144714355466
1717857931559528400,6.108528564453125,9.827898539733885,0.29777883148193357,0.03920505218505859
1717857931569569300,6.1185693359375,9.83134020462036,0.2950853546142578,0.027832594299316404
1717857931579609000,6.128609130859375,9.83134020462036,0.29837738189697266,0.041000703430175776
1717857931589650200,6.138650146484375,9.821913035583496,0.2861070983886719,0.03336918563842773
1717857931599691300,6.148691162109375,9.830442378997802,0.29493571701049803,0.027533319091796873
1717857931609732000,6.158732177734375,9.826252526092528,0.29777883148193357,0.03621230010986328
1717857931619772200,6.168772216796875,9.829095640563965,0.2958335426330566,0.027084406280517576
1717857931629813200,6.178813232421875,9.83178911743164,0.28999767608642574,0.01331774673461914
1717857931639854000,6.18885400390625,9.83134020462036,0.2920926025390625,0.03531447448730469
1717857931649895200,6.198895263671875,9.835978970336914,0.3003226707458496,0.03800795135498047
1717857931659936300,6.208936279296875,9.819219558715819,0.309001651763916,0.03591302490234375
1717857931669976300,6.218976318359375,9.820416659545899,0.2985270195007324,0.040701428222656245
1717857931680017200,6.22901708984375,9.828347452545165,0.299424845123291,0.03591302490234375
1717857931690058200,6.239058349609375,9.822810861206055,0.3042132484436035,0.03366846084594726
1717857931700099300,6.249099365234375,9.818770645904541,0.2941875289916992,0.032920272827148434
1717857931710139400,6.259139404296875,9.830143103790283,0.2976291938781738,0.035763387298583985
1717857931720180200,6.26918017578125,9.822212310791015,0.30151977157592774,0.03247136001586914
1717857931730221300,6.27922119140625,9.822810861206055,0.30256723480224607,0.03845686416625976
1717857931740262100,6.28926220703125,9.823559049224853,0.29089550170898437,0.03142389678955078
1717857931750303200,6.29930322265625,9.823409411621093,0.29269115295410153,0.044891281127929686
1717857931760343300,6.30934326171875,9.828347452545165,0.2855085479736328,0.035763387298583985
1717857931770384400,6.31938427734375,9.829095640563965,0.2967313682556152,0.036361937713623046
1717857931780425200,6.32942529296875,9.823708686828613,0.29239187774658204,0.03516483688354492
1717857931790466300,6.33946630859375,9.82565397567749,0.28476035995483395,0.02798223190307617
1717857931800506400,6.34950634765625,9.82610288848877,0.28969840087890625,0.04384381790161133
1717857931810547500,6.35954736328125,9.731083010101317,0.28865093765258787,0.03621230010986328
1717857931820588300,6.36958837890625,9.811438403320311,0.29343934097290036,0.03336918563842773
1717857931830629400,6.37962939453125,9.9208234916687,0.31064766540527344,0.033219548034667964
1717857931840670500,6.38967041015625,9.87623148574829,0.3001730331420898,0.01810615005493164
1717857931850710300,6.399710205078125,9.845406139373779,0.28790274963378903,0.04848258361816406
1717857931860751000,6.409751220703125,9.79333225326538,0.28176760787963867,0.04129997863769531
1717857931870792200,6.419792236328125,9.779266318511961,0.28206688308715816,0.033219548034667964
1717857931880833000,6.4298330078125,9.823858324432372,0.31004911499023435,0.03860650177001953
1717857931890874000,6.4398740234375,9.879373875427245,0.314089330291748,0.011522095489501952
1717857931900914200,6.4499140625,9.847201790618897,0.316034619140625,0.015113397979736327
1717857931910955300,6.459955322265625,9.79976667022705,0.30526071166992186,0.0474351203918457
1717857931920996000,6.46999609375,9.78704747390747,0.2877531120300293,0.04713584518432617
1717857931931037200,6.480037109375,9.81233622894287,0.27997195663452146,0.03277063522338867
1717857931941077200,6.4900771484375,9.855132583618163,0.2855085479736328,0.044292730712890624
1717857931951118300,6.500118408203125,9.847201790618897,0.29867665710449215,0.021398177337646485
1717857931961159200,6.5101591796875,9.813533329772948,0.31229367904663086,0.01227028350830078
1717857931971200300,6.5202001953125,9.808595288848876,0.3006219459533691,0.03591302490234375
1717857931981241300,6.530241455078125,9.840318460845946,0.2937386161804199,0.03621230010986328
1717857931991281200,6.54028125,9.843909763336182,0.29089550170898437,0.047584757995605464
1717857932001322200,6.550322265625,9.820267021942138,0.2904465888977051,0.03965396499633789
1717857932011363300,6.56036328125,9.811288765716553,0.3028665100097656,0.031573534393310544
1717857932021404200,6.570404052734375,9.814880068206786,0.30750527572631836,0.019303250885009764
1717857932031444200,6.5804443359375,9.832686943054199,0.29718028106689454,0.024091654205322263
1717857932041485300,6.5904853515625,9.851840556335448,0.28790274963378903,0.03965396499633789
1717857932051526400,6.6005263671875,9.828646727752686,0.29403789138793945,0.041748891448974604
1717857932061567200,6.610567138671875,9.807098912811279,0.30690672531127927,0.029328970336914062
1717857932071608300,6.6206083984375,9.815328981018066,0.3006219459533691,0.03516483688354492
1717857932081648400,6.6306484375,9.840019185638427,0.2953846298217773,0.04638765716552734
1717857932091689500,6.640689453125,9.831489842224121,0.3058592620849609,0.03441664886474609
1717857932101730300,6.650730224609375,9.823259774017334,0.29388825378417965,0.03127425918579101
1717857932111771400,6.660771484375,9.814880068206786,0.2893991256713867,0.02528875503540039
1717857932121812200,6.670812255859375,9.81906992111206,0.2950853546142578,0.03696048812866211
1717857932131852000,6.68085205078125,9.83897172241211,0.28969840087890625,0.027084406280517576
1717857932141893000,6.69089306640625,9.840767373657226,0.2919429649353027,0.03696048812866211
1717857932151934200,6.700934326171875,9.836577520751952,0.2919429649353027,0.03067570877075195
1717857932161975000,6.71097509765625,9.822361948394775,0.31094694061279293,0.03725976333618164
1717857932172015000,6.72101513671875,9.83223803024292,0.3076549133300781,0.04339490509033203
1717857932182056200,6.73105615234375,9.847650703430174,0.29089550170898437,0.03845686416625976
1717857932192097300,6.74109716796875,9.843610488128661,0.3010708587646484,0.0330699104309082
1717857932202138000,6.75113818359375,9.822511585998535,0.2916436897277832,0.03172317199707031
1717857932212179200,6.76117919921875,9.820865572357176,0.2937386161804199,0.03067570877075195
1717857932222219300,6.77121923828125,9.828646727752686,0.299424845123291,0.036062662506103516
1717857932232260400,6.78126025390625,9.826551801300049,0.29568390502929687,0.02289455337524414
1717857932242301200,6.79130126953125,9.820715934753418,0.30481179885864257,0.03621230010986328
1717857932252342300,6.80134228515625,9.827299989318847,0.30181904678344723,0.03486556167602539
1717857932262382300,6.81138232421875,9.834332956695556,0.29822774429321286,0.029179332733154296
1717857932272423200,6.821423095703125,9.83747534637451,0.3000233955383301,0.026785131072998045
1717857932282464300,6.83146435546875,9.840019185638427,0.28745383682250975,0.030825346374511717
1717857932292505300,6.84150537109375,9.837325708770752,0.29358897857666016,0.033219548034667964
1717857932302546200,6.851546142578125,9.827150351715087,0.29493571701049803,0.03696048812866211
1717857932312586000,6.8615859375,9.830442378997802,0.2950853546142578,0.04085106582641601
1717857932322627000,6.871626953125,9.832686943054199,0.29658173065185545,0.03800795135498047
1717857932332668200,6.881668212890625,9.832986218261718,0.2871545616149902,0.03755903854370117
1717857932342709000,6.891708984375,9.8189202835083,0.28909985046386716,0.021697452545166016
1717857932352749000,6.9017490234375,9.816675719451904,0.2995744827270508,0.03800795135498047
1717857932362790100,6.9117900390625,9.833584768676758,0.3012204963684082,0.047884033203124995
1717857932372831200,6.921831298828125,9.833135855865478,0.2958335426330566,0.041000703430175776
1717857932382872000,6.9318720703125,9.82505542526245,0.2911947769165039,0.03531447448730469
1717857932392913200,6.9419130859375,9.826551801300049,0.2877531120300293,0.029927520751953124
1717857932402953200,6.951953125,9.83178911743164,0.2919429649353027,0.0326209976196289
1717857932412994000,6.961994140625,9.835530057525634,0.2811690574645996,0.02693476867675781
1717857932423035100,6.97203515625,9.817723182678222,0.28745383682250975,0.03920505218505859
1717857932433076200,6.982076171875,9.823110136413574,0.28924948806762696,0.040102877807617184
1717857932443116000,6.992115966796875,9.822661223602294,0.2929904281616211,0.05132569808959961
1717857932453156900,7.002156982421875,9.820865572357176,0.29358897857666016,0.041000703430175776
1717857932463198000,7.012197998046875,9.822212310791015,0.29224224014282224,0.044592005920410155
1717857932473239000,7.022239013671875,9.82550433807373,0.29777883148193357,0.03366846084594726
1717857932483280000,7.03227978515625,9.814281517791747,0.2980781066894531,0.03247136001586914
1717857932493320000,7.04231982421875,9.815628256225585,0.28999767608642574,0.03755903854370117
1717857932503361000,7.052361083984375,9.824307237243652,0.2967313682556152,0.03666121292114258
1717857932513402000,7.062402099609375,9.833734406280517,0.2947860794067383,0.02902969512939453
1717857932523443000,7.07244287109375,9.835530057525634,0.3049614364624023,0.03426701126098632
1717857932533484000,7.082484130859375,9.841066648864745,0.29822774429321286,0.04578910675048828
1717857932543524000,7.092524169921875,9.816974994659423,0.30092122116088865,0.03441664886474609
1717857932553565000,7.10256494140625,9.833884043884277,0.3033154228210449,0.0378583137512207
1717857932563606000,7.11260595703125,9.83163947982788,0.28909985046386716,0.03366846084594726
1717857932573647000,7.122647216796875,9.828197814941406,0.29343934097290036,0.03591302490234375
1717857932583687200,7.132687255859375,9.822062673187256,0.28266543350219725,0.022296002960205077
1717857932593728000,7.14272802734375,9.826252526092528,0.29358897857666016,0.0378583137512207
1717857932603769000,7.15276904296875,9.836727158355712,0.2995744827270508,0.04279635467529297
1717857932613810200,7.16281005859375,9.827000714111328,0.2998737579345703,0.02558803024291992
1717857932623850000,7.17285009765625,9.827000714111328,0.296881005859375,0.032172084808349606
1717857932633891000,7.18289111328125,9.830592016601562,0.2893991256713867,0.025438392639160156
1717857932643932200,7.19293212890625,9.83134020462036,0.30885201416015623,0.028880057525634766
1717857932653973000,7.202972900390625,9.832686943054199,0.2905962265014648,0.026485855865478514
1717857932664014000,7.21301416015625,9.81951883392334,0.2946364418029785,0.023792378997802732
1717857932674054100,7.22305419921875,9.817274269866942,0.2902969512939453,0.02798223190307617
1717857932684095200,7.23309521484375,9.821613760375977,0.29613281784057616,0.022445640563964843
1717857932694136000,7.243135986328125,9.829544553375243,0.28535891036987304,0.028431144714355466
1717857932704177200,7.25317724609375,9.820117384338378,0.29613281784057616,0.04534019393920898
1717857932714217000,7.263217041015625,9.821314485168456,0.3024175971984863,0.02902969512939453
1717857932724258000,7.273258056640625,9.827150351715087,0.3113958534240722,0.03800795135498047
1717857932734299000,7.283298828125,9.835230782318115,0.3101987525939941,0.0430956298828125
1717857932744340000,7.293340087890625,9.814580792999267,0.2885013000488281,0.03172317199707031
1717857932754381000,7.303381103515625,9.823858324432372,0.2916436897277832,0.03920505218505859
1717857932764420900,7.3134208984375,9.739462715911865,0.2919429649353027,0.04279635467529297
1717857932774462000,7.3234619140625,9.85064345550537,0.29179332733154295,0.04249707946777344
1717857932784503000,7.3335029296875,9.909899946594237,0.3024175971984863,0.02902969512939453
1717857932794543900,7.3435439453125,9.842862300109863,0.3067570877075195,0.026785131072998045
1717857932804584000,7.353583984375,9.81233622894287,0.2893991256713867,0.034715924072265626
1717857932814625000,7.363625,9.851541281127929,0.27832594299316404,0.037708676147460936
1717857932824666000,7.373666015625,9.821314485168456,0.28266543350219725,0.03651157531738281
1717857932834707000,7.38370703125,9.79991630783081,0.2962824554443359,0.04189852905273437
1717857932844748000,7.393748046875,9.847650703430174,0.304512523651123,0.04189852905273437
1717857932854788000,7.4037880859375,9.84510686416626,0.30301614761352536,0.030825346374511717
1717857932864829200,7.4138291015625,9.817124632263184,0.3172317199707031,0.03172317199707031
1717857932874870000,7.4238701171875,9.801861596679688,0.2976291938781738,0.039055414581298825
1717857932884911000,7.4339111328125,9.808146376037596,0.2811690574645996,0.02558803024291992
1717857932894952000,7.443951904296875,9.817723182678222,0.28655601119995117,0.04504091873168945
1717857932904992000,7.453991943359375,9.8449572265625,0.28101941986083984,0.033518823242187495
1717857932915033000,7.464033203125,9.839420635223387,0.28655601119995117,0.019303250885009764
1717857932925074200,7.47407421875,9.815777893829345,0.3003226707458496,0.04803367080688476
1717857932935115000,7.484114990234375,9.825953250885009,0.3042132484436035,0.03920505218505859
1717857932945155000,7.494155029296875,9.833435131072997,0.2991255699157715,0.024390929412841794
1717857932955196200,7.504196044921875,9.828646727752686,0.3024175971984863,0.03486556167602539
1717857932965237200,7.5142373046875,9.834931507110594,0.29553426742553707,0.042646717071533204
1717857932975278000,7.524278076171875,9.814131880187988,0.2871545616149902,0.04803367080688476
1717857932985319200,7.534319091796875,9.814580792999267,0.29777883148193357,0.03366846084594726
1717857932995359000,7.54435888671875,9.840468098449707,0.2980781066894531,0.029179332733154296
1717857933005400000,7.554400146484375,9.830143103790283,0.2904465888977051,0.025139117431640625
1717857933015441000,7.56444091796875,9.823559049224853,0.2950853546142578,0.023792378997802732
1717857933025482000,7.57448193359375,9.805003986358642,0.30361469802856444,0.03845686416625976
1717857933035522000,7.58452197265625,9.826402163696288,0.30570962448120115,0.04414309310913086
1717857933045563000,7.59456298828125,9.82610288848877,0.30301614761352536,0.040102877807617184
1717857933055604000,7.60460400390625,9.829993466186522,0.2979284690856933,0.04249707946777344
1717857933065645000,7.61464501953125,9.815029705810547,0.29568390502929687,0.03591302490234375
1717857933075686000,7.624685791015625,9.826851076507568,0.296881005859375,0.03621230010986328
1717857933085726000,7.634725830078125,9.834632231903075,0.2861070983886719,0.028730419921875
1717857933095767000,7.64476708984375,9.830292741394043,0.2959831802368164,0.02633621826171875
1717857933105808100,7.65480810546875,9.837325708770752,0.29089550170898437,0.02977788314819336
1717857933115849000,7.664848876953125,9.816825357055663,0.28909985046386716,0.03366846084594726
1717857933125889000,7.674888916015625,9.83822353439331,0.2958335426330566,0.03277063522338867
1717857933135930000,7.68493017578125,9.819219558715819,0.29388825378417965,0.027084406280517576
1717857933145971000,7.694970947265625,9.835978970336914,0.296881005859375,0.02798223190307617
1717857933156012000,7.705011962890625,9.826402163696288,0.29553426742553707,0.041748891448974604
1717857933166053000,7.71505322265625,9.835081144714355,0.2937386161804199,0.0474351203918457
1717857933176093200,7.72509326171875,9.822511585998535,0.29224224014282224,0.02977788314819336
1717857933186134000,7.735134033203125,9.828197814941406,0.2861070983886719,0.031573534393310544
1717857933196175000,7.745175048828125,9.828197814941406,0.2861070983886719,0.035464112091064454
1717857933206216200,7.75521630859375,9.829993466186522,0.3066074501037597,0.04369418029785156
1717857933216257000,7.765257080078125,9.81951883392334,0.29777883148193357,0.04159925384521484
1717857933226297000,7.775297119140625,9.816526081848144,0.299424845123291,0.025887305450439452
1717857933236338200,7.785338134765625,9.827449626922608,0.30346506042480464,0.04474164352416992
1717857933246379300,7.795379150390625,9.820865572357176,0.28446108474731446,0.033518823242187495
1717857933256420000,7.805420166015625,9.82460651245117,0.2914940521240234,0.02124853973388672
1717857933266460000,7.8154599609375,9.816526081848144,0.29239187774658204,0.03486556167602539
1717857933276501000,7.8255009765625,9.819668471527098,0.29014731369018554,0.03800795135498047
1717857933286541800,7.835541748046875,9.83178911743164,0.29553426742553707,0.03142389678955078
1717857933296583000,7.8455830078125,9.841066648864745,0.3021183219909668,0.03486556167602539
1717857933306624000,7.8556240234375,9.82610288848877,0.2919429649353027,0.03681085052490234
1717857933316664600,7.86566455078125,9.818172095489501,0.3003226707458496,0.03127425918579101
1717857933326705400,7.875705322265625,9.842712662506102,0.31184476623535157,0.030226795959472655
1717857933336746500,7.88574658203125,9.819668471527098,0.2953846298217773,0.042945992279052735
1717857933346787300,7.895787353515625,9.826252526092528,0.296881005859375,0.03591302490234375
1717857933356827400,7.905827392578125,9.814880068206786,0.2876034744262695,0.039354689788818356
1717857933366868500,7.915868408203125,9.821763397979735,0.2929904281616211,0.031872809600830075
1717857933376909600,7.92590966796875,9.825953250885009,0.2937386161804199,0.03426701126098632
1717857933386950400,7.935950439453125,9.826851076507568,0.3051110740661621,0.03277063522338867
1717857933396991500,7.945991455078125,9.818022457885741,0.2985270195007324,0.025139117431640625
1717857933407031600,7.956031494140625,9.826551801300049,0.30630817489624024,0.03725976333618164
1717857933417072600,7.96607275390625,9.835230782318115,0.2811690574645996,0.03232172241210937
1717857933427113500,7.976113525390625,9.823559049224853,0.29089550170898437,0.02858078231811523
1717857933437154600,7.986154541015625,9.8189202835083,0.3054103492736816,0.024690204620361325
1717857933447194600,7.996194580078125,9.814730430603026,0.2883516624450683,0.02693476867675781
1717857933457235500,8.0062353515625,9.83897172241211,0.2967313682556152,0.035464112091064454
1717857933467276500,8.016276611328125,9.830891291809081,0.28805238723754883,0.03007715835571289
1717857933477317600,8.026317626953125,9.830741654205323,0.299424845123291,0.04055179061889648
1717857933487358500,8.0363583984375,9.826851076507568,0.2998737579345703,0.03142389678955078
1717857933497398300,8.046398193359375,9.828497090148925,0.304512523651123,0.032920272827148434
1717857933507439400,8.056439453125,9.829843828582764,0.29014731369018554,0.026785131072998045
1717857933517480400,8.06648046875,9.843460850524902,0.29224224014282224,0.03531447448730469
1717857933527521300,8.076521240234374,9.826701438903807,0.3082534637451172,0.035763387298583985
1717857933537561300,8.086561279296875,9.8311905670166,0.2905962265014648,0.024091654205322263
1717857933547602400,8.0966025390625,9.823858324432372,0.2941875289916992,0.03531447448730469
1717857933557643500,8.1066435546875,9.821464122772216,0.29867665710449215,0.03621230010986328
1717857933567684400,8.116684326171875,9.824157599639893,0.28580782318115233,0.04159925384521484
1717857933577725400,8.126725341796876,9.82610288848877,0.29284079055786133,0.03531447448730469
1717857933587765500,8.136765625,9.827748902130127,0.29718028106689454,0.042646717071533204
1717857933597806300,8.146806396484376,9.82520506286621,0.29089550170898437,0.03621230010986328
1717857933607847400,8.156847412109375,9.832986218261718,0.30092122116088865,0.033818098449707026
1717857933617888500,8.166888427734374,9.82520506286621,0.2914940521240234,0.040701428222656245
1717857933627928600,8.176928466796875,9.822062673187256,0.29882629470825195,0.039055414581298825
1717857933637969400,8.186969482421874,9.831489842224121,0.2953846298217773,0.03980360260009765
1717857933648010500,8.197010498046875,9.828048177337646,0.3042132484436035,0.030825346374511717
1717857933658051600,8.207051513671875,9.836577520751952,0.28865093765258787,0.03172317199707031
1717857933668092400,8.217092529296876,9.834332956695556,0.2967313682556152,0.0383072265625
1717857933678132500,8.227132568359375,9.784503634643555,0.2925415153503418,0.0430956298828125
1717857933688173600,8.237173583984376,9.771185887908935,0.2882020248413086,0.05027823486328125
1717857933698214700,8.247214599609375,9.86336265182495,0.29448680419921874,0.03965396499633789
1717857933708255500,8.25725537109375,9.893589447784423,0.3010708587646484,0.01631049880981445
1717857933718295600,8.267295654296875,9.886706118011475,0.3060088996887207,0.030226795959472655
1717857933728336600,8.277336669921874,9.826701438903807,0.28356325912475583,0.04608838195800781
1717857933738377500,8.28737744140625,9.745298582458496,0.2811690574645996,0.03336918563842773
1717857933748418600,8.29741845703125,9.794379716491699,0.3012204963684082,0.03681085052490234
1717857933758459600,8.307459716796876,9.881019889068602,0.3275567146301269,0.02498947982788086
1717857933768499500,8.31749951171875,9.885060104370117,0.32172084808349605,0.020949264526367185
1717857933778540300,8.327540283203126,9.827599264526366,0.31753099517822264,0.027234043884277342
1717857933788581400,8.337581298828125,9.77447791519165,0.29867665710449215,0.041000703430175776
1717857933798622700,8.347622802734374,9.804405435943602,0.27742811737060546,0.03621230010986328
1717857933808663600,8.35766357421875,9.862614463806151,0.2659060218811035,0.04129997863769531
1717857933818703400,8.367703369140624,9.857975698089598,0.27877485580444333,0.040402153015136714
1717857933828744400,8.377744384765625,9.81278514175415,0.29613281784057616,0.01915361328125
1717857933838785500,8.38778564453125,9.802460147094726,0.2998737579345703,0.011821370697021483
1717857933848826400,8.397826416015626,9.830292741394043,0.31169512863159177,0.03426701126098632
1717857933858866400,8.407866455078125,9.84510686416626,0.32022447204589843,0.04833294601440429
1717857933868907500,8.417907470703126,9.834332956695556,0.31274259185791015,0.031573534393310544
1717857933878948400,8.4279482421875,9.814131880187988,0.29867665710449215,0.041000703430175776
1717857933888989400,8.437989501953124,9.789441675567627,0.2959831802368164,0.036361937713623046
1717857933899030500,8.448030517578125,9.802460147094726,0.2920926025390625,0.028131869506835935
1717857933909070600,8.458070556640624,9.835978970336914,0.2876034744262695,0.027084406280517576
1717857933919111400,8.468111328125,9.836427883148193,0.29179332733154295,0.019303250885009764
1717857933929152500,8.478152587890625,9.824456874847412,0.2914940521240234,0.023942016601562498
1717857933939193600,8.488193603515626,9.815628256225585,0.29703064346313474,0.0383072265625
1717857933949233400,8.4982333984375,9.836876795959473,0.3007715835571289,0.04189852905273437
1717857933959274500,8.5082744140625,9.834632231903075,0.303913973236084,0.0383072265625
1717857933969315600,8.518315673828125,9.826551801300049,0.30181904678344723,0.04085106582641601
1717857933979356400,8.5283564453125,9.804704711151123,0.28969840087890625,0.03501519927978516
1717857933989397500,8.5383974609375,9.82535470046997,0.2950853546142578,0.02424129180908203
1717857933999437600,8.5484375,9.845256501770018,0.2888005752563476,0.022445640563964843
1717857934009478700,8.558478759765626,9.834632231903075,0.28490999755859375,0.03965396499633789
1717857934019519500,8.56851953125,9.828347452545165,0.28161797027587887,0.04803367080688476
1717857934029560600,8.578560546875,9.81847137069702,0.27563246612548825,0.04234744186401367
1717857934039600400,8.588600341796875,9.817423907470703,0.2980781066894531,0.030825346374511717
1717857934049641500,8.598641357421876,9.830442378997802,0.30256723480224607,0.04369418029785156
1717857934059682600,8.6086826171875,9.8189202835083,0.3072060005187988,0.040402153015136714
1717857934069723600,8.6187236328125,9.823409411621093,0.2893991256713867,0.0330699104309082
1717857934079764500,8.628764404296875,9.822212310791015,0.29358897857666016,0.026785131072998045
1717857934089804300,8.63880419921875,9.834482594299315,0.2919429649353027,0.031124621582031248
1717857934099845400,8.648845458984376,9.835081144714355,0.27174188842773433,0.03666121292114258
1717857934109886500,8.658886474609375,9.829544553375243,0.2786252182006836,0.03755903854370117
1717857934119927300,8.66892724609375,9.818770645904541,0.28969840087890625,0.025737667846679687
1717857934129967400,8.67896728515625,9.816526081848144,0.29358897857666016,0.04234744186401367
1717857934140008400,8.689008544921874,9.833584768676758,0.30346506042480464,0.03396773605346679
1717857934150049500,8.699049560546875,9.82610288848877,0.3145382431030273,0.04055179061889648
1717857934160090400,8.70909033203125,9.836727158355712,0.30346506042480464,0.04399345550537109
1717857934170131500,8.71913134765625,9.833734406280517,0.2832639839172363,0.03696048812866211
1717857934180171500,8.729171630859375,9.816675719451904,0.2883516624450683,0.03336918563842773
1717857934190212600,8.739212646484376,9.832537305450439,0.2902969512939453,0.0383072265625
1717857934200253400,8.74925341796875,9.822661223602294,0.2920926025390625,0.023343466186523436
1717857934210294500,8.75929443359375,9.81847137069702,0.29777883148193357,0.025887305450439452
1717857934220334600,8.76933447265625,9.821015209960937,0.29269115295410153,0.037708676147460936
1717857934230375400,8.77937548828125,9.81847137069702,0.3012204963684082,0.047884033203124995
1717857934240416500,8.78941650390625,9.8319387550354,0.29867665710449215,0.046537294769287106
1717857934250457600,8.79945751953125,9.833734406280517,0.29613281784057616,0.041000703430175776
1717857934260497700,8.80949755859375,9.822810861206055,0.29568390502929687,0.0330699104309082
1717857934270538500,8.81953857421875,9.82610288848877,0.2980781066894531,0.042646717071533204
1717857934280579600,8.82957958984375,9.822810861206055,0.2889502128601074,0.03007715835571289
1717857934290620700,8.83962060546875,9.81862100830078,0.29718028106689454,0.03980360260009765
1717857934300661500,8.84966162109375,9.822511585998535,0.2914940521240234,0.03591302490234375
1717857934310701300,8.859701416015625,9.821913035583496,0.2877531120300293,0.035763387298583985
1717857934320742100,8.8697421875,9.828646727752686,0.3006219459533691,0.029478607940673827
1717857934330783200,8.879783203125,9.813234054565429,0.2976291938781738,0.031573534393310544
1717857934340824000,8.889823974609374,9.824307237243652,0.30047230834960936,0.030526071166992186
1717857934350865200,8.899865234375,9.84435867614746,0.29134441452026366,0.051475335693359374
1717857934360905200,8.9099052734375,9.817872820281982,0.2973299186706543,0.036062662506103516
1717857934370946000,8.919946044921875,9.83747534637451,0.2946364418029785,0.02633621826171875
1717857934380987100,8.929987060546875,9.83897172241211,0.2867056488037109,0.03890577697753906
1717857934391028200,8.9400283203125,9.822661223602294,0.2883516624450683,0.03142389678955078
1717857934401068300,8.950068359375,9.829095640563965,0.29837738189697266,0.028880057525634766
1717857934411109000,8.960109130859376,9.822661223602294,0.2995744827270508,0.03980360260009765
1717857934421150200,8.970150146484375,9.824307237243652,0.31274259185791015,0.032172084808349606
1717857934431191300,8.98019140625,9.817274269866942,0.314089330291748,0.03755903854370117
1717857934441231400,8.9902314453125,9.825953250885009,0.3001730331420898,0.03441664886474609
1717857934451272200,9.000272216796875,9.823708686828613,0.2973299186706543,0.03501519927978516
1717857934461313300,9.010313232421876,9.82580361328125,0.28924948806762696,0.03501519927978516
1717857934471354400,9.020354248046875,9.8311905670166,0.2962824554443359,0.03845686416625976
1717857934481395200,9.030395263671876,9.8319387550354,0.2958335426330566,0.026785131072998045
1717857934491435300,9.040435302734375,9.824905787658691,0.29613281784057616,0.02498947982788086
1717857934501476400,9.050476318359374,9.829394915771484,0.3054103492736816,0.03950432739257812
1717857934511517200,9.06051708984375,9.828048177337646,0.29972412033081053,0.033219548034667964
1717857934521558300,9.070558349609374,9.837176071166992,0.2995744827270508,0.037708676147460936
1717857934531599400,9.080599365234375,9.828796365356444,0.29718028106689454,0.030825346374511717
1717857934541639400,9.090639404296875,9.820117384338378,0.29927520751953124,0.031573534393310544
1717857934551680300,9.10068017578125,9.819219558715819,0.2905962265014648,0.03651157531738281
1717857934561721300,9.110721435546875,9.827599264526366,0.29777883148193357,0.03995324020385742
1717857934571762400,9.120762451171874,9.83134020462036,0.2929904281616211,0.03336918563842773
1717857934581802200,9.13080224609375,9.832836580657958,0.30151977157592774,0.03725976333618164
1717857934591843000,9.140843017578124,9.829245278167724,0.2952349922180176,0.03456628646850586
1717857934601884200,9.15088427734375,9.818022457885741,0.29777883148193357,0.03965396499633789
1717857934611925200,9.16092529296875,9.822810861206055,0.3091512893676758,0.03426701126098632
1717857934621966000,9.170966064453125,9.81847137069702,0.3022679595947265,0.03531447448730469
1717857934632006100,9.181006103515625,9.815628256225585,0.28490999755859375,0.024690204620361325
1717857934642047200,9.191047119140626,9.83223803024292,0.2953846298217773,0.027832594299316404
1717857934652088000,9.201088134765625,9.828347452545165,0.29493571701049803,0.029628245544433593
1717857934662129200,9.211129150390626,9.829544553375243,0.2871545616149902,0.03037643356323242
1717857934672169200,9.221169189453125,9.827599264526366,0.28206688308715816,0.0383072265625
1717857934682210300,9.231210205078124,9.80665,0.28640637359619137,0.032920272827148434
1717857934692251100,9.241251220703125,9.718513451385498,0.296881005859375,0.04444236831665039
1717857934702292200,9.251292236328124,9.898826763916015,0.3101987525939941,0.03516483688354492
1717857934712333300,9.261333251953126,9.908702845764159,0.3066074501037597,0.026186580657958983
1717857934722373000,9.271373046875,9.865457578277587,0.3058592620849609,0.02858078231811523
1717857934732414200,9.281414306640626,9.821314485168456,0.2608183433532715,0.05776011505126953
1717857934742455300,9.291455322265625,9.770288062286376,0.2651578338623047,0.027234043884277342
1717857934752496000,9.30149609375,9.782857621002197,0.2877531120300293,0.02977788314819336
1717857934762536200,9.3115361328125,9.861567000579834,0.3082534637451172,0.0282815071105957
1717857934772577300,9.321577392578124,9.883114815521239,0.3268085266113281,0.034715924072265626
1717857934782618400,9.331618408203125,9.80051485824585,0.3329436683654785,0.03411737365722656
1717857934792659200,9.3416591796875,9.774777190399169,0.3203741096496582,0.04548983154296875
1717857934802700300,9.3517001953125,9.828796365356444,0.3024175971984863,0.030226795959472655
1717857934812740400,9.361740234375,9.863213014221191,0.2748842781066894,0.029927520751953124
1717857934822781400,9.371781494140626,9.846752877807617,0.2558803024291992,0.03651157531738281
1717857934832822300,9.381822265625,9.819668471527098,0.25962124252319335,0.029328970336914062
1717857934842863400,9.39186328125,9.801412683868408,0.2645592834472656,0.030825346374511717
1717857934852903200,9.401903076171875,9.845855052185058,0.2962824554443359,0.02079962692260742
1717857934862944000,9.411944091796874,9.854683670806883,0.3094505645751953,0.02289455337524414
1717857934872985000,9.421985107421875,9.81233622894287,0.32441432495117184,0.029628245544433593
1717857934883026200,9.432026123046874,9.797671743774414,0.32306758651733397,0.047285482788085934
1717857934893067000,9.44206689453125,9.808595288848876,0.299424845123291,0.051475335693359374
1717857934903107000,9.452107177734375,9.84405940093994,0.2920926025390625,0.029628245544433593
1717857934913148200,9.462148193359376,9.841365924072266,0.28431144714355466,0.02528875503540039
1717857934923189200,9.472189208984375,9.820566297149657,0.28356325912475583,0.03366846084594726
1717857934933230000,9.48222998046875,9.80620108718872,0.28446108474731446,0.02633621826171875
1717857934943270100,9.492270263671875,9.834482594299315,0.2882020248413086,0.023343466186523436
1717857934953311200,9.502311279296874,9.83747534637451,0.3093009269714355,0.022744915771484374
1717857934963352300,9.512352294921875,9.841365924072266,0.30256723480224607,0.048183308410644526
1717857934973393200,9.52239306640625,9.816675719451904,0.3082534637451172,0.02798223190307617
1717857934983434200,9.532434326171876,9.805153623962402,0.296881005859375,0.037409400939941405
1717857934993474300,9.542474365234375,9.816526081848144,0.28969840087890625,0.031872809600830075
1717857935003515100,9.55251513671875,9.853187294769286,0.28700492401123046,0.020201076507568357
1717857935013556200,9.56255615234375,9.843460850524902,0.2885013000488281,0.02289455337524414
1717857935023597300,9.572597412109374,9.809343476867674,0.2846107223510742,0.022296002960205077
1717857935033637400,9.582637451171875,9.830292741394043,0.2877531120300293,0.023343466186523436
1717857935043678200,9.59267822265625,9.830592016601562,0.29882629470825195,0.040402153015136714
1717857935053719300,9.60271923828125,9.841515561676024,0.2989759323120117,0.04144961624145507
1717857935063760400,9.612760498046875,9.8189202835083,0.3033154228210449,0.039055414581298825
1717857935073801200,9.62280126953125,9.81278514175415,0.304512523651123,0.04414309310913086
1717857935083841300,9.63284130859375,9.817274269866942,0.29403789138793945,0.046537294769287106
1717857935093882400,9.64288232421875,9.834482594299315,0.29388825378417965,0.028431144714355466
1717857935103923200,9.652923095703125,9.834332956695556,0.2893991256713867,0.019303250885009764
1717857935113964300,9.66296435546875,9.806500362396239,0.28206688308715816,0.03516483688354492
1717857935124005400,9.67300537109375,9.821015209960937,0.28221652069091796,0.03127425918579101
1717857935134045200,9.683045166015624,9.814431155395507,0.29269115295410153,0.037409400939941405
1717857935144086000,9.6930859375,9.842263749694824,0.30271687240600587,0.030825346374511717
1717857935154127000,9.703127197265625,9.822062673187256,0.30406361083984373,0.037409400939941405
1717857935164168400,9.71316845703125,9.827898539733885,0.29867665710449215,0.03067570877075195
1717857935174208300,9.723208251953125,9.827898539733885,0.29269115295410153,0.032920272827148434
1717857935184249000,9.7332490234375,9.823559049224853,0.28580782318115233,0.045938744354248044
1717857935194290200,9.743290283203125,9.842413387298583,0.2904465888977051,0.02184709014892578
1717857935204331300,9.753331298828124,9.833285493469237,0.29343934097290036,0.032920272827148434
1717857935214372000,9.7633720703125,9.829095640563965,0.2885013000488281,0.03396773605346679
1717857935224412200,9.773412109375,9.836876795959473,0.28311434631347654,0.03037643356323242
1717857935234453200,9.783453369140625,9.830143103790283,0.30271687240600587,0.042048166656494135
1717857935244494000,9.793494140625,9.83807389678955,0.3037643356323242,0.04384381790161133
1717857935254535200,9.80353515625,9.827150351715087,0.303913973236084,0.04189852905273437
1717857935264575200,9.8135751953125,9.817124632263184,0.30256723480224607,0.043544542694091797
1717857935274616300,9.8236162109375,9.829694190979003,0.30092122116088865,0.0234931037902832
1717857935284657200,9.8336572265625,9.824756150054931,0.2953846298217773,0.023642741394042967
1717857935294698200,9.8436982421875,9.833285493469237,0.2973299186706543,0.04578910675048828
1717857935304739300,9.8537392578125,9.835530057525634,0.29837738189697266,0.033219548034667964
1717857935314778400,9.8637783203125,9.827449626922608,0.29433716659545894,0.03486556167602539
1717857935324819200,9.873819091796875,9.821015209960937,0.29074586410522457,0.037409400939941405
1717857935334860300,9.8838603515625,9.827599264526366,0.2868552864074707,0.03755903854370117
1717857935344901400,9.8939013671875,9.824007962036132,0.3076549133300781,0.042945992279052735
1717857935354941400,9.90394140625,9.82460651245117,0.2958335426330566,0.03366846084594726
1717857935364982300,9.913982177734376,9.822511585998535,0.28999767608642574,0.0326209976196289
1717857935375023400,9.9240234375,9.828646727752686,0.29568390502929687,0.03037643356323242
1717857935385064400,9.934064453125,9.815478618621826,0.2952349922180176,0.024390929412841794
1717857935395105300,9.944105224609375,9.817124632263184,0.27997195663452146,0.028880057525634766
1717857935405145300,9.954145263671874,9.82505542526245,0.2905962265014648,0.033219548034667964
1717857935415186400,9.9641865234375,9.83747534637451,0.2941875289916992,0.03860650177001953
1717857935425227500,9.9742275390625,9.822810861206055,0.30316578521728516,0.037409400939941405
1717857935435268400,9.984268310546875,9.823110136413574,0.3022679595947265,0.03336918563842773
1717857935445309400,9.994309326171875,9.828646727752686,0.299424845123291,0.041748891448974604
1717857935455349500,10.004349609375,9.829544553375243,0.3006219459533691,0.03067570877075195
1717857935465390300,10.014390380859375,9.82580361328125,0.2877531120300293,0.026485855865478514
1717857935475431400,10.024431396484376,9.835978970336914,0.30361469802856444,0.035763387298583985
1717857935485472500,10.034472412109375,9.835081144714355,0.3016694091796875,0.03411737365722656
1717857935495512300,10.04451220703125,9.83223803024292,0.3000233955383301,0.02977788314819336
1717857935505553200,10.05455322265625,9.835380419921874,0.29224224014282224,0.03531447448730469
1717857935515594500,10.064594482421874,9.823858324432372,0.3022679595947265,0.0474351203918457
1717857935525635600,10.074635498046876,9.823259774017334,0.30466216125488277,0.043245267486572266
1717857935535676400,10.084676513671875,9.83852280960083,0.297479556274414,0.03800795135498047
1717857935545716200,10.09471630859375,9.827748902130127,0.3043628860473633,0.03651157531738281
1717857935555757300,10.10475732421875,9.827449626922608,0.2834136215209961,0.037110125732421874
1717857935565798400,10.11479833984375,9.822212310791015,0.28655601119995117,0.04129997863769531
1717857935575839200,10.124839111328125,9.822810861206055,0.28790274963378903,0.0383072265625
1717857935585879300,10.13487939453125,9.830741654205323,0.2916436897277832,0.040701428222656245
1717857935595920400,10.14492041015625,9.833584768676758,0.2976291938781738,0.035464112091064454
1717857935605961200,10.154961181640624,9.832986218261718,0.29284079055786133,0.030974983978271482
1717857935616002300,10.165002197265625,9.823409411621093,0.3082534637451172,0.03142389678955078
1717857935626043400,10.17504345703125,9.819668471527098,0.30526071166992186,0.04025251541137695
1717857935636083500,10.18508349609375,9.829245278167724,0.30316578521728516,0.01915361328125
1717857935646124300,10.195124267578125,9.823259774017334,0.2973299186706543,0.033219548034667964
1717857935656165400,10.205165283203126,9.829993466186522,0.29568390502929687,0.0234931037902832
1717857935666206500,10.21520654296875,9.815777893829345,0.29703064346313474,0.040402153015136714
1717857935676247300,10.225247314453124,9.8189202835083,0.2832639839172363,0.042945992279052735
1717857935686287400,10.235287353515625,9.747393508911133,0.30301614761352536,0.03890577697753906
1717857935696328400,10.245328369140625,9.82580361328125,0.29568390502929687,0.041000703430175776
1717857935706369300,10.255369384765626,9.864709390258788,0.29718028106689454,0.03411737365722656
1717857935716410400,10.265410400390625,9.859771349334716,0.32097266006469727,0.02798223190307617
1717857935726450400,10.275450439453126,9.874136559295653,0.29837738189697266,0.04115034103393554
1717857935736491500,10.285491455078125,9.85632968444824,0.2796726814270019,0.03396773605346679
1717857935746532400,10.295532470703124,9.777919580078125,0.266205297088623,0.015861585998535155
1717857935756573400,10.305573486328125,9.772532626342773,0.29493571701049803,0.04085106582641601
1717857935766614500,10.315614501953124,9.854982946014404,0.30615853729248044,0.03725976333618164
1717857935776654600,10.325654541015625,9.880570976257324,0.32456396255493164,0.018255787658691406
1717857935786695400,10.3356953125,9.842263749694824,0.3259107009887695,0.03441664886474609
1717857935796736500,10.345736572265626,9.792135152435302,0.31379005508422847,0.03202244720458984
1717857935806777600,10.355777587890625,9.807996738433838,0.3042132484436035,0.043245267486572266
1717857935816818400,10.365818359375,9.843011937713623,0.2807201446533203,0.03681085052490234
1717857935826858200,10.375858154296875,9.85752678527832,0.26261399459838863,0.03890577697753906
1717857935836899300,10.3858994140625,9.796773918151855,0.2771288421630859,0.02424129180908203
1717857935846940200,10.395940185546875,9.791835877227783,0.2846107223510742,0.01915361328125
1717857935856981200,10.405981201171874,9.834482594299315,0.29718028106689454,0.031573534393310544
1717857935867021300,10.416021240234375,9.83897172241211,0.30795418853759765,0.036361937713623046
1717857935877062400,10.4260625,9.833435131072997,0.3021183219909668,0.03516483688354492
1717857935887103200,10.436103271484376,9.81847137069702,0.2995744827270508,0.048931496429443354
1717857935897144300,10.446144287109375,9.815777893829345,0.3024175971984863,0.045938744354248044
1717857935907185400,10.456185302734376,9.820566297149657,0.2871545616149902,0.031573534393310544
1717857935917225500,10.4662255859375,9.847201790618897,0.2727893516540527,0.025438392639160156
1717857935927266300,10.476266357421874,9.840617736053467,0.28086978225708004,0.012419921112060545
1717857935937307400,10.486307373046875,9.80605144958496,0.28520927276611324,0.023343466186523436
1717857935947348500,10.496348388671874,9.805452899169921,0.2867056488037109,0.029927520751953124
1717857935957388300,10.50638818359375,9.836128607940672,0.2941875289916992,0.04144961624145507
1717857935967429400,10.516429443359375,9.839420635223387,0.3142389678955078,0.05252279891967773
1717857935977470500,10.526470458984376,9.830143103790283,0.3085527389526367,0.054767362976074214
1717857935987511300,10.53651123046875,9.818022457885741,0.3003226707458496,0.03980360260009765
1717857935997552400,10.546552490234374,9.822062673187256,0.3006219459533691,0.037110125732421874
1717857936007592400,10.556592529296875,9.834482594299315,0.2813186950683594,0.031872809600830075
1717857936017633500,10.566633544921874,9.83897172241211,0.29388825378417965,0.034715924072265626
1717857936027674400,10.57667431640625,9.827150351715087,0.29089550170898437,0.02977788314819336
1717857936037715500,10.586715576171875,9.824007962036132,0.2902969512939453,0.029478607940673827
1717857936047756500,10.596756591796876,9.828197814941406,0.2998737579345703,0.03202244720458984
1717857936057796400,10.60679638671875,9.830891291809081,0.3101987525939941,0.04414309310913086
1717857936067837400,10.61683740234375,9.835829332733153,0.2937386161804199,0.03247136001586914
1717857936077878500,10.62687841796875,9.82460651245117,0.2941875289916992,0.0326209976196289
1717857936087919400,10.63691943359375,9.827898539733885,0.29613281784057616,0.027533319091796873
1717857936097959200,10.646959228515625,9.821613760375977,0.2902969512939453,0.031573534393310544
1717857936108000300,10.657000244140624,9.828347452545165,0.2941875289916992,0.024390929412841794
1717857936118041300,10.667041259765625,9.840617736053467,0.2861070983886719,0.03725976333618164
1717857936128082200,10.677082275390624,9.816526081848144,0.2877531120300293,0.03067570877075195
1717857936138123300,10.687123291015626,9.81951883392334,0.30481179885864257,0.01975216369628906
1717857936148163300,10.697163330078125,9.832986218261718,0.31169512863159177,0.032920272827148434
1717857936158204400,10.707204345703126,9.849147079467773,0.2973299186706543,0.032172084808349606
1717857936168245200,10.717245361328125,9.831040929412842,0.2976291938781738,0.03815758895874023
1717857936178286300,10.727286376953124,9.827000714111328,0.2941875289916992,0.040701428222656245
1717857936188327400,10.737327392578125,9.829843828582764,0.28520927276611324,0.037708676147460936
1717857936198367200,10.7473671875,9.834931507110594,0.2953846298217773,0.034715924072265626
1717857936208408300,10.757408203125,9.821613760375977,0.2952349922180176,0.035763387298583985
1717857936218449400,10.767449462890625,9.823259774017334,0.2919429649353027,0.0282815071105957
1717857936228490200,10.777490234375,9.821464122772216,0.30047230834960936,0.026785131072998045
1717857936238531300,10.78753125,9.819668471527098,0.3006219459533691,0.04519055633544922
1717857936248571400,10.7975712890625,9.83163947982788,0.2862567359924316,0.027383681488037107
1717857936258612500,10.807612548828125,9.815777893829345,0.29388825378417965,0.029927520751953124
1717857936268653300,10.8176533203125,9.821464122772216,0.2925415153503418,0.038756139373779294
1717857936278694400,10.8276943359375,9.824307237243652,0.3006219459533691,0.026785131072998045
1717857936288734500,10.837734375,9.821763397979735,0.2953846298217773,0.035763387298583985
1717857936298775600,10.847775634765625,9.830891291809081,0.2850596351623535,0.033518823242187495
1717857936308816400,10.85781640625,9.839570272827148,0.29014731369018554,0.033219548034667964
1717857936318858200,10.867858154296876,9.820416659545899,0.2979284690856933,0.039055414581298825
1717857936328899000,10.877899169921875,9.82505542526245,0.30526071166992186,0.029179332733154296
1717857936338939100,10.887939208984376,9.829245278167724,0.30780455093383785,0.041000703430175776
1717857936348980200,10.897980224609375,9.829245278167724,0.29658173065185545,0.03591302490234375
1717857936359021300,10.908021240234374,9.823858324432372,0.28161797027587887,0.03755903854370117
1717857936369062100,10.918062255859375,9.81862100830078,0.297479556274414,0.0383072265625
1717857936379103200,10.928103271484375,9.821464122772216,0.2998737579345703,0.038756139373779294
1717857936389143300,10.938143310546875,9.82580361328125,0.28969840087890625,0.03232172241210937
1717857936399184100,10.94818408203125,9.83178911743164,0.29239187774658204,0.033818098449707026
1717857936409225200,10.95822509765625,9.822661223602294,0.28924948806762696,0.043544542694091797
1717857936419266300,10.968266357421875,9.816675719451904,0.29388825378417965,0.036361937713623046
1717857936429307100,10.97830712890625,9.826551801300049,0.3136404174804687,0.03845686416625976
1717857936439347200,10.98834716796875,9.827748902130127,0.29837738189697266,0.040102877807617184
1717857936449388300,10.99838818359375,9.824456874847412,0.2973299186706543,0.04279635467529297
1717857936459429400,11.008429443359375,9.823110136413574,0.3001730331420898,0.03232172241210937
1717857936469470200,11.01847021484375,9.826402163696288,0.30092122116088865,0.0330699104309082
1717857936479510000,11.028510009765625,9.81862100830078,0.29718028106689454,0.020051438903808592
1717857936489551000,11.038551025390625,9.822810861206055,0.2840121719360351,0.03456628646850586
1717857936499592200,11.04859228515625,9.815927531433104,0.2947860794067383,0.03501519927978516
1717857936509633000,11.058633056640625,9.83837317199707,0.2902969512939453,0.041748891448974604
1717857936519674000,11.068674072265624,9.830741654205323,0.28924948806762696,0.03666121292114258
1717857936529714200,11.078714111328125,9.823858324432372,0.29134441452026366,0.02902969512939453
1717857936539755000,11.088755126953124,9.820715934753418,0.29224224014282224,0.04159925384521484
1717857936549796000,11.098796142578125,9.831040929412842,0.29493571701049803,0.040402153015136714
1717857936559837200,11.108837158203125,9.815628256225585,0.2904465888977051,0.03666121292114258
1717857936569878000,11.1188779296875,9.826701438903807,0.29568390502929687,0.03681085052490234
1717857936579918000,11.12891796875,9.839570272827148,0.28909985046386716,0.0234931037902832
1717857936589959200,11.138959228515626,9.82550433807373,0.3021183219909668,0.020649989318847654
1717857936600000300,11.149000244140625,9.834931507110594,0.2962824554443359,0.019901801300048826
1717857936610041000,11.159041015625,9.829245278167724,0.30301614761352536,0.03396773605346679
1717857936620081200,11.1690810546875,9.839420635223387,0.28790274963378903,0.0330699104309082
1717857936630122200,11.179122314453124,9.822810861206055,0.2931400657653808,0.04279635467529297
1717857936640163000,11.1891630859375,9.827898539733885,0.2976291938781738,0.033518823242187495
1717857936650204200,11.1992041015625,9.830891291809081,0.3037643356323242,0.03067570877075195
1717857936660245200,11.209245361328126,9.834931507110594,0.29448680419921874,0.040102877807617184
1717857936670285300,11.219285400390625,9.834632231903075,0.2856581855773926,0.029628245544433593
1717857936680326100,11.229326171875,9.836427883148193,0.28700492401123046,0.0383072265625
1717857936690367200,11.2393671875,9.776572841644287,0.3000233955383301,0.03172317199707031
1717857936700408300,11.249408203125,9.827299989318847,0.2910451393127441,0.0378583137512207
1717857936710449200,11.25944921875,9.875333660125731,0.289848038482666,0.023942016601562498
1717857936720489200,11.2694892578125,9.847201790618897,0.29777883148193357,0.02663549346923828
1717857936730530300,11.2795302734375,9.82550433807373,0.2973299186706543,0.04713584518432617
1717857936740571100,11.289571044921875,9.817872820281982,0.2819172454833984,0.04938040924072265
1717857936750612200,11.2996123046875,9.843610488128661,0.2841618095397949,0.03591302490234375
1717857936760653300,11.3096533203125,9.836876795959473,0.289848038482666,0.03501519927978516
1717857936770693000,11.319693115234376,9.823409411621093,0.2998737579345703,0.036361937713623046
1717857936780734000,11.32973388671875,9.810690215301513,0.30690672531127927,0.03516483688354492
1717857936790775000,11.339775146484374,9.829095640563965,0.30960020217895506,0.03681085052490234
1717857936800816000,11.349816162109375,9.849446354675292,0.30960020217895506,0.032920272827148434
1717857936810856200,11.359856201171874,9.834332956695556,0.3007715835571289,0.033518823242187495
1717857936820897000,11.36989697265625,9.821913035583496,0.29284079055786133,0.035464112091064454
1717857936830938000,11.379938232421875,9.82520506286621,0.2877531120300293,0.03920505218505859
1717857936840979200,11.389979248046876,9.824456874847412,0.2932897033691406,0.03501519927978516
1717857936851020000,11.40002001953125,9.842712662506102,0.2979284690856933,0.015412673187255858
1717857936861060000,11.41006005859375,9.835230782318115,0.303913973236084,0.02289455337524414
1717857936871101200,11.42010107421875,9.823708686828613,0.2989759323120117,0.03920505218505859
1717857936881142000,11.43014208984375,9.816675719451904,0.29822774429321286,0.03411737365722656
1717857936891183000,11.44018310546875,9.832836580657958,0.3054103492736816,0.05087678527832031
1717857936901224200,11.45022412109375,9.841365924072266,0.3042132484436035,0.03965396499633789
1717857936911264300,11.46026416015625,9.83163947982788,0.297479556274414,0.032172084808349606
1717857936921305000,11.47030517578125,9.821763397979735,0.297479556274414,0.025139117431640625
1717857936931346200,11.48034619140625,9.821314485168456,0.30092122116088865,0.031872809600830075
1717857936941387300,11.49038720703125,9.837176071166992,0.2919429649353027,0.031872809600830075
1717857936951428000,11.500427978515624,9.83807389678955,0.3076549133300781,0.021697452545166016
1717857936961468200,11.51046826171875,9.824307237243652,0.29403789138793945,0.028431144714355466
1717857936971509200,11.52050927734375,9.83208839263916,0.30481179885864257,0.03681085052490234
1717857936981550300,11.53055029296875,9.835829332733153,0.31753099517822264,0.03800795135498047
1717857936991591200,11.540591064453125,9.827449626922608,0.3021183219909668,0.03516483688354492
1717857937001631200,11.55063134765625,9.832836580657958,0.29867665710449215,0.046537294769287106
1717857937011672300,11.56067236328125,9.824307237243652,0.2959831802368164,0.03396773605346679
1717857937021713200,11.570713134765626,9.829843828582764,0.2846107223510742,0.03067570877075195
1717857937031754200,11.580754150390625,9.825953250885009,0.29269115295410153,0.04159925384521484
1717857937041795300,11.59079541015625,9.8319387550354,0.2946364418029785,0.034715924072265626
1717857937051835100,11.600835205078125,9.83208839263916,0.30481179885864257,0.03232172241210937
1717857937061876000,11.6108759765625,9.839570272827148,0.3007715835571289,0.03336918563842773
1717857937071917000,11.6209169921875,9.828946002960205,0.28520927276611324,0.032920272827148434
1717857937081958100,11.630958251953125,9.833435131072997,0.299424845123291,0.029179332733154296
1717857937091999000,11.6409990234375,9.821314485168456,0.29179332733154295,0.042048166656494135
1717857937102039000,11.6510390625,9.821763397979735,0.29284079055786133,0.049829322052001954
1717857937112080100,11.661080078125,9.825953250885009,0.29403789138793945,0.032920272827148434
1717857937122121200,11.671121337890625,9.82505542526245,0.2959831802368164,0.022296002960205077
1717857937132162000,11.681162109375,9.830891291809081,0.30137013397216794,0.04997895965576172
1717857937142203100,11.691203125,9.835081144714355,0.29568390502929687,0.03666121292114258
1717857937152243200,11.7012431640625,9.83882208480835,0.2859574607849121,0.023792378997802732
1717857937162284000,11.711283935546875,9.817423907470703,0.3016694091796875,0.036361937713623046
1717857937172325000,11.7213251953125,9.830143103790283,0.2991255699157715,0.037409400939941405
1717857937182366200,11.7313662109375,9.833135855865478,0.30960020217895506,0.04234744186401367
1717857937192407000,11.741406982421875,9.824456874847412,0.30047230834960936,0.035464112091064454
1717857937202447000,11.751447021484376,9.830143103790283,0.2962824554443359,0.025737667846679687
1717857937212488200,11.76148828125,9.829544553375243,0.29777883148193357,0.03965396499633789
1717857937222529300,11.771529296875,9.825953250885009,0.29703064346313474,0.029328970336914062
1717857937232570000,11.781570068359375,9.83777462158203,0.29074586410522457,0.02184709014892578
1717857937242610200,11.791610107421874,9.832836580657958,0.3001730331420898,0.03860650177001953
1717857937252651300,11.8016513671875,9.835230782318115,0.29972412033081053,0.031124621582031248
1717857937262692000,11.811692138671875,9.820416659545899,0.3112462158203125,0.03411737365722656
1717857937272733200,11.821733154296876,9.827748902130127,0.30181904678344723,0.03845686416625976
1717857937282774300,11.831774169921875,9.827748902130127,0.30630817489624024,0.019602526092529295
1717857937292814300,11.841814453125,9.818172095489501,0.28909985046386716,0.042646717071533204
1717857937302855200,11.851855224609375,9.815927531433104,0.2962824554443359,0.0430956298828125
1717857937312896300,11.861896240234374,9.823559049224853,0.29703064346313474,0.02977788314819336
1717857937322937600,11.8719375,9.82580361328125,0.2893991256713867,0.04129997863769531
1717857937332978400,11.881978515625,9.830143103790283,0.2952349922180176,0.034715924072265626
1717857937343018500,11.8920185546875,9.816526081848144,0.2958335426330566,0.032172084808349606
1717857937353059600,11.9020595703125,9.821763397979735,0.28924948806762696,0.03142389678955078
1717857937363100400,11.912100341796876,9.832686943054199,0.28356325912475583,0.0282815071105957
1717857937373141500,11.9221416015625,9.814431155395507,0.28086978225708004,0.02154781494140625
1717857937383182600,11.9321826171875,9.824157599639893,0.29822774429321286,0.030974983978271482
1717857937393222700,11.94222265625,9.820865572357176,0.29613281784057616,0.05132569808959961
1717857937403263500,11.952263427734374,9.827748902130127,0.2929904281616211,0.04534019393920898
1717857937413304600,11.9623046875,9.836427883148193,0.3058592620849609,0.0430956298828125
1717857937423345700,11.972345703125,9.827000714111328,0.299424845123291,0.03127425918579101
1717857937433386500,11.982386474609376,9.821913035583496,0.29239187774658204,0.03531447448730469
1717857937443426600,11.992426513671875,9.82565397567749,0.2946364418029785,0.023942016601562498
1717857937453467600,12.002467529296876,9.827449626922608,0.2980781066894531,0.03920505218505859
1717857937463508500,12.012508544921875,9.824007962036132,0.2829647087097168,0.0430956298828125
1717857937473549600,12.022549560546874,9.83897172241211,0.2932897033691406,0.036062662506103516
1717857937483589600,12.032589599609375,9.834781869506836,0.2877531120300293,0.037409400939941405
1717857937493630700,12.042630615234375,9.830143103790283,0.2980781066894531,0.04384381790161133
1717857937503671600,12.052671630859376,9.823559049224853,0.2985270195007324,0.029478607940673827
1717857937513712600,12.062712646484375,9.834183319091796,0.30615853729248044,0.026036943054199218
1717857937523753700,12.072753662109376,9.834183319091796,0.28790274963378903,0.03531447448730469
1717857937533793500,12.08279345703125,9.82460651245117,0.2916436897277832,0.03007715835571289
1717857937543834400,12.09283447265625,9.815029705810547,0.28640637359619137,0.024390929412841794
1717857937553875500,12.10287548828125,9.81996774673462,0.29134441452026366,0.04055179061889648
1717857937563916500,12.11291650390625,9.836577520751952,0.28490999755859375,0.04444236831665039
1717857937573957400,12.122957275390625,9.83163947982788,0.29239187774658204,0.044891281127929686
1717857937583997400,12.13299755859375,9.834931507110594,0.29568390502929687,0.036361937713623046
1717857937594038500,12.14303857421875,9.828197814941406,0.2876034744262695,0.04548983154296875
1717857937604079400,12.153079345703125,9.816526081848144,0.2914940521240234,0.028880057525634766
1717857937614120400,12.163120361328126,9.834781869506836,0.299424845123291,0.02902969512939453
1717857937624161500,12.17316162109375,9.829993466186522,0.2973299186706543,0.03067570877075195
1717857937634201600,12.18320166015625,9.830292741394043,0.28969840087890625,0.03920505218505859
1717857937644242400,12.193242431640625,9.822062673187256,0.2911947769165039,0.047285482788085934
1717857937654283500,12.203283447265624,9.828048177337646,0.29074586410522457,0.02798223190307617
1717857937664324600,12.21332470703125,9.83747534637451,0.2904465888977051,0.028730419921875
1717857937674365400,12.223365478515625,9.83134020462036,0.2929904281616211,0.025438392639160156
1717857937684405500,12.233405517578126,9.826402163696288,0.2985270195007324,0.02498947982788086
1717857937694446600,12.243446533203125,9.832986218261718,0.29269115295410153,0.04159925384521484
1717857937704487700,12.25348779296875,9.821314485168456,0.28101941986083984,0.03890577697753906
1717857937714528500,12.263528564453125,9.82580361328125,0.29403789138793945,0.032920272827148434
1717857937724568600,12.273568603515624,9.82505542526245,0.29777883148193357,0.03800795135498047
1717857937734609700,12.283609619140625,9.831040929412842,0.2929904281616211,0.04279635467529297
1717857937744650500,12.293650390625,9.828946002960205,0.29239187774658204,0.03965396499633789
1717857937754691600,12.303691650390626,9.82535470046997,0.30137013397216794,0.03232172241210937
1717857937764732700,12.313732666015625,9.823409411621093,0.3010708587646484,0.02858078231811523
1717857937774772700,12.323772705078126,9.8189202835083,0.3087023765563965,0.03516483688354492
1717857937784813600,12.3338134765625,9.773729727172851,0.29403789138793945,0.03426701126098632
1717857937794854700,12.343854736328124,9.821464122772216,0.29358897857666016,0.044592005920410155
1717857937804895700,12.353895751953125,9.868300692749022,0.303913973236084,0.03561374969482422
1717857937814936600,12.3639365234375,9.853486569976805,0.29703064346313474,0.023044190979003905
1717857937824976400,12.373976318359375,9.853037657165526,0.30526071166992186,0.04548983154296875
1717857937835017500,12.384017578125,9.840168823242188,0.28266543350219725,0.03486556167602539
1717857937845058600,12.39405859375,9.820715934753418,0.26336218261718747,0.0330699104309082
1717857937855099400,12.404099365234375,9.810241302490233,0.2771288421630859,0.0469862075805664
1717857937865140500,12.414140380859376,9.817872820281982,0.3049614364624023,0.0326209976196289
1717857937875180500,12.4241806640625,9.832836580657958,0.314089330291748,0.016909049224853513
1717857937885221400,12.434221435546876,9.843311212921142,0.3259107009887695,0.03755903854370117
1717857937895262500,12.444262451171875,9.81263550415039,0.31393969268798827,0.031573534393310544
1717857937905303600,12.454303466796874,9.813832604980469,0.29837738189697266,0.03396773605346679
1717857937915344400,12.464344482421875,9.821015209960937,0.2823661582946777,0.037409400939941405
1717857937925384400,12.474384521484374,9.830442378997802,0.27608137893676754,0.0383072265625
1717857937935425500,12.484425537109376,9.843011937713623,0.29089550170898437,0.021697452545166016
1717857937945466600,12.494466552734375,9.827449626922608,0.29568390502929687,0.01810615005493164
1717857937955507500,12.504507568359376,9.818172095489501,0.2914940521240234,0.018854338073730468
1717857937965548500,12.514548583984375,9.822062673187256,0.2813186950683594,0.034715924072265626
1717857937975588600,12.524588623046874,9.83163947982788,0.29867665710449215,0.05431845016479492
1717857937985629400,12.53462939453125,9.845855052185058,0.31214404144287106,0.04578910675048828
1717857937995670500,12.54467041015625,9.829843828582764,0.3082534637451172,0.0330699104309082
1717857938005711600,12.554711669921875,9.821464122772216,0.3064578125,0.025887305450439452
1717857938015751700,12.564751708984375,9.83134020462036,0.29867665710449215,0.03396773605346679
1717857938025792500,12.57479248046875,9.834632231903075,0.28446108474731446,0.024390929412841794
1717857938035833600,12.58483349609375,9.832986218261718,0.28476035995483395,0.020051438903808592
1717857938045874700,12.594874755859376,9.82550433807373,0.2893991256713867,0.040402153015136714
1717857938055915500,12.60491552734375,9.827000714111328,0.2941875289916992,0.03995324020385742
1717857938065955600,12.61495556640625,9.830741654205323,0.30735563812255856,0.03501519927978516
1717857938075996700,12.62499658203125,9.824307237243652,0.30346506042480464,0.04908113403320312
1717857938086037800,12.635037841796875,9.830442378997802,0.3133411422729492,0.043544542694091797
1717857938096078600,12.64507861328125,9.822212310791015,0.30406361083984373,0.029628245544433593
1717857938106119700,12.65511962890625,9.814131880187988,0.2856581855773926,0.02528875503540039
1717857938116159500,12.665159423828126,9.835530057525634,0.2811690574645996,0.031573534393310544
1717857938126200300,12.675200439453125,9.826252526092528,0.2813186950683594,0.030825346374511717
1717857938136241400,12.685241455078126,9.826252526092528,0.29358897857666016,0.01780687484741211
1717857938146282500,12.695282470703125,9.820117384338378,0.29269115295410153,0.03366846084594726
1717857938156323300,12.7053232421875,9.829694190979003,0.2941875289916992,0.02454056701660156
1717857938166363400,12.71536328125,9.81936919631958,0.30301614761352536,0.037409400939941405
1717857938176404500,12.725404541015624,9.827748902130127,0.29553426742553707,0.03980360260009765
1717857938186445600,12.735445556640625,9.827299989318847,0.296881005859375,0.04055179061889648
1717857938196486400,12.745486328125,9.832537305450439,0.2931400657653808,0.03681085052490234
1717857938206527500,12.755527587890626,9.822212310791015,0.2832639839172363,0.02977788314819336
1717857938216567600,12.765567626953125,9.821613760375977,0.2905962265014648,0.021996727752685546
1717857938226608600,12.775608642578124,9.835679695129395,0.2979284690856933,0.025438392639160156
1717857938236649500,12.7856494140625,9.824007962036132,0.2980781066894531,0.02124853973388672
