time,seconds_elapsed,z,y,x
1717857925545111000,0.094111083984375,0.005423527676612139,0.009516806341707706,-0.008272044360637665
1717857925555152000,0.10415185546875,0.004046939779073,0.009268599562346935,-0.007283479440957308
1717857925565193000,0.11419287109375,0.003567304229363799,0.009738114662468433,-0.00646828580647707
1717857925575234000,0.124234130859375,0.003707652911543846,0.00869175884872675,-0.005763879511505365
1717857925585273900,0.13427392578125,0.005104747135192156,0.010331466794013977,-0.006075469311326742
1717857925595315000,0.14431494140625,0.004081028047949076,0.01056156400591135,-0.0054275221191346645
1717857925605356000,0.15435595703125,0.0025864620693027973,0.008359928615391254,-0.004836833104491234
1717857925615396900,0.16439697265625,0.0028879318851977587,0.008507734164595604,-0.007377754896879196
1717857925625436700,0.174436767578125,0.003177950158715248,0.009206547401845455,-0.00506826164200902
1717857925635477800,0.184477783203125,0.003148389048874378,0.008961536921560764,-0.007122357841581106
1717857925645518800,0.194518798828125,0.0052200620993971825,0.00936127733439207,-0.004965197294950485
1717857925655559700,0.2045595703125,0.004614459350705147,0.011178618296980858,-0.007531419396400452
1717857925665599700,0.214599853515625,0.004504736978560686,0.010047041811048985,-0.006461894139647484
1717857925675640800,0.224640869140625,0.003919374197721481,0.006425142288208008,-0.007622499484568834
1717857925685682000,0.234681884765625,0.003343332326039672,0.008716792799532413,-0.005007275380194187
1717857925695722800,0.24472265625,0.006339122075587511,0.009178051725029945,-0.005819805897772312
1717857925705762800,0.2547626953125,0.004584099166095257,0.008232629857957363,-0.006930610164999962
1717857925715804000,0.264803955078125,0.003482881933450699,0.009035306982696056,-0.006125270389020443
1717857925725844700,0.2748447265625,0.005077050067484379,0.009909089654684067,-0.006072539836168289
1717857925735885800,0.2848857421875,0.004859469830989838,0.009091765619814396,-0.005786782596260309
1717857925745926000,0.29492578125,0.003824033075943589,0.00812157616019249,-0.006490389816462994
1717857925755967000,0.304967041015625,0.005077050067484379,0.008871521800756454,-0.0067905280739068985
1717857925766007800,0.3150078125,0.00398595305159688,0.006914631463587284,-0.00577719509601593
1717857925776049000,0.325048828125,0.00449781259521842,0.007561779581010342,-0.006097307428717613
1717857925786089000,0.3350888671875,0.003442401997745037,0.0096286591142416,-0.006317018065601587
1717857925796130000,0.345130126953125,0.004252802114933729,0.009104815311729908,-0.006031260825693607
1717857925806171000,0.3551708984375,0.004507666453719139,0.008381234481930733,-0.005805691238492727
1717857925816210700,0.365210693359375,0.004057059530168772,0.010409764014184475,-0.006618754006922245
1717857925826252000,0.375251953125,0.005330849438905716,0.00905341561883688,-0.006628075148910284
1717857925836292900,0.38529296875,0.004031759686768055,0.009441172704100609,-0.004747084807604551
1717857925846334000,0.395333984375,0.003187004942446947,0.008267783559858799,-0.007016364019364119
1717857925856373800,0.405373779296875,0.003869839245453477,0.009125321172177792,-0.005447762086987495
1717857925866414800,0.415414794921875,0.003581685246899724,0.008497614413499832,-0.005844040773808956
1717857925876455700,0.42545556640625,0.005516471806913614,0.009673932567238808,-0.005663211923092604
1717857925886496800,0.435496826171875,0.003825897118076682,0.008073639124631882,-0.00586721021682024
1717857925896536800,0.445536865234375,0.004328169394284487,0.008504805155098438,-0.0064981128089129925
1717857925906578000,0.455577880859375,0.005005144979804754,0.010066215880215168,-0.005863748025149107
1717857925916618800,0.46561865234375,0.00515907583758235,0.010027067735791206,-0.006855775602161884
1717857925926659800,0.475659912109375,0.002255164785310626,0.008556736633181572,-0.006864564027637243
1717857925936700000,0.485699951171875,0.004655738361179829,0.00854342058300972,-0.00720464950427413
1717857925946741000,0.495740966796875,0.0023904533591121435,0.008640892803668976,-0.005910086911171675
1717857925956781800,0.50578173828125,0.003236006945371628,0.009328787215054035,-0.006699447985738516
1717857925966823000,0.515822998046875,0.003984888084232807,0.009154349565505981,-0.005597165785729885
1717857925976863000,0.525863037109375,0.004737763665616512,0.007740477565675974,-0.006598780397325754
1717857925986903800,0.53590380859375,0.003582217963412404,0.008712264709174633,-0.0067543089389801025
1717857925996945000,0.54594482421875,0.003945206757634878,0.009338374249637127,-0.0051625375635921955
1717857926006986000,0.555986083984375,0.003968109842389822,0.008554872125387192,-0.006065615452826023
1717857926017026000,0.566026123046875,0.002493784064427018,0.008052866905927658,-0.005785717628896236
1717857926027067000,0.57606689453125,0.00421232171356678,0.007769239600747824,-0.006923419889062643
1717857926037108000,0.58610791015625,0.004826446995139122,0.009060340002179146,-0.004978246986865997
1717857926047149000,0.596149169921875,0.004605670925229788,0.009497098624706268,-0.006607568822801113
1717857926057188900,0.60618896484375,0.0017382452497258782,0.009265136905014515,-0.0050687943585217
1717857926067229700,0.616229736328125,0.004627774935215712,0.00929336715489626,-0.005495432764291763
1717857926077270800,0.626270751953125,0.003677825443446636,0.008570585399866104,-0.005503954831510782
1717857926087312000,0.636311767578125,0.004027764778584242,0.009485913440585136,-0.005514607764780521
1717857926097351700,0.6463515625,0.005417136009782553,0.009138903580605984,-0.005803560372442007
1717857926107392800,0.656392822265625,0.0027840686962008476,0.00939110480248928,-0.006196376867592335
1717857926117433900,0.666433837890625,0.0029710223898291588,0.00911626685410738,-0.008126902393996716
1717857926127474700,0.676474609375,0.004006193019449711,0.008629441261291504,-0.0051508196629583836
1717857926137514800,0.6865146484375,0.001609614584594965,0.008018777705729008,-0.0054453653283417225
1717857926147555800,0.696555908203125,0.004539624322205782,0.008993761613965034,-0.006352171767503023
1717857926157597000,0.706596923828125,0.004863731097429991,0.00984277669340372,-0.006084790453314781
1717857926167637800,0.7166376953125,0.0041340249590575695,0.008334096521139145,-0.004742290824651718
1717857926177677800,0.726677734375,0.003983556292951107,0.00866006687283516,-0.004884503781795502
1717857926187719000,0.736718994140625,0.005062935408204794,0.008474977687001228,-0.004912200383841991
1717857926197759700,0.746759765625,0.004596882499754429,0.009578591212630272,-0.005774265620857477
1717857926207800800,0.75680078125,0.004882373381406069,0.009135707281529903,-0.006203833501785994
1717857926217841000,0.7668408203125,0.003929493948817253,0.008761267177760601,-0.0065172878094017506
1717857926227882000,0.776882080078125,0.005539907608181238,0.008407599292695522,-0.005916478578001261
1717857926237922800,0.7869228515625,0.003299656556919217,0.009806557558476925,-0.006703176535665989
1717857926247964000,0.7969638671875,0.0034373418893665075,0.008835303597152233,-0.005330849438905716
1717857926258004000,0.80700390625,0.0029854036401957273,0.010476343333721161,-0.006583866663277149
1717857926268045000,0.817045166015625,0.004775314126163721,0.009801231324672699,-0.005873601883649826
1717857926278086000,0.8270859375,0.0032890038564801216,0.00833729188889265,-0.005803294479846954
1717857926288127000,0.837126953125,0.004061320796608925,0.009011871181428432,-0.005642172880470753
1717857926298166800,0.847166748046875,0.00330285239033401,0.009484848007559776,-0.007498928811401129
1717857926308208000,0.8572080078125,0.0040975394658744335,0.008531969040632248,-0.005388107616454363
1717857926318249200,0.867249267578125,0.0062453788705170155,0.009126386605203152,-0.004881307948380709
1717857926328290300,0.877290283203125,0.0046299053356051445,0.009034241549670696,-0.0070824106223881245
1717857926338330000,0.887330078125,0.003180346917361021,0.007931958884000778,-0.006073871627449989
1717857926348371000,0.897370849609375,0.005421929527074099,0.01008246187120676,-0.006117014680057764
1717857926358412000,0.907412109375,0.005051750224083662,0.010038252919912338,-0.00603498937562108
1717857926368453000,0.917453125,0.004129497334361076,0.009184976108372211,-0.00458676228299737
1717857926378493200,0.9274931640625,0.0040916805155575275,0.009530121460556984,-0.006298642139881849
1717857926388534000,0.937533935546875,0.004607801325619221,0.010585532523691654,-0.00490154791623354
1717857926398575000,0.9475751953125,0.0031342741567641497,0.00812210887670517,-0.005359877832233906
1717857926408616200,0.9576162109375,0.003428287338465452,0.010034791193902493,-0.006253368686884642
1717857926418656000,0.967656005859375,0.004687163513153791,0.009313873015344143,-0.005980127956718206
1717857926428697000,0.977697021484375,0.00381471193395555,0.00893996562808752,-0.005539641249924898
1717857926438738200,0.98773828125,0.0025752766523510218,0.008161257021129131,-0.0044022053480148315
1717857926448779000,0.997779052734375,0.003709783311933279,0.009335977025330067,-0.004486627411097288
1717857926458819000,1.007819091796875,0.002734533743932843,0.01062334980815649,-0.005378520116209984
1717857926468860200,1.017860107421875,0.0029710223898291588,0.007462976034730673,-0.0065106297843158245
1717857926478901200,1.0279013671875,0.0022892532870173454,0.008986837230622768,-0.005600095260888338
1717857926488942000,1.037942138671875,0.0038125813007354736,0.009414806962013245,-0.0038626487366855145
1717857926498982100,1.047982177734375,0.0023875238839536905,0.00959723349660635,-0.0051659997552633286
1717857926509023200,1.058023193359375,0.0037523938808590174,0.008464058861136436,-0.0056741307489573956
1717857926519064000,1.06806396484375,0.002231995342299342,0.008686698973178864,-0.005922870244830847
1717857926529105200,1.078105224609375,0.0031909996178001165,0.010758105665445328,-0.006324741058051586
1717857926539145200,1.088145263671875,0.002356364857405424,0.009750098921358585,-0.005339105147868395
1717857926549186300,1.098186279296875,0.002082858234643936,0.008723716251552105,-0.006198773626238108
1717857926559227100,1.10822705078125,0.0028597023338079453,0.0103770075365901,-0.0065678879618644714
1717857926569268200,1.118268310546875,0.003736681304872036,0.008888565935194492,-0.004683168604969978
1717857926579308000,1.12830810546875,0.004625111818313599,0.00929256808012724,-0.00487251952290535
1717857926589349000,1.13834912109375,0.004076766781508923,0.010004963725805283,-0.005530053749680519
1717857926599390000,1.148389892578125,0.001874332781881094,0.00942093227058649,-0.006130064371973276
1717857926609431000,1.15843115234375,0.004347078036516905,0.008800415322184563,-0.00509755639359355
1717857926619471000,1.16847119140625,0.0037289580795913935,0.00788695178925991,-0.004644286818802357
1717857926629512200,1.17851220703125,0.003650128608569503,0.007987619377672672,-0.006042978726327419
1717857926639553000,1.188552978515625,0.004519384354352951,0.009009207598865032,-0.005403287708759308
1717857926649594000,1.198593994140625,0.00421418622136116,0.009890713728964329,-0.005254949443042278
1717857926659634200,1.20863427734375,0.002701244316995144,0.008942628279328346,-0.005362008698284626
1717857926669675000,1.218675048828125,0.004023503512144089,0.00944969430565834,-0.005181446205824614
1717857926679716000,1.228716064453125,0.0049438923597335815,0.00938950665295124,-0.004989964887499809
1717857926689757200,1.238757080078125,0.003961452282965183,0.009966347366571426,-0.005788114387542009
1717857926699797200,1.24879736328125,0.0032804817892611027,0.008361526764929295,-0.0038432078436017036
1717857926709838000,1.258838134765625,0.00401737866923213,0.009736516512930393,-0.004481833893805742
1717857926719879200,1.268879150390625,0.002491120947524905,0.008310660719871521,-0.005871471017599106
1717857926729920300,1.278920166015625,0.0028639633674174547,0.009220129810273647,-0.006657369900494814
1717857926739960300,1.288960205078125,0.0040972731076180935,0.009586581028997898,-0.0060933125205338
1717857926750001200,1.299001220703125,0.003323092358186841,0.009542904794216156,-0.006445382256060839
1717857926760042200,1.309042236328125,0.005024319514632225,0.009575129486620426,-0.006892526987940073
1717857926770083000,1.3190830078125,0.0041153826750814915,0.009592439979314804,-0.006474677007645369
1717857926780123000,1.329122802734375,0.003712712787091732,0.00854342058300972,-0.005861883983016014
1717857926790164200,1.339164306640625,0.00395772373303771,0.008607602678239346,-0.005938849411904812
1717857926800205300,1.349205322265625,0.0031273500062525272,0.009749832563102245,-0.004056526813656092
1717857926810246100,1.35924609375,0.0031246868893504143,0.008787100203335285,-0.00618306128308177
1717857926820286000,1.369285888671875,0.005240834783762693,0.010267551057040691,-0.004935902543365955
1717857926830327000,1.3793271484375,0.004609931726008654,0.008296279236674309,-0.005570267792791128
1717857926840368000,1.3893681640625,0.004251203965395689,0.009623066522181034,-0.005929794628173113
1717857926850409000,1.399408935546875,0.0031284152064472437,0.009544502943754196,-0.0057100835256278515
1717857926860449000,1.409448974609375,0.004588892683386803,0.009209743700921535,-0.006494651082903147
1717857926870490000,1.419489990234375,0.004264785908162594,0.009140235371887684,-0.005816077347844839
1717857926880531200,1.42953125,0.003790477057918906,0.011603925377130508,-0.00538357999175787
1717857926890572000,1.439572021484375,0.003570233704522252,0.011715511791408062,-0.004963333252817392
1717857926900612000,1.449612060546875,0.004147606901824474,0.01065211184322834,-0.0057281930930912495
1717857926910653200,1.459653076171875,0.0037766287568956614,0.007603857666254044,-0.0046842340379953384
1717857926920694000,1.469694091796875,0.005251753609627485,0.008489624597132206,-0.004880242515355349
1717857926930735000,1.479735107421875,0.0041007352992892265,0.008286425843834877,-0.008540225215256214
1717857926940775200,1.489775146484375,0.0037119139451533556,0.00857644435018301,-0.005606486462056637
1717857926950816300,1.499816162109375,0.005481318105012178,0.008194812573492527,-0.005276254843920469
1717857926960857000,1.509857177734375,0.0023901870008558035,0.009578324854373932,-0.005702094174921513
1717857926970898200,1.519898193359375,0.004042678512632847,0.008113586343824863,-0.006067213602364063
1717857926980938200,1.529938232421875,0.006019010208547115,0.008567921817302704,-0.00803049560636282
1717857926990979000,1.53997900390625,0.004021905828267336,0.008723716251552105,-0.0059660132974386215
1717857927001020200,1.550020263671875,0.0049217878840863705,0.009856891818344593,-0.005081044975668192
1717857927011061200,1.560061279296875,0.005142031237483025,0.00911333691328764,-0.0054610781371593475
1717857927021101000,1.57010107421875,0.0024378576781600714,0.009528524242341518,-0.005065065808594227
1717857927031142000,1.580141845703125,0.0025987126864492893,0.009020392782986164,-0.006391586735844612
1717857927041183200,1.590183349609375,0.004056793171912432,0.008652344346046448,-0.0062461779452860355
1717857927051224300,1.600224365234375,0.003154514357447624,0.010072873905301094,-0.0041191112250089645
1717857927061264100,1.61026416015625,0.0037321539130061865,0.009609217755496502,-0.005066663958132267
1717857927071305000,1.620304931640625,0.003284476464614272,0.008594021201133728,-0.004834969062358141
1717857927081346000,1.630345947265625,0.002740126335993409,0.009190302342176437,-0.006726612336933613
1717857927091387100,1.64038720703125,0.00387356779538095,0.009697102010250092,-0.004601409658789635
1717857927101427200,1.65042724609375,0.004624579101800919,0.00842437706887722,-0.006904777605086565
1717857927111468000,1.660468017578125,0.0036514601670205593,0.009193764999508858,-0.005537244491279125
1717857927121509000,1.670509033203125,0.001919340225867927,0.00944916158914566,-0.0046599991619586945
1717857927131550000,1.680550048828125,0.004549478180706501,0.010690727271139622,-0.004178233444690704
1717857927141590000,1.690590087890625,0.00227886694483459,0.009802030399441719,-0.005303685087710619
1717857927151631000,1.700631103515625,0.005056543741375208,0.00703926756978035,-0.00535481795668602
1717857927161672200,1.710672119140625,0.0037832865491509438,0.008525044657289982,-0.0057769292034208775
1717857927171713000,1.720713134765625,0.00424374733120203,0.008990565314888954,-0.004995291121304035
1717857927181753000,1.730753173828125,0.0031433289404958487,0.009606820531189442,-0.006923419889062643
1717857927191794200,1.740794189453125,0.003983822651207447,0.009082444943487644,-0.00589490681886673
1717857927201835300,1.750835205078125,0.004791559185832739,0.010245180688798428,-0.006081328261643648
1717857927211876000,1.7608759765625,0.004463724326342344,0.008858473040163517,-0.006082926411181688
1717857927221917200,1.770917236328125,0.004492752719670534,0.009285643696784973,-0.004748149774968624
1717857927231957200,1.780957275390625,0.0035451999865472317,0.009632387198507786,-0.005369731690734625
1717857927241998000,1.790998046875,0.003614708548411727,0.008697351440787315,-0.00649704784154892
1717857927252039200,1.8010390625,0.0046964846551418304,0.010087521746754646,-0.005409146659076214
1717857927262080300,1.811080322265625,0.0026794064324349165,0.010690993629395962,-0.006616889964789152
1717857927272120000,1.8211201171875,0.004814994987100363,0.010293916799128056,-0.005337507463991642
1717857927282161000,1.831160888671875,0.004811799619346857,0.009268599562346935,-0.004181429278105497
1717857927292202000,1.841201904296875,0.002544117858633399,0.009824400767683983,-0.005898635368794203
1717857927302243300,1.851243408203125,0.002882871776819229,0.009357815608382225,-0.0059961071237921715
1717857927312283100,1.861283203125,0.0028900622855871916,0.008673382923007011,-0.006491721607744694
1717857927322324000,1.871323974609375,0.0031880701426416636,0.008897887542843819,-0.0056831855326890945
1717857927332365000,1.881364990234375,0.003974235150963068,0.009620935656130314,-0.005042695440351963
1717857927342406100,1.89140625,0.0036850159522145987,0.009577525779604912,-0.004671717062592506
1717857927352446000,1.901446044921875,0.002540655666962266,0.008801747113466263,-0.005348959006369114
1717857927362487000,1.911487060546875,0.0043742419220507145,0.008117581717669964,-0.005546565633267164
1717857927372528000,1.921528076171875,0.0037446708884090185,0.009704825468361378,-0.004028031136840582
1717857927382569000,1.93156884765625,0.004889830015599728,0.009004147723317146,-0.0049345712177455425
1717857927392609000,1.941609130859375,0.0020535634830594063,0.010396980680525303,-0.0075756278820335865
1717857927402650000,1.951650146484375,0.0026557042729109526,0.008431834168732166,-0.005681587848812342
1717857927412691200,1.961691162109375,0.004605670925229788,0.008624646812677383,-0.004862665664404631
1717857927422732000,1.97173193359375,0.005607818253338337,0.009283246472477913,-0.005909554194658995
1717857927432772000,1.981772216796875,0.00487358495593071,0.009433981962502003,-0.005674663465470076
1717857927442813200,1.991813232421875,0.0026943201664835215,0.010517888702452183,-0.004883704707026482
1717857927452854300,2.001854248046875,0.003635214874520898,0.008713330142199993,-0.0049063414335250854
1717857927462895000,2.01189501953125,0.0037015276029706,0.009033442474901676,-0.005032042972743511
1717857927472935200,2.02193505859375,0.003796602366492152,0.009888051077723503,-0.0041308291256427765
1717857927482976300,2.031976318359375,0.0043308325111866,0.00803315918892622,-0.008052866905927658
1717857927493017000,2.04201708984375,0.00407570181414485,0.009110674262046814,-0.00600409647449851
1717857927503058200,2.05205810546875,0.0032956618815660477,0.007870972156524658,-0.006691724993288517
1717857927513098000,2.062097900390625,0.003945739474147558,0.010009224526584148,-0.00446931691840291
1717857927523139000,2.07213916015625,0.005501025356352329,0.008414523676037788,-0.006025135517120361
1717857927533180000,2.082179931640625,0.004306331276893616,0.007380684372037649,-0.0064805359579622746
1717857927543221000,2.092220947265625,0.003768905531615019,0.009937585331499577,-0.005090632475912571
1717857927553261000,2.102260986328125,0.0035324168857187033,0.009578857570886612,-0.005531385540962219
1717857927563302100,2.11230224609375,0.0031784826423972845,0.010064085945487022,-0.00455666845664382
1717857927573343000,2.122343017578125,0.0027270768769085407,0.008926383219659328,-0.005023254547268152
1717857927583384000,2.132384033203125,0.0035425368696451187,0.00905900914222002,-0.005888249259442091
1717857927593424100,2.142424072265625,0.00503896689042449,0.009906958788633347,-0.006630471907556057
1717857927603465000,2.15246484375,0.004585430957376957,0.009690443985164165,-0.005655222572386265
1717857927613506000,2.162506103515625,0.003509779926389456,0.009121326729655266,-0.005917810369282961
1717857927623547100,2.172547119140625,0.0033190976828336716,0.009425725787878036,-0.004773183725774288
1717857927633587200,2.182587158203125,0.002977680414915085,0.00977673102170229,-0.006176935974508524
1717857927643628000,2.1926279296875,0.004945756401866674,0.009372462518513203,-0.005730057135224342
1717857927653669000,2.202669189453125,0.003025617217645049,0.00948058720678091,-0.006107160821557045
1717857927663710200,2.212710205078125,0.003483681008219719,0.009462211281061172,-0.005411543417721987
1717857927673751000,2.2227509765625,0.005058408249169588,0.009213471785187721,-0.005876531358808279
1717857927683791000,2.232791015625,0.004763063509017229,0.008951683528721333,-0.005410477984696627
1717857927693832200,2.242832275390625,0.0038365498185157776,0.009751430712640285,-0.006672283634543419
1717857927703873300,2.252873291015625,0.004590757191181183,0.008354069665074348,-0.0067963870242238045
1717857927713914000,2.2629140625,0.003981425892561674,0.009399360977113247,-0.006459231022745371
1717857927723954200,2.2729541015625,0.0033926009200513363,0.008653142489492893,-0.006364422384649515
1717857927733995300,2.282995361328125,0.0035449336282908916,0.008190285414457321,-0.006632602773606777
1717857927744036000,2.2930361328125,0.0035952674224972725,0.009636115282773972,-0.005609150044620037
1717857927754077200,2.3030771484375,0.0025659557431936264,0.008905611000955105,-0.006051767151802778
1717857927764117000,2.313116943359375,0.003865312086418271,0.009373794309794903,-0.005799565929919481
1717857927774158000,2.323157958984375,0.004836300387978554,0.01004917174577713,-0.007122624199837446
1717857927784199000,2.333198974609375,0.003635481232777238,0.009291236288845539,-0.0057646785862743855
1717857927794240000,2.343239990234375,0.004283428192138672,0.008238222450017929,-0.005342300981283188
1717857927804280000,2.353280029296875,0.00412390474230051,0.009631055407226086,-0.006262955721467733
1717857927814321200,2.363321044921875,0.00421365350484848,0.009855560027062893,-0.006552441511303186
1717857927824362000,2.373362060546875,0.004151601810008287,0.008522115647792816,-0.0054941014386713505
1717857927834403000,2.383403076171875,0.004151335451751947,0.009664079174399376,-0.005110872443765402
1717857927844443100,2.393443115234375,0.004226436838507652,0.009875800460577011,-0.005714611150324345
1717857927854484000,2.40348388671875,0.004430168308317661,0.008627044036984444,-0.005605954211205244
1717857927864525000,2.413525146484375,0.003910053055733442,0.008944492787122726,-0.006090649403631687
1717857927874566100,2.423566162109375,0.003822967642918229,0.009503223933279514,-0.007186274044215679
1717857927884606200,2.433606201171875,0.004659732803702354,0.009377522394061089,-0.007677893154323101
1717857927894647000,2.44364697265625,0.00401551416143775,0.012065984308719635,-0.006045908201485872
1717857927904688000,2.453688232421875,0.005252019967883825,0.00942066591233015,-0.004899683874100447
1717857927914729200,2.463729248046875,0.004144677426666021,0.007958324626088142,-0.007418501656502485
1717857927924769300,2.473769287109375,0.003882622579112649,0.009217200800776482,-0.008577775210142136
1717857927934810000,2.48381005859375,0.00395825644955039,0.008246212266385555,-0.006207295693457127
1717857927944851200,2.493851318359375,0.004065315239131451,0.010085657238960266,-0.005972671322524548
1717857927954892000,2.50389208984375,0.004249606281518936,0.010304835624992847,-0.004509796854108572
1717857927964932000,2.51393212890625,0.005378786474466324,0.007124488707631826,-0.005675728898495436
1717857927974973200,2.52397314453125,0.0028597023338079453,0.006987335626035929,-0.005142830312252045
1717857927985014300,2.53401416015625,0.004370247479528189,0.010184460319578648,-0.005478122271597385
1717857927995055000,2.54405517578125,0.003969175275415182,0.010523214936256409,-0.006344182416796684
1717857928005095000,2.554094970703125,0.004306064918637276,0.009393768385052681,-0.004487692844122648
1717857928015136000,2.564135986328125,0.004351338837295771,0.008372978307306767,-0.0076331524178385735
1717857928025177000,2.574177001953125,0.003463174682110548,0.007845140062272549,-0.005651760380715132
1717857928035218000,2.584218017578125,0.003049852093681693,0.007227020338177681,-0.00663473317399621
1717857928045259000,2.594259033203125,0.003640541108325124,0.009442769922316074,-0.007017163094133139
1717857928055299000,2.604299072265625,0.003575559938326478,0.009787916205823421,-0.003976099658757448
1717857928065340200,2.614340087890625,0.003863980295136571,0.008358065038919449,-0.005430984310805798
1717857928075381000,2.624381103515625,0.004260791465640068,0.007921040058135986,-0.005277319811284542
1717857928085422000,2.634422119140625,0.004108192399144173,0.009498164057731628,-0.0046179210767149925
1717857928095462100,2.644462158203125,0.005087170284241438,0.008501342497766018,-0.006976150441914797
1717857928105503000,2.6545029296875,0.004466121084988117,0.00956900417804718,-0.004975317511707544
1717857928115544000,2.6645439453125,0.005083974450826645,0.009799367748200893,-0.005376921966671944
1717857928125585200,2.674585205078125,0.00404507527127862,0.008727445267140865,-0.006517820525914431
1717857928135625200,2.684625244140625,0.003623763332143426,0.009486179798841476,-0.005251487251371145
1717857928145666000,2.694666015625,0.0041369544342160225,0.00920574925839901,-0.005092762876302004
1717857928155707100,2.70470703125,0.0034061830956488848,0.010862501338124275,-0.006472280248999596
1717857928165748200,2.714748291015625,0.0041497377678751945,0.009602293372154236,-0.007406517397612333
1717857928175788300,2.724788330078125,0.00538331363350153,0.00953864399343729,-0.006685866042971611
1717857928185829000,2.7348291015625,0.003733485471457243,0.00938977301120758,-0.00452923821285367
1717857928195870200,2.7448701171875,0.004257329273968935,0.009880327619612217,-0.004711132030934095
1717857928205911000,2.7549111328125,0.004653607495129108,0.007315703667700291,-0.007198524195700884
1717857928215951000,2.764951171875,0.003748665563762188,0.00785339530557394,-0.006455768831074238
1717857928225992200,2.7749921875,0.00236328924074769,0.009798835031688213,-0.006734868045896292
1717857928236033300,2.785033203125,0.001740642124786973,0.010921889916062355,-0.005061337724328041
1717857928246074000,2.79507421875,0.004504204262048006,0.009425992146134377,-0.005378253757953644
1717857928256114000,2.805114013671875,0.0034043188206851482,0.007988683879375458,-0.006715160794556141
1717857928266155000,2.815155029296875,0.0054664043709635735,0.008261924609541893,-0.005209675524383783
1717857928276196000,2.825196044921875,0.004197141621261835,0.007878162898123264,-0.006417152937501669
1717857928286237000,2.83523681640625,0.004071174189448357,0.009194563142955303,-0.004126035608351231
1717857928296278000,2.845278076171875,0.004214984830468893,0.00868989434093237,-0.0046666571870446205
1717857928306318600,2.855318603515625,0.004305799026042223,0.008521050214767456,-0.006405435036867857
1717857928316359400,2.865359375,0.003011502558365464,0.009853695519268513,-0.005514075048267841
1717857928326400500,2.875400390625,0.0033451966010034084,0.009288839064538479,-0.00472631212323904
1717857928336441600,2.885441650390625,0.005345496814697981,0.009327189065515995,-0.005875732284039259
1717857928346481400,2.8954814453125,0.004081294406205416,0.009163138456642628,-0.006287723314017057
1717857928356522200,2.905522216796875,0.0035513252951204777,0.007165235001593828,-0.0059873186983168125
1717857928366563300,2.915563232421875,0.0028706213925033808,0.009014533832669258,-0.006594785954803228
1717857928376604400,2.9256044921875,0.0043563987128436565,0.009355684742331505,-0.005215002223849297
1717857928386644500,2.93564453125,0.004668521229177713,0.008847021497786045,-0.005615807604044676
1717857928396685300,2.945685302734375,0.0028900622855871916,0.008888565935194492,-0.005618470720946789
1717857928406726400,2.955726318359375,0.0028218855150043964,0.009249957278370857,-0.00440992834046483
1717857928416767200,2.965767333984375,0.004253867082297802,0.009318400174379349,-0.006061887368559837
1717857928426807300,2.975807373046875,0.00404667342081666,0.010071542114019394,-0.0059660132974386215
1717857928436848400,2.985848388671875,0.004532699938863516,0.008103200234472752,-0.0062219430692493916
1717857928446889500,2.995889404296875,0.0037345506716519594,0.008612928912043571,-0.004148139618337154
1717857928456930300,3.005930419921875,0.0052115400321781635,0.00833942275494337,-0.0056925066746771336
1717857928466970400,3.015970458984375,0.003621100215241313,0.009454221464693546,-0.006485063582658768
1717857928477011500,3.026011474609375,0.003847468877211213,0.009169263765215874,-0.005376921966671944
1717857928487052500,3.036052490234375,0.006101568229496479,0.0084864292293787,-0.006864297669380903
1717857928497093400,3.04609326171875,0.005798234138637781,0.008794822730123997,-0.006198773626238108
1717857928507133400,3.056133544921875,0.005215002223849297,0.008327172137796879,-0.0060171461664140224
1717857928517174500,3.066174560546875,0.004747617058455944,0.010178068652749062,-0.005830991081893444
1717857928527215400,3.07621533203125,0.0035444011446088552,0.009609217755496502,-0.005067729391157627
1717857928537256400,3.08625634765625,0.003114833263680339,0.009634784422814846,-0.006897054612636566
1717857928547297500,3.096297607421875,0.0035302862524986267,0.007783088367432356,-0.006685333326458931
1717857928557337600,3.106337646484375,0.005275988485664129,0.009159144014120102,-0.004979046061635017
1717857928567378400,3.11637841796875,0.0030064424499869347,0.009066731669008732,-0.005603291094303131
1717857928577419500,3.12641943359375,0.005625395104289055,0.008831308223307133,-0.0060203419998288155
1717857928587460600,3.136460693359375,0.0038746329955756664,0.008728510700166225,-0.004592088516801596
1717857928597500400,3.14650048828125,0.003820038167759776,0.008859803900122643,-0.006892793346196413
1717857928607541200,3.156541259765625,0.0030064424499869347,0.010409231297671795,-0.006674680393189192
1717857928617582300,3.166582275390625,0.005322593729943037,0.009621202014386654,-0.006055762059986591
1717857928627623400,3.17662353515625,0.004483697935938835,0.010236125439405441,-0.004352137912064791
1717857928637663500,3.18666357421875,0.003593935864046216,0.009453688748180866,-0.005321261938661337
1717857928647704300,3.196704345703125,0.003184075467288494,0.008458998054265976,-0.0049129994586110115
1717857928657745400,3.206745361328125,0.0028333370573818684,0.008292817510664463,-0.005343632772564888
1717857928667786200,3.2167861328125,0.0031150993891060352,0.010523481294512749,-0.00538357999175787
1717857928677826300,3.226826416015625,0.004318848252296448,0.009606820531189442,-0.0073204971849918365
1717857928687867400,3.236867431640625,0.002240783767774701,0.009072856977581978,-0.004560663364827633
1717857928697908500,3.246908447265625,0.0052144695073366165,0.008988169021904469,-0.005361742340028286
1717857928707949300,3.25694921875,0.0035718316212296486,0.008472846820950508,-0.006072806194424629
1717857928717990400,3.266990478515625,0.004065048880875111,0.00968458503484726,-0.004824049770832062
1717857928728030500,3.277030517578125,0.0032626385800540447,0.00821052584797144,-0.0046514770947396755
1717857928738071600,3.287071533203125,0.0028210864402353764,0.007770571392029524,-0.006066148169338703
1717857928748112400,3.2971123046875,0.004035754129290581,0.009012136608362198,-0.005849633365869522
1717857928758153500,3.307153564453125,0.003442401997745037,0.007939149625599384,-0.006307164207100868
1717857928768193500,3.317193603515625,0.0036067189648747444,0.00762889115139842,-0.006629939656704664
1717857928778234400,3.327234375,0.005284244194626808,0.008655273355543613,-0.006215285509824753
1717857928788275500,3.337275390625,0.005345763172954321,0.009399627335369587,-0.006656571291387081
1717857928798316500,3.347316650390625,0.005368133541196585,0.00930108968168497,-0.004719387739896774
1717857928808356600,3.357356689453125,0.003055977402254939,0.009184709750115871,-0.004999818746000528
1717857928818397400,3.3673974609375,0.0024647556710988283,0.009077650494873524,-0.004826713353395462
1717857928828438500,3.3774384765625,0.004384628497064114,0.008040616288781166,-0.005315669346600771
1717857928838479600,3.387479736328125,0.0041401502676308155,0.009520534425973892,-0.006401440128684044
1717857928848519400,3.39751953125,0.003658917034044862,0.008794556371867657,-0.00541394017636776
1717857928858560300,3.407560302734375,0.006081860978156328,0.008489890955388546,-0.0059244679287076
1717857928868601300,3.417601318359375,0.0046847667545080185,0.009193498641252518,-0.007453122641891241
1717857928878642400,3.427642333984375,0.00395799009129405,0.008476841263473034,-0.005338040180504322
1717857928888683300,3.437683349609375,0.0028122980147600174,0.010015616193413734,-0.003454386256635189
1717857928898723300,3.447723388671875,0.004181961994618177,0.010394051671028137,-0.004546282347291708
1717857928908764400,3.457764404296875,0.0026072347536683083,0.008185225538909435,-0.006670952308923006
1717857928918805200,3.46780517578125,0.0035065840929746628,0.007083475589752197,-0.008461661636829376
1717857928928846300,3.477846435546875,0.00321896281093359,0.007735417690128088,-0.0065508438274264336
1717857928938886400,3.487886474609375,0.0032778186723589897,0.00974450632929802,-0.006325540132820606
1717857928948927500,3.497927490234375,0.003938282374292612,0.008893626742064953,-0.005003813188523054
1717857928958968300,3.50796826171875,0.00318966805934906,0.007992945611476898,-0.00643659383058548
1717857928969009400,3.518009521484375,0.003620833856984973,0.008162056095898151,-0.006991064175963402
1717857928979049500,3.528049560546875,0.0037792918737977743,0.008014250546693802,-0.006352171767503023
1717857928989090600,3.538090576171875,0.005015531089156866,0.009517072699964046,-0.005815012380480766
1717857928999131400,3.54813134765625,0.002921754028648138,0.008822253905236721,-0.006714628078043461
1717857929009172500,3.55817236328125,0.004348409362137318,0.008649947121739388,-0.006087986286729574
1717857929019212500,3.568212646484375,0.0034908715169876814,0.008228635415434837,-0.006683735176920891
1717857929029253400,3.57825341796875,0.0027076357509940863,0.009616941213607788,-0.005420598201453686
1717857929039294500,3.58829443359375,0.004151335451751947,0.009010805748403072,-0.004806739278137684
1717857929049335600,3.59833544921875,0.0032655680552124977,0.010041715577244759,-0.004777977243065834
1717857929059376400,3.60837646484375,0.0042144525796175,0.007860586047172546,-0.005904760677367449
1717857929069416400,3.61841650390625,0.0033776871860027313,0.008448611944913864,-0.0064989118836820126
1717857929079457500,3.62845751953125,0.0038988678716123104,0.009468070231378078,-0.005625128746032715
1717857929089498600,3.63849853515625,0.003662378992885351,0.011197526939213276,-0.005547364708036184
1717857929099539500,3.64853955078125,0.003477555699646473,0.008984706364572048,-0.005462143570184708
1717857929109579300,3.658579345703125,0.005052549298852682,0.008481635712087154,-0.0067961206659674644
1717857929119620400,3.668620361328125,0.0013608753215521574,0.009042230434715748,-0.006878412328660488
1717857929129661400,3.678661376953125,0.003796069882810116,0.009385512210428715,-0.005633650813251734
1717857929139702300,3.688702392578125,0.0032527849543839693,0.009001217782497406,-0.004334827419370413
1717857929149742300,3.698742431640625,0.003912183456122875,0.009252088144421577,-0.006418484263122082
1717857929159783400,3.708783447265625,0.005081044975668192,0.009385245852172375,-0.005647233221679926
1717857929169824300,3.71882421875,0.003313771216198802,0.009651029482483864,-0.006337790749967098
1717857929179865300,3.728865234375,0.005110073368996382,0.009161273948848248,-0.005565740168094635
1717857929189905400,3.738905517578125,0.004773183725774288,0.010128001682460308,-0.00634817685931921
1717857929199946500,3.748946533203125,0.004127100575715303,0.009691243059933186,-0.0049465554766356945
1717857929209987300,3.7589873046875,0.0044144559651613235,0.008865396492183208,-0.005919141694903374
1717857929220028400,3.7690283203125,0.0032107068691402674,0.010813765227794647,-0.00583844818174839
1717857929230069500,3.779069580078125,0.003311108099296689,0.010292851366102695,-0.005153216887265444
1717857929240109600,3.789109619140625,0.003328418591991067,0.010455303825438023,-0.005053614266216755
1717857929250150400,3.799150390625,0.003370763035491109,0.007523163687437773,-0.0073508573696017265
1717857929260191500,3.80919140625,0.004202468320727348,0.00851758848875761,-0.005811550188809633
1717857929270232300,3.819232421875,0.003796069882810116,0.008665925823152065,-0.005831523798406124
1717857929280272400,3.8292724609375,0.002755040070042014,0.00888084340840578,-0.004895422607660294
1717857929290313500,3.8393134765625,0.004284759983420372,0.008737831376492977,-0.006579872220754623
1717857929300354600,3.8493544921875,0.004351871553808451,0.007468835450708866,-0.005900499876588583
1717857929310395100,3.85939501953125,0.002255431143566966,0.009134376421570778,-0.0060051619075238705
1717857929320435200,3.869435302734375,0.0049215215258300304,0.008901615627110004,-0.005122590344399214
1717857929330476300,3.879476318359375,0.00233825552277267,0.009877397678792477,-0.006455502472817898
1717857929340517400,3.889517333984375,0.0055031562224030495,0.00821771565824747,-0.004915129859000444
1717857929350558200,3.89955810546875,0.002606169320642948,0.00917672086507082,-0.005742840468883514
1717857929360599300,3.909599365234375,0.004543619230389595,0.010205499827861786,-0.004000334069132805
1717857929370639400,3.919639404296875,0.001841842196881771,0.010424943640828133,-0.007424892857670784
1717857929380680400,3.929680419921875,0.003727626521140337,0.008718123659491539,-0.005880259443074465
1717857929390721300,3.93972119140625,0.00455693481490016,0.00848456472158432,-0.007289072033017874
1717857929400762400,3.949762451171875,0.0037063213530927896,0.00806165486574173,-0.005160407163202763
1717857929410802200,3.95980224609375,0.005025651305913925,0.00986434891819954,-0.006892260629683733
1717857929420843000,3.969843017578125,0.0036541232839226723,0.009558884426951408,-0.0051715923473238945
1717857929430884000,3.979884033203125,0.004847751930356026,0.009326389990746975,-0.005534847732633352
1717857929440925200,3.98992529296875,0.003454386256635189,0.009074987843632698,-0.0051777176558971405
1717857929450965200,3.99996533203125,0.0031164311803877354,0.008872054517269135,-0.0059713395312428474
1717857929461006000,4.010006103515625,0.004800613969564438,0.007463242392987013,-0.0052261874079704285
1717857929471047200,4.020047119140625,0.003867975203320384,0.010309096425771713,-0.006318083498626947
1717857929481088300,4.030088134765625,0.004415254574269056,0.009278719313442707,-0.005411010701209307
1717857929491129000,4.040129150390625,0.0037832865491509438,0.009615875780582428,-0.00669225724413991
1717857929501169200,4.050169189453125,0.0031398669816553593,0.008224107325077057,-0.005500758998095989
1717857929511210200,4.060210205078125,0.003835750976577401,0.010386860929429531,-0.00612420542165637
1717857929521251300,4.070251220703125,0.003692739177495241,0.00902438722550869,-0.005770271178334951
1717857929531292200,4.080292236328125,0.0037952708080410957,0.008045409806072712,-0.005043760873377323
1717857929541332200,4.090332275390625,0.002983539365231991,0.00911386962980032,-0.005941246170550585
1717857929551373300,4.100373291015625,0.0032527849543839693,0.009122125804424286,-0.0051715923473238945
1717857929561414100,4.1104140625,0.004834969062358141,0.009406817145645618,-0.007212372962385416
1717857929571455200,4.120455322265625,0.0027505126781761646,0.009474195539951324,-0.004699147772043943
1717857929581495300,4.130495361328125,0.0027377295773476362,0.00878923013806343,-0.005589708685874939
1717857929591536400,4.140536376953125,0.0036607813090085983,0.009692574851214886,-0.005134574603289366
1717857929601577200,4.1505771484375,0.006025135517120361,0.008717325516045094,-0.006025668233633041
1717857929611618300,4.160618408203125,0.004379302263259888,0.010569021105766296,-0.006742857396602631
1717857929621659400,4.170659423828125,0.0037670412566512823,0.00993332453072071,-0.004797418136149645
1717857929631699200,4.18069921875,0.003863980295136571,0.007953530177474022,-0.006106362212449312
1717857929641740300,4.190740234375,0.002939064521342516,0.00926327332854271,-0.005048820748925209
1717857929651781400,4.200781494140625,0.004816326778382063,0.008905877359211445,-0.006167348474264145
1717857929661822200,4.210822265625,0.0034416031558066607,0.007699198555201292,-0.006448045372962952
1717857929671862000,4.220862060546875,0.0028067054226994514,0.00950775109231472,-0.005885319784283638
1717857929681903000,4.230903076171875,0.0034056503791362047,0.009272061288356781,-0.006640059407800436
1717857929691944200,4.240944091796875,0.0037827540654689074,0.009923737496137619,-0.005943110212683678
1717857929701985000,4.250985107421875,0.0034293525386601686,0.008971656672656536,-0.006159891374409199
1717857929712025000,4.261025146484375,0.0037348170299082994,0.008865396492183208,-0.006094910204410553
1717857929722066200,4.271066162109375,0.004796086810529232,0.00945022702217102,-0.005568137392401695
1717857929732107300,4.281107177734375,0.002621083054691553,0.008844890631735325,-0.004531634971499443
1717857929742148000,4.291148193359375,0.0043651871383190155,0.008757006376981735,-0.0059966398403048515
1717857929752189200,4.301189208984375,0.00487198680639267,0.009380985051393509,-0.006127400789409876
1717857929762229200,4.311229248046875,0.00612313998863101,0.009553025476634502,-0.007346329744905233
1717857929772270000,4.32127001953125,0.003495931625366211,0.009164470247924328,-0.005086104851216078
1717857929782311200,4.331311279296875,0.0023411849979311228,0.008862467482686043,-0.006339122075587511
1717857929792352300,4.341352294921875,0.004540423396974802,0.009014001116156578,-0.006154032424092293
1717857929802392300,4.351392333984375,0.0027422569692134857,0.008695753291249275,-0.006043777801096439
1717857929812433200,4.36143310546875,0.004197407979518175,0.008686166256666183,-0.005155880004167557
1717857929822474200,4.37147412109375,0.004008590243756771,0.009707754477858543,-0.005423794034868479
1717857929832515300,4.381515380859375,0.003540938952937722,0.009870740585029125,-0.004289020784199238
1717857929842555400,4.391555419921875,0.004032026045024395,0.009920274838805199,-0.005694371182471514
1717857929852596200,4.40159619140625,0.0021369203459471464,0.00995995569974184,-0.0048948898911476135
1717857929862637300,4.41163720703125,0.0041313618421554565,0.009810020215809345,-0.004954278469085693
1717857929872678400,4.421678466796875,0.005015264730900526,0.00956767238676548,-0.005285575985908508
1717857929882719200,4.43171923828125,0.003483148291707039,0.009305617772042751,-0.004935370292514563
1717857929892759300,4.44175927734375,0.004290618933737278,0.007880826480686665,-0.00705737667158246
1717857929902800400,4.45180029296875,0.004174504894763231,0.00830746442079544,-0.005279184319078922
1717857929912841200,4.46184130859375,0.004484497010707855,0.008169513195753098,-0.006061621010303497
1717857929922882300,4.47188232421875,0.004107926040887833,0.0088187912479043,-0.006052033510059118
1717857929932922000,4.481922119140625,0.0035420041531324387,0.008407332934439182,-0.005131112411618233
1717857929942963200,4.491963134765625,0.0044080642983317375,0.009051019325852394,-0.004900216590613127
1717857929953004000,4.502004150390625,0.0015757924411445856,0.0073234266601502895,-0.006601976230740547
1717857929963045000,4.512045166015625,0.003484213724732399,0.008340221829712391,-0.006109291687607765
1717857929973086500,4.52208642578125,0.004722317215055227,0.008934905752539635,-0.00475347600877285
1717857929983126300,4.532126220703125,0.0044115264900028706,0.008609467186033726,-0.006472280248999596
1717857929993167000,4.5421669921875,0.005063734482973814,0.008469118736684322,-0.0041212416253983974
1717857930003208200,4.552208251953125,0.005049619823694229,0.00884781964123249,-0.005119927227497101
1717857930013249300,4.562249267578125,0.004640291910618544,0.007399593014270067,-0.005857622716575861
1717857930023289000,4.5722890625,0.0031305458396673203,0.009751430712640285,-0.006125803105533123
1717857930033330200,4.582330078125,0.0026559706311672926,0.008889897726476192,-0.0059779975563287735
1717857930043371300,4.592371337890625,0.003763312939554453,0.008103732950985432,-0.005305549595504999
1717857930053412000,4.602412109375,0.004051200579851866,0.008887501433491707,-0.005862948950380087
1717857930063452200,4.6124521484375,0.004573712591081858,0.009250489994883537,-0.005465871654450893
1717857930073493200,4.6224931640625,0.0033422671258449554,0.009224390611052513,-0.005242698825895786
1717857930083534300,4.632534423828125,0.00452684098854661,0.009369533509016037,-0.004959338344633579
1717857930093575200,4.6425751953125,0.0036099147982895374,0.009265669621527195,-0.0049196574836969376
1717857930103615200,4.652615234375,0.004228833597153425,0.008053931407630444,-0.00487331859767437
1717857930113656300,4.66265625,0.003961718175560236,0.00882038939744234,-0.005606486462056637
1717857930123697400,4.672697509765625,0.0033744913525879383,0.009387909434735775,-0.004278101958334446
1717857930133738200,4.68273828125,0.004138818476349115,0.009267267771065235,-0.006330866366624832
1717857930143779300,4.692779296875,0.004273840691894293,0.008886968716979027,-0.0068243504501879215
1717857930153819400,4.7028193359375,0.003906857222318649,0.009290703572332859,-0.005181712564080954
1717857930163860200,4.712860107421875,0.003850131994113326,0.008678975515067577,-0.0052291168831288815
1717857930173901300,4.7229013671875,0.003909786697477102,0.009617473930120468,-0.00520754512399435
1717857930183942400,4.7329423828125,0.005544435232877731,0.008882175199687481,-0.005318066570907831
1717857930193982200,4.742982177734375,0.004561728797852993,0.009649431332945824,-0.006205964367836714
1717857930204023000,4.75302294921875,0.0046267095021903515,0.00857537891715765,-0.0073407371528446674
1717857930214064000,4.763064208984375,0.003748399205505848,0.008608934469521046,-0.004116980824619532
1717857930224105500,4.77310546875,0.004334827419370413,0.009573531337082386,-0.005073588341474533
1717857930234146300,4.783146240234375,0.004005394410341978,0.008941829204559326,-0.006368417292833328
1717857930244186000,4.79318603515625,0.003739610780030489,0.009336509741842747,-0.005331115797162056
1717857930254227200,4.803227294921875,0.0033923345617949963,0.008102134801447392,-0.0054123420268297195
1717857930264268000,4.81326806640625,0.0036764938849955797,0.009346630424261093,-0.006167348474264145
1717857930274309000,4.82330908203125,0.003263970138505101,0.008563927374780178,-0.006679474376142025
1717857930284349200,4.83334912109375,0.004507133737206459,0.009267001412808895,-0.004874649923294783
1717857930294390300,4.843390380859375,0.003668770659714937,0.010130664333701134,-0.00612420542165637
1717857930304431000,4.85343115234375,0.0034149715211242437,0.007807855494320393,-0.006724481470882893
1717857930314472000,4.863471923828125,0.0037406759802252054,0.009034241549670696,-0.006354568526148796
1717857930324511700,4.87351171875,0.003484213724732399,0.008931709453463554,-0.005334844347089529
1717857930334552800,4.883552734375,0.004222441930323839,0.009649431332945824,-0.00657481187954545
1717857930344593700,4.89359375,0.004190484061837196,0.010004697367548943,-0.006041913293302059
1717857930354634800,4.903634765625,0.004253600724041462,0.00830000825226307,-0.0065314024686813354
1717857930364675800,4.91367578125,0.0037952708080410957,0.00939110480248928,-0.0068144965916872025
1717857930374716000,4.9237158203125,0.0038900794461369514,0.009846772067248821,-0.005410744342952967
1717857930384756700,4.9337568359375,0.0028575719334185123,0.009147691540420055,-0.006499710958451033
1717857930394797800,4.9437978515625,0.0036362800747156143,0.008311193436384201,-0.005421929527074099
1717857930404839000,4.9538388671875,0.0037950044497847557,0.008886436000466347,-0.004758003633469343
1717857930414878700,4.963878662109375,0.003979295492172241,0.008382299914956093,-0.00688959751278162
1717857930424919800,4.973919921875,0.0030029804911464453,0.008971923030912876,-0.004698348697274923
1717857930434961000,4.9839609375,0.0030357372015714645,0.009004946798086166,-0.005292766261845827
1717857930445001700,4.994001708984375,0.004539890680462122,0.008586564101278782,-0.005604356061667204
1717857930455042800,5.004042724609375,0.0032442628871649504,0.00854501873254776,-0.005873601883649826
1717857930465083000,5.014082763671875,0.004310326185077429,0.008841960690915585,-0.005995308049023151
1717857930475124000,5.0241240234375,0.004649613052606583,0.009052351117134094,-0.0044165863655507565
1717857930485164800,5.034164794921875,0.004483697935938835,0.009852364659309387,-0.006991596892476082
1717857930495206000,5.044205810546875,0.004889297299087048,0.010788465850055218,-0.00541314110159874
1717857930505246000,5.054245849609375,0.003978230059146881,0.008840097114443779,-0.004833370912820101
1717857930515287000,5.064287109375,0.004367051646113396,0.008813731372356415,-0.00624058535322547
1717857930525328000,5.074327880859375,0.0033803503029048443,0.008403604850172997,-0.005150287412106991
1717857930535369000,5.084368896484375,0.005371063016355038,0.008236357942223549,-0.0059718722477555275
1717857930545409000,5.094408935546875,0.004050135146826506,0.009326922707259655,-0.004226969089359045
1717857930555449900,5.104449951171875,0.004072239622473717,0.008074171841144562,-0.005922071170061827
1717857930565491000,5.114490966796875,0.003489539958536625,0.009286442771553993,-0.0047028763219714165
1717857930575532000,5.124531982421875,0.002915362361818552,0.008440623059868813,-0.005861351266503334
1717857930585572900,5.13457275390625,0.0029851372819393873,0.009444368071854115,-0.004861334338784218
1717857930595612700,5.14461279296875,0.005233377683907747,0.008970857597887516,-0.004880775231868029
1717857930605653800,5.15465380859375,0.0021912488155066967,0.009836917743086815,-0.006266417913138866
1717857930615694800,5.16469482421875,0.0038157771341502666,0.009587912820279598,-0.004658401478081942
1717857930625735700,5.174735595703125,0.0035902075469493866,0.008863266557455063,-0.0060325926169753075
1717857930635775700,5.184775634765625,0.004175303969532251,0.010068346746265888,-0.005827262531965971
1717857930645816800,5.19481689453125,0.005102883093059063,0.008371380157768726,-0.006590791046619415
1717857930655858000,5.20485791015625,0.0038075214251875877,0.009843842126429081,-0.005309810396283865
1717857930665898800,5.214898681640625,0.00464615086093545,0.0094480961561203,-0.00544456671923399
1717857930675939800,5.22493994140625,0.0038658445701003075,0.008266185410320759,-0.005650694947689772
1717857930685980000,5.23497998046875,0.005221127066761255,0.009988185949623585,-0.0059998356737196445
1717857930696020700,5.245020751953125,0.0036365464329719543,0.008817194029688835,-0.007311975117772818
1717857930706061800,5.255061767578125,0.0033569145016372204,0.00908777117729187,-0.005833920557051897
1717857930716103000,5.26510302734375,0.003757187630981207,0.008675513789057732,-0.006893858779221773
1717857930726143000,5.27514306640625,0.0046818372793495655,0.009548497386276722,-0.005468268413096666
1717857930736183800,5.285183837890625,0.005321528296917677,0.00936101097613573,-0.006337790749967098
1717857930746225000,5.295224853515625,0.0037417414132505655,0.008977781981229782,-0.005126318894326687
1717857930756266000,5.305265869140625,0.003573429537937045,0.009907491505146027,-0.00504083139821887
1717857930766306000,5.31530615234375,0.005596633069217205,0.008983640931546688,-0.004364388529211283
1717857930776347000,5.325346923828125,0.004385427106171846,0.008822786621749401,-0.0060120862908661366
1717857930786388000,5.335387939453125,0.004002997186034918,0.009362342767417431,-0.004546282347291708
1717857930796428800,5.3454287109375,0.005179848056286573,0.00926247425377369,-0.006842992268502712
1717857930806470000,5.355469970703125,0.0033329459838569164,0.008584965951740742,-0.006403570994734764
1717857930816510000,5.365510009765625,0.00301762786693871,0.009829195216298103,-0.006456567905843258
1717857930826551000,5.375551025390625,0.0032477248460054398,0.009468336589634418,-0.005921804811805487
1717857930836591900,5.385591796875,0.004758802708238363,0.01031628716737032,-0.006178533658385277
1717857930846633000,5.395633056640625,0.005365470424294472,0.009387110359966755,-0.00523604080080986
1717857930856672800,5.4056728515625,0.0035169704351574183,0.00866406224668026,-0.0060296631418168545
1717857930866713900,5.4157138671875,0.0032975259236991405,0.007903196848928928,-0.006223008502274752
1717857930876754700,5.425754638671875,0.004023503512144089,0.009754892438650131,-0.005030178464949131
1717857930886795800,5.435795654296875,0.0036453348584473133,0.008610532619059086,-0.005566272884607315
1717857930896836900,5.4458369140625,0.003716174978762865,0.009394034743309021,-0.005864014383405447
1717857930906877000,5.455876953125,0.006335127633064985,0.009693107567727566,-0.006591057404875755
1717857930916917800,5.465917724609375,0.00415346585214138,0.008354868739843369,-0.004927380476146936
1717857930926958800,5.475958740234375,0.00390286254696548,0.00759879732504487,-0.006982275750488043
1717857930936999700,5.485999755859375,0.003947070799767971,0.008734636008739471,-0.006391054019331932
1717857930947039700,5.496039794921875,0.0038434739690274,0.008244081400334835,-0.006462160497903824
1717857930957080800,5.506080810546875,0.004064516630023718,0.008949552662670612,-0.006472546607255936
1717857930967122000,5.516121826171875,0.004433896858245134,0.007686149328947067,-0.0070070428773760796
1717857930977162800,5.526162841796875,0.002871420234441757,0.008993495255708694,-0.00632048025727272
1717857930987202800,5.536202880859375,0.005564941558986902,0.009354885667562485,-0.004290352575480938
1717857930997244000,5.546243896484375,0.004307130351662636,0.009285910055041313,-0.00683047529309988
1717857931007285000,5.556284912109375,0.0034533210564404726,0.009534383192658424,-0.005853361915796995
1717857931017325800,5.566325927734375,0.0029119004029780626,0.00788721814751625,-0.0055090151727199554
1717857931027367000,5.576366943359375,0.003762513864785433,0.010350908152759075,-0.00621129060164094
1717857931037407000,5.586406982421875,0.004295945167541504,0.008274175226688385,-0.005447762086987495
1717857931047447800,5.59644775390625,0.0024943165481090546,0.00872265174984932,-0.005617139395326376
1717857931057489000,5.606489013671875,0.005071191117167473,0.00936181005090475,-0.005478122271597385
1717857931067530000,5.616530029296875,0.0033337450586259365,0.008522914722561836,-0.004304733593016863
1717857931077570000,5.626570068359375,0.0035534559283405542,0.008716526441276073,-0.004713262431323528
1717857931087611000,5.63661083984375,0.0026615632232278585,0.009681123308837414,-0.005364405456930399
1717857931097652000,5.64665185546875,0.0036338833160698414,0.010265154764056206,-0.006645651999861002
1717857931107693000,5.656693115234375,0.00281975488178432,0.009133044630289078,-0.005917544011026621
1717857931117734000,5.66673388671875,0.0038280277512967587,0.007749265991151333,-0.0065079666674137115
1717857931127773700,5.676773681640625,0.002671150490641594,0.008860602974891663,-0.006962568499147892
1717857931137814800,5.686814697265625,0.004793690051883459,0.00806378573179245,-0.0054845139384269714
1717857931147856000,5.69685595703125,0.004500209353864193,0.008557535707950592,-0.005221393425017595
1717857931157896700,5.706896728515625,0.0041731735691428185,0.00866006687283516,-0.0048424256965518
1717857931167936800,5.716936767578125,0.003781156148761511,0.00869069341570139,-0.005850964691489935
1717857931177977900,5.726977783203125,0.0043830303475260735,0.008943960070610046,-0.006139385048300028
1717857931188018700,5.737018798828125,0.0025097629986703396,0.008359662257134914,-0.006476275157183409
1717857931198059800,5.747059814453125,0.0038655782118439674,0.0102566322311759,-0.0057289921678602695
1717857931208100900,5.757100830078125,0.0038248319178819656,0.008744223043322563,-0.005563609767705202
1717857931218141000,5.767140869140625,0.004759068600833416,0.009754626080393791,-0.004658934194594622
1717857931228181800,5.777181640625,0.0037526602391153574,0.009009207598865032,-0.006159092765301466
1717857931238222800,5.787222900390625,0.003981692250818014,0.009556753560900688,-0.0057479003444314
1717857931248264000,5.797263916015625,0.003876230912283063,0.00953864399343729,-0.005004878621548414
1717857931258304000,5.807303955078125,0.003566771512851119,0.008012119680643082,-0.007529555354267359
1717857931268344800,5.8173447265625,0.003437075763940811,0.009127718396484852,-0.004991828929632902
1717857931278386000,5.827385986328125,0.004366518929600716,0.008986837230622768,-0.006298109423369169
1717857931288426800,5.8374267578125,0.004840828012675047,0.008824650198221207,-0.006403836887329817
1717857931298467800,5.8474677734375,0.004819256253540516,0.009583651088178158,-0.007300789933651686
1717857931308508200,5.857508056640625,0.005253085400909185,0.009534915909171104,-0.00625975988805294
1717857931318549200,5.86754931640625,0.002731071785092354,0.00902598537504673,-0.0056983656249940395
1717857931328590000,5.877590087890625,0.004591555800288916,0.008549545891582966,-0.005537777207791805
1717857931338631200,5.887631103515625,0.003871171036735177,0.008914398960769176,-0.00675271125510335
1717857931348671200,5.897671142578125,0.004533765371888876,0.008473379537463188,-0.004742024466395378
1717857931358712300,5.90771240234375,0.003319630166515708,0.009317069314420223,-0.005530852824449539
1717857931368753200,5.917753173828125,0.003347060875967145,0.00944969430565834,-0.005908222869038582
1717857931378794200,5.927794189453125,0.005184908397495747,0.009255549870431423,-0.00640863087028265
1717857931388835000,5.9378349609375,0.005277852527797222,0.008526376448571682,-0.0049042110331356525
1717857931398875100,5.947875244140625,0.0035052525345236063,0.008777512237429619,-0.00606508320197463
1717857931408916200,5.957916259765625,0.005305283237248659,0.009388442151248455,-0.0062403189949691296
1717857931418957300,5.967957275390625,0.0036996633280068636,0.010271545499563217,-0.006850715726613998
1717857931428998100,5.977998046875,0.0037028591614216566,0.008416388183832169,-0.005239502992480993
1717857931439038200,5.9880380859375,0.0018719359068199992,0.008913599886000156,-0.006625145673751831
1717857931449079300,5.998079345703125,0.005693838465958834,0.00899589154869318,-0.005169195588678122
1717857931459120400,6.008120361328125,0.0035774242132902145,0.008258462883532047,-0.00657614367082715
1717857931469161200,6.0181611328125,0.00318940170109272,0.0083071980625391,-0.006724747829139233
1717857931479202300,6.028202392578125,0.0035382758360356092,0.009021458216011524,-0.005254150368273258
1717857931489242400,6.038242431640625,0.00552126532420516,0.008947954513132572,-0.006073605269193649
1717857931499283200,6.048283203125,0.0037886130157858133,0.008934905752539635,-0.00606481684371829
1717857931509324300,6.05832421875,0.005089300684630871,0.008126636035740376,-0.006029130425304174
1717857931519365400,6.068365478515625,0.0029888655990362167,0.00866193138062954,-0.005328186322003603
1717857931529405400,6.078405517578125,0.002719087526202202,0.009673399850726128,-0.005589442327618599
1717857931539446300,6.0884462890625,0.003781156148761511,0.009418003261089325,-0.005707953125238419
1717857931549487400,6.0984873046875,0.005122057627886534,0.009256615303456783,-0.00464615086093545
1717857931559528400,6.108528564453125,0.0037406759802252054,0.00968538410961628,-0.0055151404812932014
1717857931569569300,6.1185693359375,0.004339354578405619,0.00908457487821579,-0.005858954507857561
1717857931579609000,6.128609130859375,0.0035108451265841722,0.009690177626907825,-0.006530869752168655
1717857931589650200,6.138650146484375,0.004742024466395378,0.008279501460492611,-0.005263471510261297
1717857931599691300,6.148691162109375,0.002787264296784997,0.00980309583246708,-0.005710882600396872
1717857931609732000,6.158732177734375,0.0035206989850848913,0.010326406918466091,-0.0046661244705319405
1717857931619772200,6.168772216796875,0.0030863373540341854,0.009159144014120102,-0.005941512528806925
1717857931629813200,6.178813232421875,0.0028546424582600594,0.009558618068695068,-0.003748132847249508
1717857931639854000,6.18885400390625,0.0032519858796149492,0.009703493677079678,-0.006894391495734453
1717857931649895200,6.198895263671875,0.003222158644348383,0.009517072699964046,-0.005239769350737333
1717857931659936300,6.208936279296875,0.002659166231751442,0.00944862887263298,-0.006590258330106735
1717857931669976300,6.218976318359375,0.00558225205168128,0.008255799300968647,-0.005894108209758997
1717857931680017200,6.22901708984375,0.003695668652653694,0.009096559137105942,-0.007017429452389479
1717857931690058200,6.239058349609375,0.003593669505789876,0.009639311581850052,-0.005380384158343077
1717857931700099300,6.249099365234375,0.0031758195254951715,0.009579390287399292,-0.005923935677856207
1717857931710139400,6.259139404296875,0.004856008104979992,0.00806112214922905,-0.006454969756305218
1717857931720180200,6.26918017578125,0.003668237943202257,0.008146077394485474,-0.005452822428196669
1717857931730221300,6.27922119140625,0.00361683894880116,0.008875517174601555,-0.00612260727211833
1717857931740262100,6.28926220703125,0.003254116512835026,0.009349559433758259,-0.004610997159034014
1717857931750303200,6.29930322265625,0.004481301177293062,0.008941562846302986,-0.007675496395677328
1717857931760343300,6.30934326171875,0.0034796863328665495,0.008882441557943821,-0.006709568202495575
1717857931770384400,6.31938427734375,0.0030000510159879923,0.009219863452017307,-0.006443518213927746
1717857931780425200,6.32942529296875,0.004385693464428186,0.008974053896963596,-0.006066414527595043
1717857931790466300,6.33946630859375,0.0028796761762350798,0.009413741528987885,-0.006082127336412668
1717857931800506400,6.34950634765625,0.004486627411097288,0.013411412946879864,-0.0034999263007193804
1717857931810547500,6.35954736328125,0.002703641075640917,0.010637464001774788,-0.005345230456441641
1717857931820588300,6.36958837890625,0.004026167094707489,0.010321613401174545,-0.007016630377620459
1717857931830629400,6.37962939453125,0.004597414750605822,0.008503207005560398,-0.005298092495650053
1717857931840670500,6.38967041015625,0.003966245800256729,0.007875500246882439,-0.00726350536569953
1717857931850710300,6.399710205078125,0.0040946099907159805,0.007730357814580202,-0.005619536153972149
1717857931860751000,6.409751220703125,0.004512992687523365,0.009523464366793633,-0.006644853390753269
1717857931870792200,6.419792236328125,0.0023254721891134977,0.008803877979516983,-0.00574869941920042
1717857931880833000,6.4298330078125,0.003781156148761511,0.009305884130299091,-0.0064831990748643875
1717857931890874000,6.4398740234375,0.004221376497298479,0.0073532541282474995,-0.007833422161638737
1717857931900914200,6.4499140625,0.002953445538878441,0.0081527354195714,-0.006666957400739193
1717857931910955300,6.459955322265625,0.003881823504343629,0.00899908784776926,-0.005133242812007666
1717857931920996000,6.46999609375,0.002644785214215517,0.009210010059177876,-0.006070942152291536
1717857931931037200,6.480037109375,0.0028631645254790783,0.008014516904950142,-0.005789978429675102
1717857931941077200,6.4900771484375,0.004375307355076075,0.009921606630086899,-0.0054674698039889336
1717857931951118300,6.500118408203125,0.00293320557102561,0.00812210887670517,-0.005781722720712423
1717857931961159200,6.5101591796875,0.002755839144811034,0.0089404983446002,-0.006149238906800747
1717857931971200300,6.5202001953125,0.003282346064224839,0.010282997973263264,-0.005077582783997059
1717857931981241300,6.530241455078125,0.0017483652336522937,0.009152219630777836,-0.004287156742066145
1717857931991281200,6.54028125,0.004449876025319099,0.008815063163638115,-0.006611297372728586
1717857932001322200,6.550322265625,0.0032080437522381544,0.007998271845281124,-0.0036647759843617678
1717857932011363300,6.56036328125,0.005541239399462938,0.008616657927632332,-0.0051681301556527615
1717857932021404200,6.570404052734375,0.0031411985401064157,0.008784702979028225,-0.005104480776935816
1717857932031444200,6.5804443359375,0.00296303303912282,0.007643538527190685,-0.006411293987184763
1717857932041485300,6.5904853515625,0.003552656853571534,0.00974184274673462,-0.0057311225682497025
1717857932051526400,6.6005263671875,0.003555053612217307,0.008776713162660599,-0.006442719139158726
1717857932061567200,6.610567138671875,0.0030660973861813545,0.00854714959859848,-0.006115682888776064
1717857932071608300,6.6206083984375,0.004472246393561363,0.008870989084243774,-0.007855792529881
1717857932081648400,6.6306484375,0.004310059826821089,0.009379120543599129,-0.005468002520501614
1717857932091689500,6.640689453125,0.0041699777357280254,0.00935302209109068,-0.00541314110159874
1717857932101730300,6.650730224609375,0.00358834327198565,0.00806005671620369,-0.005921272095292807
1717857932111771400,6.660771484375,0.004414722323417664,0.009314405731856823,-0.006108492612838745
1717857932121812200,6.670812255859375,0.003175287041813135,0.010006827302277088,-0.005563343409448862
1717857932131852000,6.68085205078125,0.003061569994315505,0.00911253783851862,-0.005567338317632675
1717857932141893000,6.69089306640625,0.005479720421135426,0.008099205791950226,-0.007191333919763565
1717857932151934200,6.700934326171875,0.003771835006773472,0.008787899278104305,-0.005397694651037455
1717857932161975000,6.71097509765625,0.003518834710121155,0.007480819243937731,-0.004608334042131901
1717857932172015000,6.72101513671875,0.003582750679925084,0.008987103588879108,-0.0068326061591506
1717857932182056200,6.73105615234375,0.005833654198795557,0.009460346773266792,-0.006247776094824076
1717857932192097300,6.74109716796875,0.003288471372798085,0.00854688324034214,-0.006154032424092293
1717857932202138000,6.75113818359375,0.0051625375635921955,0.008530637249350548,-0.006099970545619726
1717857932212179200,6.76117919921875,0.004613926634192467,0.00974184274673462,-0.006027265917509794
1717857932222219300,6.77121923828125,0.004056260455399752,0.010236658155918121,-0.005316202063113451
1717857932232260400,6.78126025390625,0.003960386849939823,0.010192716494202614,-0.006847519893199205
1717857932242301200,6.79130126953125,0.0041212416253983974,0.007958856411278248,-0.006764429155737162
1717857932252342300,6.80134228515625,0.004904743749648333,0.010262757539749146,-0.006405435036867857
1717857932262382300,6.81138232421875,0.004671184346079826,0.008467786945402622,-0.004002464935183525
1717857932272423200,6.821423095703125,0.0034519892651587725,0.008356200531125069,-0.006163087207823992
1717857932282464300,6.83146435546875,0.004010454285889864,0.009529056958854198,-0.006121275946497917
1717857932292505300,6.84150537109375,0.0025720810517668724,0.0095684714615345,-0.006259227637201548
1717857932302546200,6.851546142578125,0.004102866165339947,0.008780442178249359,-0.005841111298650503
1717857932312586000,6.8615859375,0.003967044875025749,0.009827064350247383,-0.003992877434939146
1717857932322627000,6.871626953125,0.003913515247404575,0.010215086862444878,-0.006164152640849352
1717857932332668200,6.881668212890625,0.005045358557254076,0.008844624273478985,-0.005739378277212381
1717857932342709000,6.891708984375,0.0034975295420736074,0.01070723868906498,-0.006746319588273764
1717857932352749000,6.9017490234375,0.003578755771741271,0.009664079174399376,-0.005524461157619953
1717857932362790100,6.9117900390625,0.0025861957110464573,0.008678176440298557,-0.005471730604767799
1717857932372831200,6.921831298828125,0.0036248285323381424,0.00948138628154993,-0.005855492316186428
1717857932382872000,6.9318720703125,0.0033635725267231464,0.008441155776381493,-0.003980626817792654
1717857932392913200,6.9419130859375,0.004190484061837196,0.009735983796417713,-0.0065447185188531876
1717857932402953200,6.951953125,0.005089833401143551,0.009631321765482426,-0.00603419030085206
1717857932412994000,6.961994140625,0.0027395938523113728,0.010161823593080044,-0.004969192203134298
1717857932423035100,6.97203515625,0.002525475574657321,0.00917672086507082,-0.005503954831510782
1717857932433076200,6.982076171875,0.004787032026797533,0.009273925796151161,-0.00621049152687192
1717857932443116000,6.992115966796875,0.003010703483596444,0.008479238487780094,-0.0063063655979931355
1717857932453156900,7.002156982421875,0.004798217210918665,0.010384730063378811,-0.005314071662724018
1717857932463198000,7.012197998046875,0.0037739656399935484,0.009213205426931381,-0.004786499310284853
1717857932473239000,7.022239013671875,0.005323659162968397,0.008951150812208652,-0.006962834391742945
1717857932483280000,7.03227978515625,0.0036013927310705185,0.00839641410857439,-0.0057494984939694405
1717857932493320000,7.04231982421875,0.0034679684322327375,0.008162056095898151,-0.005286640953272581
1717857932503361000,7.052361083984375,0.0036035231314599514,0.009246229194104671,-0.006647250149399042
1717857932513402000,7.062402099609375,0.00506932707503438,0.009037170559167862,-0.006370547693222761
1717857932523443000,7.07244287109375,0.00395825644955039,0.010892595164477825,-0.004945490043610334
1717857932533484000,7.082484130859375,0.0036551884841173887,0.008827580139040947,-0.005240035708993673
1717857932543524000,7.092524169921875,0.0038365498185157776,0.008687231689691544,-0.007199589628726244
1717857932553565000,7.10256494140625,0.003266899613663554,0.009243032895028591,-0.005320996046066284
1717857932563606000,7.11260595703125,0.002578738844022155,0.009458216838538647,-0.005512476898729801
1717857932573647000,7.122647216796875,0.004058923572301865,0.008610266260802746,-0.006813697516918182
1717857932583687200,7.132687255859375,0.004114584065973759,0.009444900788366795,-0.0076033249497413635
1717857932593728000,7.14272802734375,0.004055195488035679,0.008188687264919281,-0.006703975144773722
1717857932603769000,7.15276904296875,0.0033281524665653706,0.00968858040869236,-0.0051596080884337425
1717857932613810200,7.16281005859375,0.004611263517290354,0.008374842815101147,-0.0046879625879228115
1717857932623850000,7.17285009765625,0.004895955324172974,0.008989766240119934,-0.006224073935300112
1717857932633891000,7.18289111328125,0.003471963107585907,0.009885920211672783,-0.005299957003444433
1717857932643932200,7.19293212890625,0.005408613942563534,0.00959536898881197,-0.005328719038516283
1717857932653973000,7.202972900390625,0.0025864620693027973,0.009425193071365356,-0.005624329671263695
1717857932664014000,7.21301416015625,0.0018756643403321505,0.010033459402620792,-0.0064927865751087666
1717857932674054100,7.22305419921875,0.003796069882810116,0.009073922410607338,-0.0057249972596764565
1717857932684095200,7.23309521484375,0.0030866037122905254,0.009661948308348656,-0.006897587329149246
1717857932694136000,7.243135986328125,0.003999002743512392,0.00971627701073885,-0.0065042381174862385
1717857932704177200,7.25317724609375,0.004245611373335123,0.010036122053861618,-0.006628341507166624
1717857932714217000,7.263217041015625,0.0032948628067970276,0.008608135394752026,-0.005724730901420116
1717857932724258000,7.273258056640625,0.003970772959291935,0.007897870615124702,-0.007125020958483219
1717857932734299000,7.283298828125,0.003982757218182087,0.009759154170751572,-0.004290618933737278
1717857932744340000,7.293340087890625,0.003032275242730975,0.009641442447900772,-0.0070674968883395195
1717857932754381000,7.303381103515625,0.002251702593639493,0.011299259960651398,-0.004148405976593494
1717857932764420900,7.3134208984375,0.004459729418158531,0.010566623881459236,-0.004492220003157854
1717857932774462000,7.3234619140625,0.005019525997340679,0.008807606063783169,-0.005516471806913614
1717857932784503000,7.3335029296875,0.0022269352339208126,0.009267800487577915,-0.0062427157536149025
1717857932794543900,7.3435439453125,0.00455879932269454,0.008896555751562119,-0.007625428959727287
1717857932804584000,7.353583984375,0.0046639940701425076,0.008640093728899956,-0.00737189594656229
1717857932814625000,7.363625,0.005036037415266037,0.007922371849417686,-0.006524744443595409
1717857932824666000,7.373666015625,0.0007387608638964593,0.007843808270990849,-0.006960970349609852
1717857932834707000,7.38370703125,0.0028599686920642853,0.00960016343742609,-0.0067660268396139145
1717857932844748000,7.393748046875,0.0037822213489562273,0.00872291810810566,-0.005864813458174467
1717857932854788000,7.4037880859375,0.0035811527632176876,0.008068046532571316,-0.005973470397293568
1717857932864829200,7.4138291015625,0.0051537491381168365,0.009198292158544064,-0.006912766955792904
1717857932874870000,7.4238701171875,0.00430180411785841,0.008436894044280052,-0.005518602207303047
1717857932884911000,7.4339111328125,0.00364666641689837,0.010114685632288456,-0.005849100649356842
1717857932894952000,7.443951904296875,0.00316010694950819,0.009527991525828838,-0.006295179948210716
1717857932904992000,7.453991943359375,0.003852262394502759,0.010479538701474667,-0.005776396486908197
1717857932915033000,7.464033203125,0.0035060516092926264,0.008498413488268852,-0.004992628004401922
1717857932925074200,7.47407421875,0.004772651009261608,0.009671003557741642,-0.006450176239013672
1717857932935115000,7.484114990234375,0.0023755396250635386,0.009013468399643898,-0.005089567042887211
1717857932945155000,7.494155029296875,0.004056526813656092,0.008893626742064953,-0.005037369206547737
1717857932955196200,7.504196044921875,0.003907656297087669,0.010571151971817017,-0.005893841851502657
1717857932965237200,7.5142373046875,0.002813629573211074,0.008561263792216778,-0.006909571588039398
1717857932975278000,7.524278076171875,0.00440912926569581,0.010664096102118492,-0.00538517814129591
1717857932985319200,7.534319091796875,0.003507649526000023,0.010377805680036545,-0.005624329671263695
1717857932995359000,7.54435888671875,0.004492752719670534,0.009218531660735607,-0.0049556102603673935
1717857933005400000,7.554400146484375,0.004237888380885124,0.00959483627229929,-0.006566289812326431
1717857933015441000,7.56444091796875,0.004602208733558655,0.008768724277615547,-0.004718322306871414
1717857933025482000,7.57448193359375,0.004653607495129108,0.008888565935194492,-0.0062187472358345985
1717857933035522000,7.58452197265625,0.0049193911254405975,0.009335710667073727,-0.00643686018884182
1717857933045563000,7.59456298828125,0.004448810592293739,0.007993211969733238,-0.008258462883532047
1717857933055604000,7.60460400390625,0.004464257042855024,0.008724515326321125,-0.00686136819422245
1717857933065645000,7.61464501953125,0.0019566244445741177,0.006942328065633774,-0.005043494515120983
1717857933075686000,7.624685791015625,0.0031944618094712496,0.009346097707748413,-0.005201419815421104
1717857933085726000,7.634725830078125,0.0025031049735844135,0.01041429117321968,-0.005655222572386265
1717857933095767000,7.64476708984375,0.004463457968086004,0.008133027702569962,-0.005961486138403416
1717857933105808100,7.65480810546875,0.0032418658956885338,0.009694971144199371,-0.006400375161319971
1717857933115849000,7.664848876953125,0.004089017398655415,0.009575129486620426,-0.005022455472499132
1717857933125889000,7.674888916015625,0.004279699642211199,0.00944996066391468,-0.006069077644497156
1717857933135930000,7.68493017578125,0.00412363838404417,0.008958341553807259,-0.005108475685119629
1717857933145971000,7.694970947265625,0.0041486723348498344,0.007938616909086704,-0.005042961798608303
1717857933156012000,7.705011962890625,0.005044825840741396,0.008264055475592613,-0.006341519299894571
1717857933166053000,7.71505322265625,0.005047223065048456,0.009238239377737045,-0.006164951715618372
1717857933176093200,7.72509326171875,0.006114884279668331,0.008731439709663391,-0.005259210709482431
1717857933186134000,7.735134033203125,0.0026322684716433287,0.008665126748383045,-0.006345247384160757
1717857933196175000,7.745175048828125,0.0025273398496210575,0.00956927053630352,-0.006106894463300705
1717857933206216200,7.75521630859375,0.003990480676293373,0.009106678888201714,-0.004827245604246855
1717857933216257000,7.765257080078125,0.004127100575715303,0.009017995558679104,-0.0032176312524825335
1717857933226297000,7.775297119140625,0.002852778183296323,0.009675797075033188,-0.005934055428951979
1717857933236338200,7.785338134765625,0.005566539242863655,0.008256598375737667,-0.006870156619697809
1717857933246379300,7.795379150390625,0.004126035608351231,0.007898403331637383,-0.0034738273825496435
1717857933256420000,7.805420166015625,0.0025654230266809464,0.008648615330457687,-0.006031527183949947
1717857933266460000,7.8154599609375,0.004516987595707178,0.008796154521405697,-0.0055228634737432
1717857933276501000,7.8255009765625,0.0046213832683861256,0.009198824875056744,-0.005313805304467678
1717857933286541800,7.835541748046875,0.0035563854034990072,0.00891200266778469,-0.007214503362774849
1717857933296583000,7.8455830078125,0.003999535460025072,0.008262990042567253,-0.006491987966001034
1717857933306624000,7.8556240234375,0.0028328043408691883,0.009485913440585136,-0.0046701193787157536
1717857933316664600,7.86566455078125,0.004450408276170492,0.008670453913509846,-0.005150021053850651
1717857933326705400,7.875705322265625,0.0057071540504693985,0.00848829373717308,-0.006361759267747402
1717857933336746500,7.88574658203125,0.0038344194181263447,0.009414540603756905,-0.005989182740449905
1717857933346787300,7.895787353515625,0.004692489746958017,0.008733304217457771,-0.005257346201688051
1717857933356827400,7.905827392578125,0.003335609333589673,0.009211341850459576,-0.004490888677537441
1717857933366868500,7.915868408203125,0.004348675720393658,0.009277920238673687,-0.0070919981226325035
1717857933376909600,7.92590966796875,0.004188619554042816,0.006997722201049328,-0.005022455472499132
1717857933386950400,7.935950439453125,0.004322576802223921,0.009666475467383862,-0.0060328589752316475
1717857933396991500,7.945991455078125,0.0034432008396834135,0.010250773280858994,-0.004066913388669491
1717857933407031600,7.956031494140625,0.004930309951305389,0.01016608439385891,-0.005795837379992008
1717857933417072600,7.96607275390625,0.003206978552043438,0.008672051131725311,-0.004895422607660294
1717857933427113500,7.976113525390625,0.00487305223941803,0.007794007193297148,-0.006483998149633408
1717857933437154600,7.986154541015625,0.004084756597876549,0.008320780470967293,-0.005823001731187105
1717857933447194600,7.996194580078125,0.006040315609425306,0.008641424588859081,-0.0041036647744476795
1717857933457235500,8.0062353515625,0.0036993969697505236,0.009720804169774055,-0.007129814941436052
1717857933467276500,8.016276611328125,0.0032692966051399708,0.009266202338039875,-0.007562845014035702
1717857933477317600,8.026317626953125,0.005329518113285303,0.009281915612518787,-0.006865895353257656
1717857933487358500,8.0363583984375,0.003483681008219719,0.00857271533459425,-0.006088252644985914
1717857933497398300,8.046398193359375,0.0029553098138421774,0.009395365603268147,-0.006164418999105692
1717857933507439400,8.056439453125,0.005860552191734314,0.009426258504390717,-0.005590241402387619
1717857933517480400,8.06648046875,0.004252535756677389,0.008669921196997166,-0.004680505488067865
1717857933527521300,8.076521240234374,0.0037974014412611723,0.00734233483672142,-0.0075782909989356995
1717857933537561300,8.086561279296875,0.004028031136840582,0.009337042458355427,-0.005293565336614847
1717857933547602400,8.0966025390625,0.0033518546260893345,0.009278985671699047,-0.006060022860765457
1717857933557643500,8.1066435546875,0.00407516909763217,0.008963135071098804,-0.004765193909406662
1717857933567684400,8.116684326171875,0.0025217472575604916,0.009067797102034092,-0.006848318502306938
1717857933577725400,8.126725341796876,0.003011502558365464,0.007927165366709232,-0.004731371998786926
1717857933587765500,8.136765625,0.004041613079607487,0.010427340865135193,-0.005678125657141209
1717857933597806300,8.146806396484376,0.004387824330478907,0.00836552120745182,-0.00612154183909297
1717857933607847400,8.156847412109375,0.004168912302702665,0.009604424238204956,-0.006185724399983883
1717857933617888500,8.166888427734374,0.003965180367231369,0.008944759145379066,-0.00541314110159874
1717857933627928600,8.176928466796875,0.003966512158513069,0.00845633540302515,-0.005423794034868479
1717857933637969400,8.186969482421874,0.004206995479762554,0.010031062178313732,-0.006222742144018412
1717857933648010500,8.197010498046875,0.003034672001376748,0.008257131092250347,-0.004189951345324516
1717857933658051600,8.207051513671875,0.0028309402987360954,0.009196161292493343,-0.004354268312454224
1717857933668092400,8.217092529296876,0.0049612028524279594,0.00791251752525568,-0.0051801144145429134
1717857933678132500,8.227132568359375,0.0036245621740818024,0.009589243680238724,-0.00711862975731492
1717857933688173600,8.237173583984376,0.0034738273825496435,0.008008657954633236,-0.00503976596519351
1717857933698214700,8.247214599609375,0.002183259464800358,0.008635565638542175,-0.003996339626610279
1717857933708255500,8.25725537109375,0.004538026638329029,0.00950801745057106,-0.00564084155485034
1717857933718295600,8.267295654296875,0.002460494404658675,0.008670720271766186,-0.006129265297204256
1717857933728336600,8.277336669921874,0.0038517299108207226,0.010385262779891491,-0.006118080113083124
1717857933738377500,8.28737744140625,0.004051466938108206,0.009122658520936966,-0.005262672435492277
1717857933748418600,8.29741845703125,0.004394215997308493,0.00875168014317751,-0.005616606678813696
1717857933758459600,8.307459716796876,0.005248291417956352,0.007799333427101374,-0.005678125657141209
1717857933768499500,8.31749951171875,0.0040884846821427345,0.008668855763971806,-0.006183593533933163
1717857933778540300,8.327540283203126,0.002880475018173456,0.008383630774915218,-0.007662447169423103
1717857933788581400,8.337581298828125,0.004005394410341978,0.00974397361278534,-0.006343116983771324
1717857933798622700,8.347622802734374,0.005002481862902641,0.009338374249637127,-0.007518370170146227
1717857933808663600,8.35766357421875,0.005392901133745909,0.008443818427622318,-0.0054581486620008945
1717857933818703400,8.367703369140624,0.0041063278913497925,0.009251289069652557,-0.006732471287250519
1717857933828744400,8.377744384765625,0.003888747887685895,0.009229983203113079,-0.0059995693154633045
1717857933838785500,8.38778564453125,0.003867708845064044,0.008471515029668808,-0.004465322010219097
1717857933848826400,8.397826416015626,0.003947337158024311,0.009831058792769909,-0.003992611076682806
1717857933858866400,8.407866455078125,0.003230147995054722,0.008220645599067211,-0.006080529186874628
1717857933868907500,8.417907470703126,0.0038661109283566475,0.008506136015057564,-0.00666269613429904
1717857933878948400,8.4279482421875,0.004858138505369425,0.00875274557620287,-0.006385195069015026
1717857933888989400,8.437989501953124,0.005431783385574818,0.008859005756676197,-0.005745769944041967
1717857933899030500,8.448030517578125,0.00404507527127862,0.010792193934321404,-0.005195028148591518
1717857933909070600,8.458070556640624,0.0043739755637943745,0.008115184493362904,-0.006404635962098837
1717857933919111400,8.468111328125,0.00469488650560379,0.008579906076192856,-0.005389172583818436
1717857933929152500,8.478152587890625,0.00159470085054636,0.010441189631819725,-0.006681072060018778
1717857933939193600,8.488193603515626,0.0029430591966956854,0.009160741232335567,-0.006313822232186794
1717857933949233400,8.4982333984375,0.00430260319262743,0.010009757243096828,-0.007180680986493826
1717857933959274500,8.5082744140625,0.003020290983840823,0.008320780470967293,-0.006673349067568779
1717857933969315600,8.518315673828125,0.003385144053027034,0.009563944302499294,-0.005345496814697981
1717857933979356400,8.5283564453125,0.002740659052506089,0.008241684176027775,-0.005452556069940329
1717857933989397500,8.5383974609375,0.0036735644098371267,0.00977646466344595,-0.006443251855671406
1717857933999437600,8.5484375,0.0041215079836547375,0.010135725140571594,-0.004333761986345053
1717857934009478700,8.558478759765626,0.004235757514834404,0.008144212886691093,-0.005379585549235344
1717857934019519500,8.56851953125,0.003469299990683794,0.00836818479001522,-0.00586667750030756
1717857934029560600,8.578560546875,0.0034352114889770746,0.009914682246744633,-0.006600910797715187
1717857934039600400,8.588600341796875,0.0041396175511181355,0.00896712951362133,-0.005013667047023773
1717857934049641500,8.598641357421876,0.005087703000754118,0.010213755071163177,-0.005292499903589487
1717857934059682600,8.6086826171875,0.004261856433004141,0.009385245852172375,-0.005061870440840721
1717857934069723600,8.6187236328125,0.004479969386011362,0.01016714982688427,-0.004960137419402599
1717857934079764500,8.628764404296875,0.002922286745160818,0.00902438722550869,-0.0051966262981295586
1717857934089804300,8.63880419921875,0.003707386553287506,0.009577525779604912,-0.004983040504157543
1717857934099845400,8.648845458984376,0.0029561088886111975,0.00908430851995945,-0.005474926438182592
1717857934109886500,8.658886474609375,0.0030146983917802572,0.008654474280774593,-0.005666141398251057
1717857934119927300,8.66892724609375,0.0036820864770561457,0.008742624893784523,-0.006779875606298447
1717857934129967400,8.67896728515625,0.003950532991439104,0.009365538135170937,-0.00501073757186532
1717857934140008400,8.689008544921874,0.0026618295814841986,0.009471000172197819,-0.005919940769672394
1717857934150049500,8.699049560546875,0.0036578518338501453,0.008786301128566265,-0.004911668132990599
1717857934160090400,8.70909033203125,0.004448810592293739,0.009549296461045742,-0.005549228750169277
1717857934170131500,8.71913134765625,0.0036815537605434656,0.01019724365323782,-0.0059721386060118675
1717857934180171500,8.729171630859375,0.0038488004356622696,0.007878961972892284,-0.006561229936778545
1717857934190212600,8.739212646484376,0.0034384073223918676,0.007878429256379604,-0.00652714166790247
1717857934200253400,8.74925341796875,0.003459446132183075,0.008676046505570412,-0.006431800313293934
1717857934210294500,8.75929443359375,0.003154514357447624,0.009622001089155674,-0.005305283237248659
1717857934220334600,8.76933447265625,0.003662378992885351,0.009163671173155308,-0.00509995361790061
1717857934230375400,8.77937548828125,0.003981159534305334,0.009000418707728386,-0.005653358530253172
1717857934240416500,8.78941650390625,0.0033840788528323174,0.010586597956717014,-0.005863481666892767
1717857934250457600,8.79945751953125,0.003442668356001377,0.008790295571088791,-0.007268032990396023
1717857934260497700,8.80949755859375,0.0026969832833856344,0.00953731220215559,-0.005775597412139177
1717857934270538500,8.81953857421875,0.004765460267663002,0.008767392486333847,-0.007404120173305273
1717857934280579600,8.82957958984375,0.005549761466681957,0.00935994554311037,-0.005872802808880806
1717857934290620700,8.83962060546875,0.0025443839840590954,0.009326922707259655,-0.006142314523458481
1717857934300661500,8.84966162109375,0.0027409254107624292,0.00797297153621912,-0.006866428069770336
1717857934310701300,8.859701416015625,0.003884486621245742,0.010232397355139256,-0.005101018585264683
1717857934320742100,8.8697421875,0.004788629710674286,0.008274974301457405,-0.006491455249488354
1717857934330783200,8.879783203125,0.003816842334344983,0.009942645207047462,-0.007143929600715637
1717857934340824000,8.889823974609374,0.003969707991927862,0.009874735027551651,-0.006107160821557045
1717857934350865200,8.899865234375,0.004011785611510277,0.009526127018034458,-0.005684517323970795
1717857934360905200,8.9099052734375,0.00437956815585494,0.009251289069652557,-0.005735916085541248
1717857934370946000,8.919946044921875,0.0028935244772583246,0.009013468399643898,-0.004324174486100674
1717857934380987100,8.929987060546875,0.004809668753296137,0.009680590592324734,-0.0054389736615121365
1717857934391028200,8.9400283203125,0.004493818152695894,0.008929844945669174,-0.004766259342432022
1717857934401068300,8.950068359375,0.004219778813421726,0.00890747457742691,-0.00746111199259758
1717857934411109000,8.960109130859376,0.00478463526815176,0.010194048285484314,-0.005627259146422148
1717857934421150200,8.970150146484375,0.005270129535347223,0.008412659168243408,-0.006530869752168655
1717857934431191300,8.98019140625,0.0033135050907731056,0.009830792434513569,-0.00692102313041687
1717857934441231400,8.9902314453125,0.005221393425017595,0.008273642510175705,-0.005791043862700462
1717857934451272200,9.000272216796875,0.003943875432014465,0.009320264682173729,-0.00498117646202445
1717857934461313300,9.010313232421876,0.0035233621019870043,0.009667807258665562,-0.005720203742384911
1717857934471354400,9.020354248046875,0.005616606678813696,0.007923969067633152,-0.007170561235398054
1717857934481395200,9.030395263671876,0.0037121803034096956,0.007930360734462738,-0.005331382155418396
1717857934491435300,9.040435302734375,0.0036719664931297302,0.008929844945669174,-0.006869357544928789
1717857934501476400,9.050476318359374,0.004030161537230015,0.008584965951740742,-0.005766542628407478
1717857934511517200,9.06051708984375,0.005008607171475887,0.009674998000264168,-0.007693605963140726
1717857934521558300,9.070558349609374,0.004482366610318422,0.008904012851417065,-0.006788397673517466
1717857934531599400,9.080599365234375,0.003870105603709817,0.009255283512175083,-0.006328735966235399
1717857934541639400,9.090639404296875,0.004589958116412163,0.008233162574470043,-0.00469488650560379
1717857934551680300,9.10068017578125,0.0036184368655085564,0.008641690947115421,-0.00624165078625083
1717857934561721300,9.110721435546875,0.004140949342399836,0.008281365968286991,-0.006060022860765457
1717857934571762400,9.120762451171874,0.0034410704392939806,0.008297611027956009,-0.006229666527360678
1717857934581802200,9.13080224609375,0.0031678301747888327,0.009791377931833267,-0.005625395104289055
1717857934591843000,9.140843017578124,0.00418249424546957,0.009093630127608776,-0.005892776418477297
1717857934601884200,9.15088427734375,0.003576625371351838,0.009238772094249725,-0.006509830709546804
1717857934611925200,9.16092529296875,0.005084507167339325,0.00839561503380537,-0.003796336008235812
1717857934621966000,9.170966064453125,0.004208060912787914,0.008776181377470493,-0.0054725296795368195
1717857934632006100,9.181006103515625,0.004129763692617416,0.008931443095207214,-0.00746164470911026
1717857934642047200,9.191047119140626,0.004266384057700634,0.009164736606180668,-0.005151618737727404
1717857934652088000,9.201088134765625,0.003878627670928836,0.00869095977395773,-0.0054972972720861435
1717857934662129200,9.211129150390626,0.003311108099296689,0.00815113727003336,-0.007092796731740236
1717857934672169200,9.221169189453125,0.004006193019449711,0.009491772390902042,-0.006344182416796684
1717857934682210300,9.231210205078124,0.004433364141732454,0.013499563559889793,-0.004056793171912432
1717857934692251100,9.241251220703125,0.003674363251775503,0.010499246418476105,-0.005283178761601448
1717857934702292200,9.251292236328124,0.0029635655228048563,0.009998039342463017,-0.006780141964554787
1717857934712333300,9.261333251953126,0.005622998345643282,0.009048355743288994,-0.005844573490321636
1717857934722373000,9.271373046875,0.004270378965884447,0.007651527877897024,-0.008645419962704182
1717857934732414200,9.281414306640626,0.003772101365029812,0.00894103106111288,-0.006416620220988989
1717857934742455300,9.291455322265625,0.003311374457553029,0.009137571789324284,-0.00586534570902586
1717857934752496000,9.30149609375,0.003999535460025072,0.009753560647368431,-0.004391286056488752
1717857934762536200,9.3115361328125,0.002475142013281584,0.009176986292004585,-0.007041664328426123
1717857934772577300,9.321577392578124,0.002889263443648815,0.008902681060135365,-0.006867759861052036
1717857934782618400,9.331618408203125,0.003719370812177658,0.008404403924942017,-0.008292551152408123
1717857934792659200,9.3416591796875,0.003949734382331371,0.009572732262313366,-0.0052136704325675964
1717857934802700300,9.3517001953125,0.004286624025553465,0.009090433828532696,-0.00555295730009675
1717857934812740400,9.361740234375,0.004369981121271849,0.009258479811251163,-0.006698915269225836
1717857934822781400,9.371781494140626,0.003946272190660238,0.008518386632204056,-0.0071037160232663155
1717857934832822300,9.381822265625,0.0035079156514257193,0.009647301398217678,-0.006299441214650869
1717857934842863400,9.39186328125,0.004542553797364235,0.009008941240608692,-0.0038211036007851362
1717857934852903200,9.401903076171875,0.0013608753215521574,0.00939217023551464,-0.007245928514748812
1717857934862944000,9.411944091796874,0.0047058057971298695,0.008117049001157284,-0.005946039687842131
1717857934872985000,9.421985107421875,0.004116714466363192,0.009604956954717636,-0.005534581374377012
1717857934883026200,9.432026123046874,0.0030945930629968643,0.010903513990342617,-0.006079730577766895
1717857934893067000,9.44206689453125,0.004372644238173962,0.008654474280774593,-0.0057468353770673275
1717857934903107000,9.452107177734375,0.004037352278828621,0.00882038939744234,-0.005952964071184397
1717857934913148200,9.462148193359376,0.0041273669339716434,0.009823868982493877,-0.005735650192946196
1717857934923189200,9.472189208984375,0.004355333745479584,0.008339955471456051,-0.006897587329149246
1717857934933230000,9.48222998046875,0.0021723404061049223,0.009616142138838768,-0.005003280472010374
1717857934943270100,9.492270263671875,0.002960369922220707,0.00827816966921091,-0.005172657780349255
1717857934953311200,9.502311279296874,0.00276063266210258,0.008871521800756454,-0.004430701024830341
1717857934963352300,9.512352294921875,0.0036040558479726315,0.008865929208695889,-0.005919408053159714
1717857934973393200,9.52239306640625,0.004346811678260565,0.008419050835072994,-0.005333246197551489
1717857934983434200,9.532434326171876,0.005075186025351286,0.008688562549650669,-0.0060267336666584015
1717857934993474300,9.542474365234375,0.003972637467086315,0.007135940250009298,-0.006388923618942499
1717857935003515100,9.55251513671875,0.003674895968288183,0.008949286304414272,-0.00589623861014843
1717857935013556200,9.56255615234375,0.0032091091852635145,0.008817726746201515,-0.0060323262587189674
1717857935023597300,9.572597412109374,0.0036546560004353523,0.008822520263493061,-0.005835785064846277
1717857935033637400,9.582637451171875,0.0032985913567245007,0.009060606360435486,-0.004562261048704386
1717857935043678200,9.59267822265625,0.0033630398102104664,0.009153284132480621,-0.004595284350216389
1717857935053719300,9.60271923828125,0.005557750817388296,0.008038219064474106,-0.005929794628173113
1717857935063760400,9.612760498046875,0.005803560372442007,0.008954612538218498,-0.005981992464512587
1717857935073801200,9.62280126953125,0.005679191090166569,0.009036637842655182,-0.006864830385893583
1717857935083841300,9.63284130859375,0.0038195056840777397,0.0100827282294631,-0.005392368417233229
1717857935093882400,9.64288232421875,0.003373692510649562,0.00897032581269741,-0.006419549696147442
1717857935103923200,9.652923095703125,0.005257346201688051,0.00968698225915432,-0.005395564250648022
1717857935113964300,9.66296435546875,0.004579837899655104,0.00914529524743557,-0.006317018065601587
1717857935124005400,9.67300537109375,0.004354801028966904,0.0093317162245512,-0.006129265297204256
1717857935134045200,9.683045166015624,0.002924150787293911,0.00899775605648756,-0.0049063414335250854
1717857935144086000,9.6930859375,0.003921770956367254,0.00908271037042141,-0.0049763829447329044
1717857935154127000,9.703127197265625,0.0033358754590153694,0.010128534398972988,-0.004995557479560375
1717857935164168400,9.71316845703125,0.0034344124142080545,0.008960737846791744,-0.006299441214650869
1717857935174208300,9.723208251953125,0.004923386033624411,0.008805209770798683,-0.0054823835380375385
1717857935184249000,9.7332490234375,0.004077565856277943,0.00959643442183733,-0.0063037024810910225
1717857935194290200,9.743290283203125,0.003981159534305334,0.00950934924185276,-0.0063095614314079285
1717857935204331300,9.753331298828124,0.004507932811975479,0.009489108808338642,-0.0078059914521873
1717857935214372000,9.7633720703125,0.0024429175537079573,0.009063536301255226,-0.006851247977465391
1717857935224412200,9.773412109375,0.004348143003880978,0.00839668046683073,-0.005750829819589853
1717857935234453200,9.783453369140625,0.005372927524149418,0.009299758821725845,-0.00498117646202445
1717857935244494000,9.793494140625,0.0054541537538170815,0.00938977301120758,-0.005743106827139854
1717857935254535200,9.80353515625,0.004798749927431345,0.008037952706217766,-0.005624329671263695
1717857935264575200,9.8135751953125,0.002493251347914338,0.01022440753877163,-0.005336442030966282
1717857935274616300,9.8236162109375,0.004406732507050037,0.009089901112020016,-0.005724464543163776
1717857935284657200,9.8336572265625,0.004453337751328945,0.008071241900324821,-0.006932474672794342
1717857935294698200,9.8436982421875,0.004446680191904306,0.007949269376695156,-0.007283213082700968
1717857935304739300,9.8537392578125,0.0038037928752601147,0.008036887273192406,-0.006418218370527029
1717857935314778400,9.8637783203125,0.004317516926676035,0.010057427920401096,-0.006094910204410553
1717857935324819200,9.873819091796875,0.0046296389773488045,0.009671003557741642,-0.006124737672507763
1717857935334860300,9.8838603515625,0.003058374160900712,0.010436395183205605,-0.006357764359563589
1717857935344901400,9.8939013671875,0.004230697639286518,0.008718390017747879,-0.005338838789612055
1717857935354941400,9.90394140625,0.0038005972746759653,0.008786567486822605,-0.0060296631418168545
1717857935364982300,9.913982177734376,0.0031590417493134737,0.00977273564785719,-0.0052115400321781635
1717857935375023400,9.9240234375,0.0034764904994517565,0.00930055696517229,-0.004221110139042139
1717857935385064400,9.934064453125,0.0036730316933244467,0.007762049324810505,-0.005209409166127443
1717857935395105300,9.944105224609375,0.0038256309926509857,0.007889880798757076,-0.005792375188320875
1717857935405145300,9.954145263671874,0.005599828902631998,0.008378304541110992,-0.004975317511707544
1717857935415186400,9.9641865234375,0.0031726236920803785,0.008945025503635406,-0.006463491823524237
1717857935425227500,9.9742275390625,0.0027486486360430717,0.00845367182046175,-0.005367867648601532
1717857935435268400,9.984268310546875,0.0039023298304528,0.00999084860086441,-0.00637933611869812
1717857935445309400,9.994309326171875,0.006197708658874035,0.010065151378512383,-0.006148972548544407
1717857935455349500,10.004349609375,0.004622715059667826,0.009571400471031666,-0.0051657333970069885
1717857935465390300,10.014390380859375,0.0057646785862743855,0.008350607939064503,-0.006040315609425306
1717857935475431400,10.024431396484376,0.0034202977549284697,0.008925051428377628,-0.005688512232154608
1717857935485472500,10.034472412109375,0.0034269557800143957,0.010179400444030762,-0.0046754456125199795
1717857935495512300,10.04451220703125,0.004372111521661282,0.00968405231833458,-0.005824067164212465
1717857935505553200,10.05455322265625,0.004658401478081942,0.008565258234739304,-0.004759068600833416
1717857935515594500,10.064594482421874,0.0035121769178658724,0.00887977797538042,-0.005329518113285303
1717857935525635600,10.074635498046876,0.0023177489638328552,0.010100305080413818,-0.006433930713683367
1717857935535676400,10.084676513671875,0.0037417414132505655,0.008265919052064419,-0.005770004820078611
1717857935545716200,10.09471630859375,0.0036187032237648964,0.009751963429152966,-0.005882123950868845
1717857935555757300,10.10475732421875,0.0037207023706287146,0.008885370567440987,-0.006120210513472557
1717857935565798400,10.11479833984375,0.005569202359765768,0.008461395278573036,-0.005024585872888565
1717857935575839200,10.124839111328125,0.0031587753910571337,0.00811944529414177,-0.0060384515672922134
1717857935585879300,10.13487939453125,0.004132426809519529,0.008193215355277061,-0.006536728702485561
1717857935595920400,10.14492041015625,0.003210440743714571,0.009213471785187721,-0.0057044909335672855
1717857935605961200,10.154961181640624,0.002972087822854519,0.008772452361881733,-0.005563077051192522
1717857935616002300,10.165002197265625,0.00424401368945837,0.010747984983026981,-0.005298092495650053
1717857935626043400,10.17504345703125,0.00478463526815176,0.008657936938107014,-0.008480037562549114
1717857935636083500,10.18508349609375,0.003061303636059165,0.009089901112020016,-0.0059875850565731525
1717857935646124300,10.195124267578125,0.004529770463705063,0.008595352061092854,-0.004926581867039204
1717857935656165400,10.205165283203126,0.0046450854279100895,0.008412392809987068,-0.004338023252785206
1717857935666206500,10.21520654296875,0.0038029940333217382,0.009955694898962975,-0.005497563164681196
1717857935676247300,10.225247314453124,0.0031366711482405663,0.011774634011089802,-0.004325506277382374
1717857935686287400,10.235287353515625,0.0046815709210932255,0.009874735027551651,-0.005247758701443672
1717857935696328400,10.245328369140625,0.004489556886255741,0.00806298665702343,-0.006045109126716852
1717857935706369300,10.255369384765626,0.0039012646302580833,0.008563128300011158,-0.006228867452591658
1717857935716410400,10.265410400390625,0.004366785287857056,0.008696019649505615,-0.0062941149808466434
1717857935726450400,10.275450439453126,0.003976366017013788,0.008803078904747963,-0.00643899105489254
1717857935736491500,10.285491455078125,0.0040735709480941296,0.008553806692361832,-0.006025401875376701
1717857935746532400,10.295532470703124,0.0021576930303126574,0.008509865030646324,-0.005607285536825657
1717857935756573400,10.305573486328125,0.002755572786554694,0.009513876400887966,-0.0043891556560993195
1717857935766614500,10.315614501953124,0.00440966198220849,0.010308830067515373,-0.004760666750371456
1717857935776654600,10.325654541015625,0.0038373488932847977,0.007655256427824497,-0.0059966398403048515
1717857935786695400,10.3356953125,0.0028538433834910393,0.008400142192840576,-0.006881874520331621
1717857935796736500,10.345736572265626,0.0036136433482170105,0.009908290579915047,-0.005730323493480682
1717857935806777600,10.355777587890625,0.005293565336614847,0.008314921520650387,-0.00839774589985609
1717857935816818400,10.365818359375,0.004260525107383728,0.007928230799734592,-0.006275472696870565
1717857935826858200,10.375858154296875,0.003212304785847664,0.008042746223509312,-0.006476807873696089
1717857935836899300,10.3858994140625,0.0042144525796175,0.008355934172868729,-0.006110889371484518
1717857935846940200,10.395940185546875,0.0025209481827914715,0.008505071513354778,-0.005396896041929722
1717857935856981200,10.405981201171874,0.004689293913543224,0.00860254280269146,-0.005471730604767799
1717857935867021300,10.416021240234375,0.002055960241705179,0.008183627389371395,-0.007056844420731068
1717857935877062400,10.4260625,0.0030104373581707478,0.008756740018725395,-0.00800359807908535
1717857935887103200,10.436103271484376,0.0038165762089192867,0.009983125142753124,-0.005505819339305162
1717857935897144300,10.446144287109375,0.004035754129290581,0.010036388412117958,-0.0054698665626347065
1717857935907185400,10.456185302734376,0.003582217963412404,0.007591873407363892,-0.007556186988949776
1717857935917225500,10.4662255859375,0.0032509206794202328,0.008899485692381859,-0.00646722037345171
1717857935927266300,10.476266357421874,0.00407490273937583,0.008250739425420761,-0.006226737052202225
1717857935937307400,10.486307373046875,0.00355798308737576,0.009952765889465809,-0.004507666453719139
1717857935947348500,10.496348388671874,0.003608050523325801,0.009075786918401718,-0.0052197957411408424
1717857935957388300,10.50638818359375,0.003724963404238224,0.010211891494691372,-0.00487358495593071
1717857935967429400,10.516429443359375,0.0023696806747466326,0.009333048015832901,-0.006779875606298447
1717857935977470500,10.526470458984376,0.002926813904196024,0.008884837850928307,-0.006652310024946928
1717857935987511300,10.53651123046875,0.003501257859170437,0.009665144607424736,-0.006229133810847998
1717857935997552400,10.546552490234374,0.004714594222605228,0.00914529524743557,-0.004120975267142057
1717857936007592400,10.556592529296875,0.0035001926589757204,0.00911679957062006,-0.006450176239013672
1717857936017633500,10.566633544921874,0.003698065411299467,0.00917405728250742,-0.005828860681504011
1717857936027674400,10.57667431640625,0.004518585279583931,0.009557286277413368,-0.005697300657629967
1717857936037715500,10.586715576171875,0.0037955371662974358,0.008107993751764297,-0.006397179327905178
1717857936047756500,10.596756591796876,0.0024892566725611687,0.008779376745223999,-0.006238454952836037
1717857936057796400,10.60679638671875,0.0051870387978851795,0.008628908544778824,-0.005617405753582716
1717857936067837400,10.61683740234375,0.0034461303148418665,0.010409764014184475,-0.005885586142539978
1717857936077878500,10.62687841796875,0.003201385959982872,0.009375392459332943,-0.005645368713885546
1717857936087919400,10.63691943359375,0.00595429539680481,0.007528223562985659,-0.00720411678776145
1717857936097959200,10.646959228515625,0.005225388333201408,0.008889098651707172,-0.0054429685696959496
1717857936108000300,10.657000244140624,0.002537459833547473,0.009039567783474922,-0.006746585946530104
1717857936118041300,10.667041259765625,0.00478543434292078,0.008620119653642178,-0.00720678037032485
1717857936128082200,10.677082275390624,0.0041249701753258705,0.0089391665533185,-0.006653641816228628
1717857936138123300,10.687123291015626,0.0035172367934137583,0.009667807258665562,-0.005408880300819874
1717857936148163300,10.697163330078125,0.003206712193787098,0.009434514679014683,-0.0051566786132752895
1717857936158204400,10.707204345703126,0.0033625070936977863,0.008473379537463188,-0.006397977937012911
1717857936168245200,10.717245361328125,0.0024495755787938833,0.009946640580892563,-0.005278385244309902
1717857936178286300,10.727286376953124,0.0033997914288192987,0.008670985698699951,-0.004801945760846138
1717857936188327400,10.737327392578125,0.004969724919646978,0.009046758525073528,-0.007197725586593151
1717857936198367200,10.7473671875,0.0033936661202460527,0.008897088468074799,-0.005715143866837025
1717857936208408300,10.757408203125,0.00443842401728034,0.009400958195328712,-0.00595429539680481
1717857936218449400,10.767449462890625,0.003953462466597557,0.009844108484685421,-0.005254683084785938
1717857936228490200,10.777490234375,0.0036360137164592743,0.009616674855351448,-0.005727127660065889
1717857936238531300,10.78753125,0.00464694993570447,0.00890880636870861,-0.005870406050235033
1717857936248571400,10.7975712890625,0.003111104713752866,0.009198824875056744,-0.005864547099918127
1717857936258612500,10.807612548828125,0.002808836055919528,0.008135158568620682,-0.006552441511303186
1717857936268653300,10.8176533203125,0.003187004942446947,0.008160457946360111,-0.006727677304297686
1717857936278694400,10.8276943359375,0.004938832018524408,0.008962335996329784,-0.005626194179058075
1717857936288734500,10.837734375,0.003943875432014465,0.008792692795395851,-0.0062674833461642265
1717857936298775600,10.847775634765625,0.003707120195031166,0.007792409509420395,-0.004748948849737644
1717857936308816400,10.85781640625,0.005658684764057398,0.008990298956632614,-0.006967095658183098
1717857936318858200,10.867858154296876,0.0033752904273569584,0.009278452955186367,-0.005386243108659983
1717857936328899000,10.877899169921875,0.004204865079373121,0.007589476183056831,-0.0067572384141385555
1717857936338939100,10.887939208984376,0.004487959202378988,0.00881905760616064,-0.0057313889265060425
1717857936348980200,10.897980224609375,0.003602990647777915,0.00948085356503725,-0.0060152821242809296
1717857936359021300,10.908021240234374,0.0025648903101682663,0.010863833129405975,-0.006631004624068737
1717857936369062100,10.918062255859375,0.0038903458043932915,0.00782543234527111,-0.0062554990872740746
1717857936379103200,10.928103271484375,0.00347542529925704,0.006943393498659134,-0.006255765445530415
1717857936389143300,10.938143310546875,0.0035167040769010782,0.010366620495915413,-0.007138337008655071
1717857936399184100,10.94818408203125,0.0034445326309651136,0.00920388475060463,-0.005077050067484379
1717857936409225200,10.95822509765625,0.0037356161046773195,0.009709352627396584,-0.005125253461301327
1717857936419266300,10.968266357421875,0.0025742114521563053,0.009184976108372211,-0.005375324282795191
1717857936429307100,10.97830712890625,0.0032810145057737827,0.00962679460644722,-0.005270662251859903
1717857936439347200,10.98834716796875,0.0057652113027870655,0.009850500151515007,-0.006548979319632053
1717857936449388300,10.99838818359375,0.004682902246713638,0.008495749905705452,-0.005911951418966055
1717857936459429400,11.008429443359375,0.004563326481729746,0.01073653344064951,-0.0065567027777433395
1717857936469470200,11.01847021484375,0.0041494714096188545,0.008461927995085716,-0.005362540949136019
1717857936479510000,11.028510009765625,0.00501020485535264,0.009631854481995106,-0.0062736086547374725
1717857936489551000,11.038551025390625,0.002151035238057375,0.00983425509184599,-0.005655755288898945
1717857936499592200,11.04859228515625,0.004326038993895054,0.008136489428579807,-0.005986253265291452
1717857936509633000,11.058633056640625,0.003721234854310751,0.008884305134415627,-0.006623281631618738
1717857936519674000,11.068674072265624,0.003910053055733442,0.008645153604447842,-0.006754841655492783
1717857936529714200,11.078714111328125,0.004240551497787237,0.009295230731368065,-0.006391320377588272
1717857936539755000,11.088755126953124,0.0044014062732458115,0.009682455100119114,-0.00407570181414485
1717857936549796000,11.098796142578125,0.005116997752338648,0.008489091880619526,-0.006697051227092743
1717857936559837200,11.108837158203125,0.0038804919458925724,0.008865396492183208,-0.00609304616227746
1717857936569878000,11.1188779296875,0.00347435986623168,0.00923424493521452,-0.00555109279230237
1717857936579918000,11.12891796875,0.004715126473456621,0.009277920238673687,-0.0057228668592870235
1717857936589959200,11.138959228515626,0.0034432008396834135,0.009178051725029945,-0.005393433850258589
1717857936600000300,11.149000244140625,0.0037819549906998873,0.008072840049862862,-0.00484429020434618
1717857936610041000,11.159041015625,0.0022855247370898724,0.008856075815856457,-0.006200105417519808
1717857936620081200,11.1690810546875,0.00301762786693871,0.008256864733994007,-0.004771319217979908
1717857936630122200,11.179122314453124,0.004803277086466551,0.008612396195530891,-0.005117264110594988
1717857936640163000,11.1891630859375,0.004661597311496735,0.008738097734749317,-0.007606787141412497
1717857936650204200,11.1992041015625,0.004142280668020248,0.008866195566952229,-0.006139651406556368
1717857936660245200,11.209245361328126,0.0032051142770797014,0.009014267474412918,-0.005614209920167923
1717857936670285300,11.219285400390625,0.005019259639084339,0.009732522070407867,-0.005785717628896236
1717857936680326100,11.229326171875,0.002119077369570732,0.01296426821500063,-0.004567853640764952
1717857936690367200,11.2393671875,0.005140167195349932,0.009244364686310291,-0.005317267496138811
1717857936700408300,11.249408203125,0.00307568465359509,0.00797536876052618,-0.006433664355427027
1717857936710449200,11.25944921875,0.004038151353597641,0.010186324827373028,-0.006168147549033165
1717857936720489200,11.2694892578125,0.00293293921276927,0.009002016857266426,-0.006371612660586834
1717857936730530300,11.2795302734375,0.0035127094015479088,0.008912800811231136,-0.00720651401206851
1717857936740571100,11.289571044921875,0.0041220407001674175,0.010036388412117958,-0.005811283830553293
1717857936750612200,11.2996123046875,0.00487251952290535,0.007797469384968281,-0.006599579472094774
1717857936760653300,11.3096533203125,0.0038892803713679314,0.007624896243214607,-0.006629673298448324
1717857936770693000,11.319693115234376,0.0033891387283802032,0.009459015913307667,-0.0062246061861515045
1717857936780734000,11.32973388671875,0.004318581894040108,0.008915730752050877,-0.005558017175644636
1717857936790775000,11.339775146484374,0.003625893732532859,0.008380968123674393,-0.00577746145427227
1717857936800816000,11.349816162109375,0.0038772961124777794,0.009247560054063797,-0.005037901923060417
1717857936810856200,11.359856201171874,0.003561178920790553,0.009186307899653912,-0.0073170349933207035
1717857936820897000,11.36989697265625,0.005142830312252045,0.010263290256261826,-0.005888249259442091
1717857936830938000,11.379938232421875,0.0036490634083747864,0.008983907289803028,-0.003611512714996934
1717857936840979200,11.389979248046876,0.004232029430568218,0.009823868982493877,-0.005633917171508074
1717857936851020000,11.40002001953125,0.004169178660959005,0.009496299549937248,-0.006069344002753496
1717857936861060000,11.41006005859375,0.004808603785932064,0.009680324234068394,-0.0059995693154633045
1717857936871101200,11.42010107421875,0.0038746329955756664,0.010070477612316608,-0.006557501386851072
1717857936881142000,11.43014208984375,0.004032824654132128,0.009252620860934258,-0.006296245381236076
1717857936891183000,11.44018310546875,0.0036525253672152758,0.010297378525137901,-0.005312739871442318
1717857936901224200,11.45022412109375,0.0036096484400331974,0.008942361921072006,-0.006353503558784723
1717857936911264300,11.46026416015625,0.004065847955644131,0.008762066252529621,-0.006984938867390156
1717857936921305000,11.47030517578125,0.003576625371351838,0.009786318056285381,-0.006158027332276106
1717857936931346200,11.48034619140625,0.004454403184354305,0.008322112262248993,-0.005411543417721987
1717857936941387300,11.49038720703125,0.002688993699848652,0.010117881931364536,-0.006640325766056776
1717857936951428000,11.500427978515624,0.00398701848462224,0.007731156423687935,-0.005901831202208996
1717857936961468200,11.51046826171875,0.004856273997575045,0.009418003261089325,-0.005696767941117287
1717857936971509200,11.52050927734375,0.004716458264738321,0.00980575941503048,-0.005531119182705879
1717857936981550300,11.53055029296875,0.005764145869761705,0.009348227642476559,-0.005478388629853725
1717857936991591200,11.540591064453125,0.004716458264738321,0.009811352007091045,-0.006886668037623167
1717857937001631200,11.55063134765625,0.0023092268966138363,0.007633951026946306,-0.004252802114933729
1717857937011672300,11.56067236328125,0.004547613672912121,0.008205732330679893,-0.006425142288208008
1717857937021713200,11.570713134765626,0.004132426809519529,0.009947173297405243,-0.005538842175155878
1717857937031754200,11.580754150390625,0.0027590349782258272,0.008993228897452354,-0.004979312419891357
1717857937041795300,11.59079541015625,0.004378236830234528,0.008551410399377346,-0.005328452680259943
1717857937051835100,11.600835205078125,0.0038919434882700443,0.009682455100119114,-0.006452306639403105
1717857937061876000,11.6108759765625,0.004815527703613043,0.008316519670188427,-0.005876265000551939
1717857937071917000,11.6209169921875,0.003329750383272767,0.008488825522363186,-0.0049098036251962185
1717857937081958100,11.630958251953125,0.00421365350484848,0.007699198555201292,-0.005453355144709349
1717857937091999000,11.6409990234375,0.0032176312524825335,0.008010256104171276,-0.005084240809082985
1717857937102039000,11.6510390625,0.003971838392317295,0.009374593384563923,-0.005946306046098471
1717857937112080100,11.661080078125,0.003358512418344617,0.008270712569355965,-0.005710882600396872
1717857937122121200,11.671121337890625,0.004138818476349115,0.009288307279348373,-0.007467770017683506
1717857937132162000,11.681162109375,0.00580915343016386,0.009780459105968475,-0.006677876226603985
1717857937142203100,11.691203125,0.004967061802744865,0.008763930760324001,-0.00444028852507472
1717857937152243200,11.7012431640625,0.0032794165890663862,0.010279801674187183,-0.007199589628726244
1717857937162284000,11.711283935546875,0.0035723643377423286,0.008992696180939674,-0.005091431550681591
1717857937172325000,11.7213251953125,0.0032597091048955917,0.009384979493916035,-0.004027498420327902
1717857937182366200,11.7313662109375,0.0032139027025550604,0.00866406224668026,-0.006019542925059795
1717857937192407000,11.741406982421875,0.0035723643377423286,0.008214253932237625,-0.004847751930356026
1717857937202447000,11.751447021484376,0.003382747294381261,0.009289371781051159,-0.007123423274606466
1717857937212488200,11.76148828125,0.003480485174804926,0.009049154818058014,-0.005560147576034069
1717857937222529300,11.771529296875,0.003438939806073904,0.008932242169976234,-0.006502640433609486
1717857937232570000,11.781570068359375,0.0035358788445591927,0.009698966518044472,-0.00640889722853899
1717857937242610200,11.791610107421874,0.003835750976577401,0.009258746169507504,-0.004674646537750959
1717857937252651300,11.8016513671875,0.005563077051192522,0.010154100134968758,-0.005771336145699024
1717857937262692000,11.811692138671875,0.003849332919344306,0.009273659437894821,-0.0062309978529810905
1717857937272733200,11.821733154296876,0.005662679206579924,0.008953813463449478,-0.006237655878067017
1717857937282774300,11.831774169921875,0.004522846546024084,0.008717059157788754,-0.007499727886170149
1717857937292814300,11.841814453125,0.0038330876268446445,0.00797403696924448,-0.006286924239248037
1717857937302855200,11.851855224609375,0.00336117553524673,0.008962602354586124,-0.005959355738013983
1717857937312896300,11.861896240234374,0.004036286845803261,0.00893836747854948,-0.005824067164212465
1717857937322937600,11.8719375,0.005045358557254076,0.00950721837580204,-0.005530320107936859
1717857937332978400,11.881978515625,0.0044203149154782295,0.009397230111062527,-0.006169745232909918
1717857937343018500,11.8920185546875,0.0043838294222950935,0.010118680074810982,-0.004905542824417353
1717857937353059600,11.9020595703125,0.003622964257374406,0.009518669918179512,-0.006493585649877787
1717857937363100400,11.912100341796876,0.0034732946660369635,0.010061955079436302,-0.006193447392433882
1717857937373141500,11.9221416015625,0.0038663772866129875,0.009702428244054317,-0.005661347880959511
1717857937383182600,11.9321826171875,0.0033015208318829536,0.008830775506794453,-0.0051622712053358555
1717857937393222700,11.94222265625,0.0037800907157361507,0.009571933187544346,-0.0062973108142614365
1717857937403263500,11.952263427734374,0.003976366017013788,0.009975668974220753,-0.005589708685874939
1717857937413304600,11.9623046875,0.004063451196998358,0.008670720271766186,-0.005811550188809633
1717857937423345700,11.972345703125,0.004824582487344742,0.00911253783851862,-0.0046964846551418304
