time,seconds_elapsed,z,y,x
1717857925557661700,0.10666162109375,0.0009529604576528072,0.00046080630272626877,-0.0009651612490415573
1717857925567702800,0.116702880859375,-0.0004559168592095375,0.00003957189619541168,-0.001215892843902111
1717857925577744000,0.126743896484375,-0.00044393260031938553,-0.00044752005487680435,-0.0007591606117784977
1717857925587784000,0.136783935546875,-0.00018179183825850487,0.00028021540492773056,-0.00003201654180884361
1717857925597824800,0.14682470703125,-0.0009141610935330391,0.0016996795311570168,0.00018556369468569756
1717857925607865900,0.156865966796875,-0.0017659333534538746,-0.0006105899810791016,0.00027191033586859703
1717857925617906700,0.16690673828125,-0.0004284938331693411,0.0008829114958643913,-0.0005784370005130768
1717857925627946800,0.17694677734375,0.0007094568572938442,-0.000015525147318840027,-0.00021400069817900658
1717857925637987800,0.18698779296875,0.00045832106843590736,-0.0007079476490616798,-0.0009109498932957649
1717857925648029000,0.19702880859375,-0.00009206961840391159,0.0009164446964859962,-0.00031275954097509384
1717857925658069800,0.20706982421875,0.00021286215633153915,0.0013449471443891525,-0.00040144287049770355
1717857925668109800,0.21710986328125,0.000354609452188015,-0.0011382205411791801,-0.0009664413519203663
1717857925678151000,0.22715087890625,0.0002765790559351444,0.0005038846284151077,-0.00104899937286973
1717857925688192000,0.23719189453125,-0.001556161092594266,-0.0009679673239588737,-0.001054949127137661
1717857925698232800,0.24723291015625,0.0004009958356618881,-0.0004675593227148056,0.0007275044918060303
1717857925708273000,0.25727294921875,-0.00015044212341308594,-0.000441855750977993,0.00026792194694280624
1717857925718314000,0.26731396484375,-0.00017387792468070984,0.0010545747354626656,-0.0012026755139231682
1717857925728354800,0.277354736328125,-0.0003701259847730398,-0.001117435283958912,-0.00039267539978027344
1717857925738396000,0.28739599609375,0.0005209678784012794,-0.0004463186487555504,-0.0005082567222416401
1717857925748436000,0.29743603515625,0.00041544344276189804,-0.00022740662097930908,-0.00046606408432126045
1717857925758477000,0.30747705078125,-0.0007598097436130047,-0.0008202269673347473,-0.0005179960280656815
1717857925768518000,0.317517822265625,-0.000577293336391449,-0.0013230005279183388,-0.00024909013882279396
1717857925778559000,0.32755908203125,-0.0003645066171884537,-0.0005405638366937637,-0.0007305899634957314
1717857925788598800,0.337598876953125,0.001649445854127407,-0.0008795559406280518,-0.00012987572699785233
1717857925798639900,0.347639892578125,0.000006008893251419067,0.0010413816198706627,-0.0019485484808683395
1717857925808680700,0.3576806640625,0.0004898607730865479,0.00019498728215694427,-0.0002825777046382427
1717857925818720800,0.367720703125,-0.0005351901054382324,0.0006250878795981407,0.00010171672329306602
1717857925828761900,0.377761962890625,0.0005764649249613285,0.0009712213650345802,-0.00034992489963769913
1717857925838802700,0.387802734375,-0.00008479831740260124,-0.000336657278239727,-0.0005339491181075573
1717857925848843800,0.39784375,-0.001709227915853262,-0.0010003624483942986,0.0003161397762596607
1717857925858883800,0.4078837890625,-0.001694580540060997,-0.0010549575090408325,0.00009083608165383339
1717857925868925000,0.417925048828125,0.00016423501074314117,-0.0006576506420969963,0.0001499881036579609
1717857925878965800,0.4279658203125,-0.00039103394374251366,0.00031759869307279587,-0.000692103523761034
1717857925889006800,0.4380068359375,-0.0006438512355089188,0.000007510185241699219,-0.0013136104680597782
1717857925899047000,0.448046875,0.0014773565344512463,-0.0011392468586564064,0.0005388841964304447
1717857925909088000,0.458087890625,0.000905738677829504,0.0013036923483014107,-0.000426669605076313
1717857925919128800,0.46812890625,-0.00042717321775853634,-0.0011165887117385864,-0.001720433123409748
1717857925929170000,0.478169921875,0.00030629150569438934,-0.0002475148066878319,-0.0009069768711924553
1717857925939210000,0.4882099609375,0.001459440216422081,0.00020176079124212265,-0.0000670156441628933
1717857925949250800,0.498250732421875,-0.0020009016152471304,-0.0004279790446162224,-0.0010158903896808624
1717857925959292000,0.5082919921875,0.00013601873070001602,0.0004029273986816406,-0.001436137594282627
1717857925969333000,0.5183330078125,-0.00018507987260818481,0.0010890308767557144,-0.00047268252819776535
1717857925979373000,0.528373046875,-0.0003430054057389498,-0.0008295103907585144,-0.0021342290565371513
1717857925989414000,0.538413818359375,-0.0002019593957811594,-0.0006414195522665977,-0.0005599586293101311
1717857925999455000,0.548455078125,0.0001834002323448658,0.0007580714300274849,-0.000018271617591381073
1717857926009496000,0.55849609375,-0.0009074385743588209,-0.002165514975786209,0.000008069444447755814
1717857926019536000,0.568535888671875,-0.0019801598973572254,-0.00012766383588314056,0.00011033518239855766
1717857926029576700,0.57857666015625,-0.001119113527238369,-0.0007360456511378288,0.0007711932994425297
1717857926039617800,0.58861767578125,0.000499822199344635,0.0010394835844635963,0.0007538828067481518
1717857926049659000,0.598658935546875,0.0005598035641014576,0.0004430161789059639,0.0004929010756313801
1717857926059699000,0.608698974609375,-0.00043994723819196224,-0.00015619490295648575,-0.00015504565089941025
1717857926069739800,0.61873974609375,0.000593685545027256,-0.0005476009100675583,0.0010062474757432938
1717857926079780900,0.62878076171875,-0.0008204528130590916,-0.0006631826981902122,-0.00036341603845357895
1717857926089821700,0.63882177734375,0.0008342522196471691,0.00047212932258844376,-0.0008185319602489471
1717857926099861800,0.64886181640625,0.0012110895477235317,-0.000627489760518074,0.00047469930723309517
1717857926109902800,0.65890283203125,-0.00045775133185088634,-0.00022183731198310852,0.0005564047023653984
1717857926119944000,0.66894384765625,0.00042348867282271385,-0.00000825151801109314,-0.0009482810273766518
1717857926129984800,0.67898486328125,0.00010848371312022209,0.0006352970376610756,0.0011378414928913116
1717857926140024800,0.68902490234375,-0.000564497197046876,-0.0007950859144330025,-0.0007386216893792152
1717857926150066000,0.69906591796875,-0.0004262796137481928,0.00013258587568998337,0.001029598992317915
1717857926160107000,0.70910693359375,0.0020624445751309395,-0.00004691164940595627,-0.0005781515501439571
1717857926170147800,0.71914794921875,-0.0009623251389712095,-0.00006798096001148224,0.0003513982519507408
1717857926180188000,0.72918798828125,0.0008667339570820332,-0.0003137905150651932,0.0012411600910127163
1717857926190229000,0.73922900390625,-0.0006932169198989868,-0.00030596647411584854,0.0015194150619208813
1717857926200269800,0.749269775390625,0.0014016255736351013,0.000469280406832695,0.0001074071042239666
1717857926210311000,0.759310791015625,-0.00041513307951390743,0.0001317281275987625,-0.00043483544141054153
1717857926220351000,0.76935107421875,0.0007246998138725758,0.00020150281488895416,0.0010285712778568268
1717857926230392000,0.77939208984375,0.0010288776829838753,-0.00003745313733816147,-0.0009160838089883327
1717857926240433000,0.789432861328125,-0.0008220192976295948,0.0007172869518399239,-0.0002241944894194603
1717857926250474000,0.799473876953125,0.000634507741779089,0.00008686352521181107,0.0006974167190492153
1717857926260513800,0.809513671875,0.00025660498067736626,-0.0002963654696941376,0.0015336493961513042
1717857926270555000,0.819554931640625,-0.00020106416195631027,0.0004789186641573906,0.000019342638552188873
1717857926280595700,0.829595703125,0.0002974793314933777,-0.0011994056403636932,0.00028592487797141075
1717857926290636800,0.83963671875,-0.0002744740340858698,0.000140313059091568,-0.0002115839160978794
1717857926300676900,0.8496767578125,0.0000802590511739254,-0.0008599702268838882,0.00003102980554103851
1717857926310718000,0.859718017578125,-0.0005007951986044645,0.0004736529663205147,0.00008244533091783524
1717857926320759000,0.869759033203125,-0.0004720331635326147,-0.00039640162140130997,0.0009572939015924931
1717857926330800000,0.879800048828125,-0.0008224556222558022,-0.0008949954062700272,-0.00009959936141967773
1717857926340840200,0.889840087890625,0.0005032657645642757,0.000640050508081913,0.0011382377706468105
1717857926350881000,0.899881103515625,0.0009836237877607346,0.00012485310435295105,0.00134568614885211
1717857926360922000,0.909922119140625,-0.00007072184234857559,0.0008130138739943504,-0.0006120032630860806
1717857926370963200,0.919963134765625,-0.0005295779556035995,-0.00044857896864414215,0.00003263121470808983
1717857926381003300,0.930003173828125,-0.0007397013250738382,-0.0003950493410229683,0.0005317074246704578
1717857926391044000,0.940044189453125,0.0007067988626658916,0.000208219513297081,0.00018556322902441025
1717857926401085200,0.950085205078125,0.0002399468794465065,0.0007280688732862473,0.0003416244871914387
1717857926411126000,0.9601259765625,0.0007225107401609421,-0.0008955225348472595,-0.0001038694754242897
1717857926421166000,0.970166015625,-0.00018269754946231842,0.00017666630446910858,0.000502532348036766
1717857926431207200,0.980207275390625,-0.0003193444572389126,0.0005264971405267715,0.000979914329946041
1717857926441248300,0.990248291015625,0.00020982557907700539,-0.0010258601978421211,0.0019775344990193844
1717857926451289000,1.0002890625,-0.0006484962068498135,0.00024868734180927277,0.0014372244477272034
1717857926461329200,1.0103291015625,0.000055909622460603714,0.000013796612620353699,0.000014297198504209518
1717857926471370200,1.020370361328125,0.0002989708445966244,0.0003666998818516731,0.00012976862490177155
1717857926481411300,1.030411376953125,-0.00007413793355226517,0.0003704279661178589,-0.00020312611013650894
1717857926491452200,1.0404521484375,0.000050893984735012054,0.0002564331516623497,0.0020248470827937126
1717857926501492000,1.050491943359375,-0.0006180922500789165,0.0012465966865420341,0.0012325569987297058
1717857926511533000,1.060532958984375,-0.0006420088466256857,-0.0004964079707860947,0.0011455696076154709
1717857926521574100,1.07057421875,-0.000595936318859458,-0.0005400842055678368,-0.000009975861757993698
1717857926531615000,1.080614990234375,-0.0012687270063906908,0.0023539531975984573,0.0018252651207149029
1717857926541655000,1.090655029296875,-0.0012761838734149933,0.00023727305233478546,0.0021799979731440544
1717857926551696100,1.100696044921875,-0.0014074917417019606,0.001283157616853714,-0.0003468608483672142
1717857926561737000,1.110737060546875,-0.0004551452584564686,0.0006328141316771507,0.0011000344529747963
1717857926571778000,1.120778076171875,-0.0021702342201024294,-0.001574006862938404,0.0002163313329219818
1717857926581818000,1.130818115234375,0.0008226260542869568,-0.00028450414538383484,0.0008680070750415325
1717857926591859200,1.140859130859375,0.000004951842129230499,-0.0010563572868704796,0.0011674263514578342
1717857926601900000,1.150900146484375,-0.0003873317036777735,0.00020038895308971405,0.0005522361025214195
1717857926611941000,1.160941162109375,0.0005501406267285347,-0.0006639184430241585,0.0008675865828990936
1717857926621981200,1.170981201171875,-0.000850415788590908,-0.001038891263306141,0.0018159383907914162
1717857926632022000,1.18102197265625,0.000010896474123001099,0.00007057748734951019,0.00033067120239138603
1717857926642063000,1.19106298828125,0.0009912061505019665,-0.0008585993200540543,0.0012089814990758896
1717857926652104200,1.201104248046875,0.0008013215847313404,0.0016535669565200806,0.002187691628932953
1717857926662144300,1.211144287109375,-0.0028671827167272568,-0.0002673706039786339,0.00039538415148854256
1717857926672185000,1.22118505859375,0.0020024124532938004,0.0006748223677277565,0.001510081347078085
1717857926682226200,1.23122607421875,-0.0003739260137081146,-0.00013131648302078247,-0.00028089433908462524
1717857926692267300,1.241267333984375,-0.00002510473132133484,0.00031857099384069443,0.0006778822280466557
1717857926702307300,1.251307373046875,0.00015519140288233757,-0.0015198090113699436,0.0013924087397754192
1717857926712348200,1.26134814453125,0.00009312573820352554,0.0005475925281643867,0.0010693971998989582
1717857926722389200,1.27138916015625,-0.0010352556128054857,-0.0009325919672846794,0.00036925217136740685
1717857926732430300,1.281430419921875,-0.00024423678405582905,0.0006480682641267776,0.0006927093490958214
1717857926742470100,1.29147021484375,0.0009208959527313709,-0.000026776455342769623,0.0000737905502319336
1717857926752511000,1.301510986328125,0.0014435499906539917,0.00015188660472631454,0.0011346046812832355
1717857926762552000,1.311552001953125,0.0010078568011522293,0.0009833257645368576,-0.0007863333448767662
1717857926772593000,1.321593017578125,-0.0008806167170405388,0.0006937384605407715,-0.0014980044215917587
1717857926782633000,1.331633056640625,0.0016427282243967056,-0.0006905728951096535,0.00008897343650460243
1717857926792674000,1.341674072265625,0.00029309792444109917,-0.0009832819923758507,-0.00007580872625112534
1717857926802715100,1.351715087890625,-0.00008853338658809662,-0.0009214971214532852,0.0011050370521843433
1717857926812756000,1.361755859375,0.00035492749884724617,-0.00011749286204576492,-0.0004781018942594528
1717857926822796000,1.371796142578125,0.001247885636985302,-0.0005633058026432991,0.00013655610382556915
1717857926832837000,1.381837158203125,0.0011144489981234074,-0.0013626692816615105,0.0008977684192359447
1717857926842878200,1.391878173828125,0.0005293525755405426,0.0010264525189995766,0.0004929681308567524
1717857926852919000,1.4019189453125,-0.00017795921303331852,0.0006825905293226242,0.0006917547434568405
1717857926862959000,1.411958984375,0.000880114734172821,-0.0009493939578533173,0.0008491477929055691
1717857926873000200,1.422000244140625,-0.00037114880979061127,0.00013727601617574692,0.000773286446928978
1717857926883041000,1.432041015625,0.00010529067367315292,-0.0025953934527933598,0.001226556021720171
1717857926893082000,1.44208203125,-0.0000021904706954956055,0.0015245256945490837,0.0005810861475765705
1717857926903122200,1.4521220703125,0.00007743807509541512,0.0013058800250291824,0.001742490567266941
1717857926913163300,1.462163330078125,-0.0003859309945255518,-0.0006119636818766594,0.0009280028752982616
1717857926923204000,1.4722041015625,0.000014874618500471115,-0.0010961266234517097,-0.000268022995442152
1717857926933245200,1.4822451171875,-0.000029915478080511093,-0.001414167694747448,0.00004872540012001991
1717857926943285200,1.49228515625,-0.0013207495212554932,-0.00024796929210424423,0.0014436892233788967
1717857926953326300,1.502326416015625,0.0010581579990684986,0.0004665302112698555,0.000618969090282917
1717857926963367200,1.5123671875,-0.00036982912570238113,0.001131521537899971,0.0010946094989776611
1717857926973408300,1.522408203125,0.0009548002853989601,-0.00032291747629642487,-0.0011678007431328297
1717857926983448000,1.532447998046875,-0.00034269201569259167,-0.000032366253435611725,-0.0009345076978206635
1717857926993489200,1.5424892578125,0.0003543626517057419,0.0012964243069291115,-0.00039680115878582
1717857927003530000,1.552530029296875,0.000022799242287874222,0.0006444826722145081,-0.0005179750733077526
1717857927013571000,1.562571044921875,-0.00008642254397273064,0.00004467461258172989,-0.000121294055134058
1717857927023611100,1.572611083984375,-0.00044301990419626236,-0.00036705005913972855,0.0013373191468417645
1717857927033652000,1.58265185546875,-0.001861505676060915,-0.002543061040341854,0.00036952923983335495
1717857927043693000,1.592693115234375,-0.00011447211727499962,0.0006058607250452042,0.0007836511358618736
1717857927053734100,1.602734130859375,-0.0006568355020135641,-0.0003231316804885864,0.0002532731741666794
1717857927063774200,1.612774169921875,0.00130085414275527,-0.0004504304379224777,-0.0016511534340679646
1717857927073815000,1.62281494140625,0.0005246414802968502,-0.00021173711866140366,0.00009289616718888283
1717857927083856100,1.632856201171875,0.0003667161799967289,-0.00031027477234601974,0.00038451235741376877
1717857927093897200,1.642897216796875,0.0005978774279356003,0.000231095589697361,0.000631231814622879
1717857927103937000,1.65293701171875,0.00020692544057965279,-0.0010666623711585999,-0.0010084761306643486
1717857927113978000,1.66297802734375,-0.00028344872407615185,0.00022599101066589355,0.0015835384838283062
1717857927124019200,1.673019287109375,-0.0003372444771230221,-0.0004648333415389061,0.00009962497279047966
1717857927134060000,1.68306005859375,0.0007679625414311886,0.0000971965491771698,0.00030434876680374146
1717857927144100000,1.69310009765625,-0.001967370044440031,-0.0005624685436487198,0.001522745005786419
1717857927154141200,1.70314111328125,0.00027673039585351944,0.0001691225916147232,0.0010623433627188206
1717857927164182300,1.713182373046875,-0.00018905638717114925,-0.00013101566582918167,0.001211480237543583
1717857927174223000,1.72322314453125,-0.00047114514745771885,-0.001157216727733612,0.0008303592912852764
1717857927184263200,1.73326318359375,0.00040689902380108833,0.0001354822888970375,-0.0005614086985588074
1717857927194304300,1.74330419921875,0.0009386581368744373,0.0007476089522242546,0.00015566032379865646
1717857927204345300,1.753345458984375,-0.0012488621287047863,-0.0004428243264555931,0.0006315670907497406
1717857927214386200,1.76338623046875,0.0000065462663769721985,-0.002159394323825836,0.00014536874368786812
1717857927224427300,1.77342724609375,0.0010228087194263935,0.0007194830104708672,-0.0003936551511287689
1717857927234467000,1.783467041015625,-0.0009614275768399239,-0.00028974749147892,0.0005609081126749516
1717857927244508000,1.7935078125,0.00023726141080260277,-0.0002806931734085083,0.00026955828070640564
1717857927254549000,1.803549072265625,0.0006374502554535866,-0.0001511499285697937,0.001222069375216961
1717857927264590000,1.813590087890625,0.00013730861246585846,-0.0001785801723599434,-0.0015433570370078087
1717857927274630100,1.823630126953125,0.0015654461458325386,-0.0013388888910412788,-0.0002729487605392933
1717857927284671000,1.8336708984375,-0.0007757386192679405,-0.00036470498889684677,0.00020269164815545082
1717857927294712000,1.843712158203125,-0.0014142319560050964,-0.00042784959077835083,-0.00037959031760692596
1717857927304753200,1.853753173828125,-0.0012139622122049332,0.0000059800222516059875,0.0010816860012710094
1717857927314793200,1.863793212890625,0.00015627918764948845,-0.00046778377145528793,0.00004197191447019577
1717857927324834000,1.873833984375,-0.0007233626674860716,-0.0000326232984662056,-0.00007334304973483086
1717857927334875100,1.883875244140625,-0.0006116314325481653,0.0008099181577563286,0.0004127891734242439
1717857927344916200,1.893916259765625,-0.0009109708480536938,0.001750812865793705,0.0005936180241405964
1717857927354956000,1.9039560546875,-0.00036336900666356087,0.00017661508172750473,0.0002727131359279156
1717857927364997000,1.9139970703125,-0.0003591079730540514,-0.00008304230868816376,0.0013547553680837154
1717857927375038200,1.9240380859375,0.0003234380856156349,0.0009726239368319511,0.0011116894893348217
1717857927385079000,1.9340791015625,-0.0004898910410702229,-0.0000399099662899971,0.0006552236154675484
1717857927395119000,1.944119140625,-0.0011642146855592728,0.00014509819447994232,0.00029182760044932365
1717857927405160200,1.95416015625,-0.0005319803021848202,-0.0006570462137460709,0.0016577630303800106
1717857927415201300,1.964201171875,0.0006250226870179176,0.00006788317114114761,0.00233430415391922
1717857927425242000,1.9742421875,-0.00030149100348353386,0.0004881294444203377,-0.00015814835205674171
1717857927435282200,1.9842822265625,-0.00014068023301661015,0.0005590673536062241,0.0015248311683535576
1717857927445323300,1.9943232421875,0.0005546710453927517,0.0017212703824043274,-0.0003516320139169693
1717857927455364400,2.0043642578125,0.0005416739732027054,-0.0003002416342496872,0.000761931762099266
1717857927465405200,2.0144052734375,-0.000006670597940683365,0.00052667036652565,-0.000601873267441988
1717857927475445000,2.024445068359375,0.0005649905651807785,0.0005556745454668999,0.0020181704312562943
1717857927485486000,2.034486083984375,0.0007386286742985249,-0.0000936044380068779,-0.0014519281685352325
1717857927495527000,2.04452685546875,-0.0010865512304008007,0.0009766267612576485,-0.0009108050726354122
1717857927505568000,2.054568115234375,-0.0010689743794500828,-0.00021460466086864471,0.00001437729224562645
1717857927515608000,2.064608154296875,0.0007063671946525574,-0.0010466249659657478,-0.0004805787466466427
1717857927525649200,2.074649169921875,0.0001761317253112793,-0.00103064626455307,0.00041690655052661896
1717857927535690000,2.08468994140625,0.0006740293465554714,-0.0001564323902130127,-0.0015425048768520355
1717857927545731000,2.09473095703125,-0.0015965818893164396,-0.0008411314338445663,0.000060984399169683456
1717857927555771100,2.104771240234375,0.0003751646727323532,-0.0010885270312428474,0.0013354127295315266
1717857927565812200,2.114812255859375,0.000726169440895319,-0.0007447125390172005,0.0008206237107515335
1717857927575853000,2.12485302734375,-0.0003415995743125677,0.0007228152826428413,0.0011605964973568916
1717857927585894100,2.13489404296875,-0.000004443340003490448,0.0002032322809100151,0.0004905452951788902
1717857927595934200,2.144934326171875,-0.00013638008385896683,0.00032806117087602615,0.0008592619560658932
1717857927605975000,2.15497509765625,-0.0012469182256609201,-0.0002141585573554039,0.0004086550325155258
1717857927616016100,2.16501611328125,-0.0006406942848116159,-0.0013632001355290413,0.0008265688084065914
1717857927626057200,2.17505712890625,0.0005265693180263042,0.00044561922550201416,-0.00017424719408154488
1717857927636097300,2.18509716796875,-0.002004842972382903,-0.00011619459837675095,0.0004915017634630203
1717857927646138000,2.19513818359375,-0.0006626099348068237,0.0008606528863310814,-0.0007892120629549026
1717857927656179200,2.20517919921875,-0.0012933060061186552,0.0007240716367959976,0.0010520266368985176
1717857927666220300,2.21522021484375,0.0011235126294195652,-0.00020457245409488678,0.0005886363796889782
1717857927676261000,2.22526123046875,0.000983105506747961,0.00016095861792564392,0.00007756007835268974
1717857927686301200,2.23530126953125,0.0004422175697982311,0.00030982866883277893,0.0012642648071050644
1717857927696342300,2.24534228515625,0.00017085764557123184,-0.00021789222955703735,-0.000030446331948041916
1717857927706383000,2.255383056640625,-0.00041370606049895287,0.00004149973392486572,0.0001967214047908783
1717857927716424200,2.265424072265625,0.00037413695827126503,0.001628468744456768,-0.0007901289500296116
1717857927726464000,2.275464111328125,0.0016167680732905865,0.0005227243527770042,0.0006043021567165852
1717857927736505000,2.285505126953125,-0.0010031394194811583,0.000881219282746315,-0.0010479497723281384
1717857927746546000,2.2955458984375,0.0017825271934270859,0.000060966238379478455,0.0005731163546442986
1717857927756587000,2.3055869140625,-0.0004044361412525177,-0.0007951660081744194,-0.0004577450454235077
1717857927766627000,2.315626953125,0.00104086147621274,0.0007009981200098991,-0.0008596158586442471
1717857927776668200,2.325668212890625,-0.00017411215230822563,-0.00030201300978660583,0.00018288008868694305
1717857927786709000,2.335708984375,-0.0009970287792384624,0.0010522045195102692,0.001016183290630579
1717857927796750000,2.34575,-0.000585116446018219,-0.0004922281950712204,0.0007977471686899662
1717857927806790100,2.3557900390625,0.0005949302576482296,0.0003650439903140068,0.0007897578179836273
1717857927816831200,2.365831298828125,-0.0007103770039975643,0.0003651874139904976,-0.00037537282332777977
1717857927826872000,2.3758720703125,0.00033198436722159386,0.0004437509924173355,-0.000002530403435230255
1717857927836913200,2.3859130859375,0.00027563702315092087,0.0009370027109980583,0.0012656981125473976
1717857927846953200,2.395953125,0.0017225323244929314,-0.00030589383095502853,0.0010936576873064041
1717857927856994000,2.405994140625,0.0012527252547442913,0.0017033973708748817,-0.0005601025186479092
1717857927867035100,2.41603515625,-0.0008154856041073799,-0.00023911241441965103,0.00040316302329301834
1717857927877076200,2.426076171875,0.0005283555947244167,0.002788795158267021,-0.0013362946920096874
1717857927887116300,2.4361162109375,-0.00021386751905083656,0.0005109934136271477,0.00020088162273168564
1717857927897157000,2.4461572265625,-0.000381342601031065,0.0012242235243320465,0.00009423121809959412
1717857927907198200,2.4561982421875,-0.00031076883897185326,0.00037653930485248566,-0.0006059138104319572
1717857927917239300,2.4662392578125,0.00020085880532860756,-0.0015923110768198967,-0.0012720152735710144
1717857927927279000,2.476279052734375,-0.00036506284959614277,-0.00015074200928211212,-0.0009705452248454094
1717857927937320200,2.4863203125,0.0026786280795931816,-0.0014096181839704514,-0.0009149909019470215
1717857927947361300,2.496361328125,-0.0013400819152593613,0.0012612659484148026,-0.00048196082934737206
1717857927957402000,2.506402099609375,0.00024217739701271057,0.0008446108549833298,0.0015008305199444294
1717857927967442000,2.51644189453125,-0.00016768299974501133,-0.0016920501366257668,-0.001338365487754345
1717857927977483000,2.52648291015625,-0.0005307188257575035,-0.0008814362809062004,-0.0007889545522630215
1717857927987524000,2.536524169921875,0.0016892924904823303,-0.00022736378014087677,-0.0005082576535642147
1717857927997565000,2.54656494140625,0.0002746689133346081,0.0017383899539709091,0.0009669046849012375
1717857928007605000,2.55660498046875,0.0006248746067285538,-0.0004573855549097061,0.0009306855499744415
1717857928017646000,2.56664599609375,0.00008704653009772301,0.00012191757559776306,-0.0000868472270667553
1717857928027687200,2.576687255859375,0.0004588239826261997,-0.00039553456008434296,-0.0003483695909380913
1717857928037728000,2.58672802734375,-0.0010724454186856747,-0.0006343508139252663,0.00034823594614863396
1717857928047769000,2.59676904296875,0.0007257210090756416,0.0009624799713492393,-0.000018215272575616837
1717857928057809200,2.60680908203125,-0.0003764305729418993,-0.0005935989320278168,0.000682346522808075
1717857928067850200,2.616850341796875,0.00005819741636514664,0.000006144866347312927,-0.0011456473730504513
1717857928077891000,2.62689111328125,0.0007521794177591801,0.0009225495159626007,0.0005625560879707336
1717857928087932200,2.63693212890625,0.00004537636414170265,0.0005100257694721222,0.0011473861522972584
1717857928097972200,2.64697216796875,0.0012290128506720066,-0.0007825149223208427,-0.00007788697257637978
1717857928108013000,2.657012939453125,-0.001816844567656517,0.00023055169731378555,0.0014369194395840168
1717857928118054100,2.66705419921875,0.0003988468088209629,-0.000548788346350193,0.0005252789705991745
1717857928128095200,2.67709521484375,0.0003746119327843189,-0.0007607759907841682,-0.0010537090711295605
1717857928138135300,2.68713525390625,0.0004554600454866886,-0.00033000390976667404,0.002422286430373788
1717857928148176100,2.697176025390625,0.00013987533748149872,-0.00027913693338632584,-0.00032263388857245445
1717857928158217200,2.70721728515625,0.0005407421849668026,-0.0005970001220703125,0.00023451121523976326
1717857928168258300,2.71725830078125,0.00039773015305399895,0.00026666373014450073,-0.0002525812014937401
1717857928178298000,2.727298095703125,-0.00003000255674123764,-0.0012893341481685638,0.0003552781417965889
1717857928188339200,2.737339111328125,0.0010664206929504871,-0.00032500363886356354,0.0009337165392935276
1717857928198380300,2.74738037109375,-0.0008988757617771626,0.00011666957288980484,0.00009660189971327782
1717857928208421000,2.757421142578125,-0.00036038458347320557,-0.001622108742594719,0.00018555158749222755
1717857928218461000,2.7674609375,0.00003345077857375145,-0.0011900467798113823,0.0005158260464668274
1717857928228502000,2.777501953125,0.0003311922773718834,-0.00023983139544725418,-0.001319092232733965
1717857928238543000,2.787543212890625,-0.0007231167983263731,0.00041730422526597977,-0.00036845775321125984
1717857928248584000,2.797583984375,-0.000497547211125493,0.0012293020263314247,0.0008800318464636803
1717857928258624000,2.8076240234375,-0.00041096704080700874,0.00013428088277578354,-0.0011505968868732452
1717857928268665000,2.8176650390625,0.0018860092386603355,-0.00016479287296533585,-0.0008147722110152245
1717857928278706200,2.8277060546875,0.0004966431297361851,-0.00017471984028816223,0.00043046940118074417
1717857928288747000,2.8377470703125,0.0014194282703101635,0.0003885384649038315,0.0001407172530889511
1717857928298788000,2.8477880859375,-0.0001657712273299694,-0.0013116905465722084,0.0006432840600609779
1717857928308828400,2.857828369140625,-0.000047260429710149765,-0.001049901358783245,-0.0001431475393474102
1717857928318869200,2.867869140625,-0.00042726146057248116,0.0007031764835119247,0.0010976754128932953
1717857928328910300,2.877910400390625,-0.0002325845416635275,-0.0010268129408359528,0.00029473239555954933
1717857928338951400,2.887951416015625,0.000450952909886837,0.0001292843371629715,0.0005900785326957703
1717857928348991500,2.897991455078125,0.00019715353846549988,-0.0005887039005756378,0.00067902822047472
1717857928359032300,2.9080322265625,0.000023581087589263916,-0.0016981619410216808,-0.0003033457323908806
1717857928369073400,2.918073486328125,-0.00133809307590127,-0.0008952189236879349,-0.0005667321383953094
1717857928379114500,2.928114501953125,0.0007781651802361012,0.0005522128194570541,0.0007953387685120106
1717857928389154600,2.938154541015625,0.00039227306842803955,-0.00015405751764774323,0.0005873460322618484
1717857928399195400,2.9481953125,-0.001106087351217866,-0.0002597244456410408,0.000887017697095871
1717857928409236500,2.958236572265625,0.00025691837072372437,-0.000055460259318351746,0.0004228283651173115
1717857928419277300,2.96827734375,-0.0005985586903989315,-0.00036819465458393097,-0.0006828885525465012
1717857928429317400,2.9783173828125,0.0005431384779512882,-0.00033836718648672104,0.0016066310927271843
1717857928439358500,2.9883583984375,0.000249259639531374,-0.0007757116109132767,-0.0009549986571073532
1717857928449399600,2.998399658203125,-0.0001510137226432562,-0.001264934428036213,0.00017364881932735443
1717857928459440400,3.0084404296875,0.00040448224171996117,-0.00026576779782772064,-0.0007720855064690113
1717857928469480400,3.01848046875,-0.0003622418735176325,-0.0004314165562391281,-0.0005542389117181301
1717857928479521500,3.028521484375,-0.00020836223848164082,-0.0005467226728796959,0.0012494944967329502
1717857928489562600,3.038562744140625,0.0009245462715625763,0.00114358589053154,0.0003938209265470505
1717857928499603500,3.048603515625,0.0018050014041364193,0.0001887185499072075,-0.0009269570000469685
1717857928509643300,3.058643310546875,0.0012468029744923115,0.0003311978653073311,-0.000505911186337471
1717857928519684400,3.068684326171875,0.00003464100882411003,-0.00030369870364665985,0.00001821853220462799
1717857928529725400,3.078725341796875,0.0004908405244350433,0.0003517046570777893,0.0011926726438105106
1717857928539766300,3.088766357421875,-0.0005369302816689014,-0.0006242888048291206,-0.0011894921772181988
1717857928549807400,3.098807373046875,-0.00033453013747930527,-0.000561172142624855,0.0010488945990800858
1717857928559847400,3.108847412109375,0.0011824979446828365,-0.0007695779204368591,0.0024253029841929674
1717857928569888300,3.11888818359375,0.0015697218477725983,0.00022511277347803116,0.001644730567932129
1717857928579929300,3.128929443359375,-0.000010949093848466873,-0.00024841632694005966,0.0013167220167815685
1717857928589970400,3.138970458984375,-0.0010048409458249807,-0.001748308539390564,0.0008296296000480652
1717857928600010500,3.149010498046875,-0.00044041406363248825,0.0003566984087228775,-0.0018976684659719467
1717857928610051300,3.15905126953125,-0.001145086484029889,-0.000014279969036579132,-0.00044624553993344307
1717857928620092400,3.169092529296875,-0.0009470367804169655,-0.00045762956142425537,0.0007521235384047031
1717857928630133500,3.179133544921875,-0.0006263921968638897,-0.0010179588571190834,0.00019738730043172836
1717857928640173300,3.18917333984375,0.0010658525861799717,0.0007773572579026222,-0.00017285440117120743
1717857928650214400,3.19921435546875,0.0002972641959786415,-0.00007432140409946442,0.001096141990274191
1717857928660255500,3.20925537109375,0.000011139549314975739,-0.0009819278493523598,-0.0009496561251580715
1717857928670296300,3.21929638671875,-0.00012920890003442764,-0.0009704763069748878,-0.0009829457849264145
1717857928680336400,3.22933642578125,0.0005487552843987942,0.0006679203361272812,-0.000019552651792764664
1717857928690377500,3.23937744140625,-0.00037243193946778774,0.0008162586018443108,0.0012539713643491268
1717857928700418600,3.24941845703125,-0.0008844842668622732,-0.001645849086344242,0.0006001302972435951
1717857928710459400,3.25945947265625,-0.0025889072567224503,-0.00025461427867412567,0.0013106614351272583
1717857928720500500,3.26950048828125,-0.0005766465328633785,0.0004187151789665222,-0.00020061107352375984
1717857928730540500,3.27954052734375,-0.0018549640662968159,-0.00042923539876937866,0.0007189782336354256
1717857928740581600,3.28958154296875,-0.002540919464081526,-0.0006677918136119843,0.0006889151409268379
1717857928750622500,3.29962255859375,-0.0006844298914074898,-0.0002560671418905258,0.00048571592196822166
1717857928760663600,3.30966357421875,0.0012488742358982563,-0.0004602540284395218,0.000430915504693985
1717857928770703400,3.319703369140625,-0.0009548917878419161,-0.001375049352645874,0.00009455811232328415
1717857928780744200,3.329744140625,0.00015056226402521133,0.00041383225470781326,-0.0008046752773225307
1717857928790785300,3.339785400390625,-0.0002126928884536028,0.0006817467510700226,0.0017937710508704185
1717857928800826400,3.349826416015625,-0.0006537830922752619,0.00025135837495326996,0.0013354686088860035
1717857928810866400,3.359866455078125,-0.0005445934366434813,0.00022153090685606003,-0.000011558178812265396
1717857928820907300,3.3699072265625,-0.0023552558850497007,-0.0014226259663701057,0.000201330054551363
1717857928830948400,3.3799482421875,-0.0009685477707535028,-0.000028993934392929077,-0.0004889615811407566
1717857928840989400,3.389989501953125,-0.00009026937186717987,0.0004257187247276306,0.0006880038417875767
1717857928851029500,3.400029541015625,-0.0008727060630917549,-0.00042223185300827026,0.00016842084005475044
1717857928861070300,3.4100703125,0.001058889552950859,-0.000021177344024181366,0.000038446392863988876
1717857928871111400,3.420111328125,0.001091113779693842,-0.0005479501560330391,0.0014254208654165268
1717857928881152500,3.430152587890625,0.0007990226149559021,0.00020983349531888962,0.0002462826669216156
1717857928891193300,3.440193359375,-0.0004366838838905096,0.0003531118854880333,0.0009301821701228619
1717857928901233400,3.4502333984375,0.000015087425708770752,-0.0012722611427307129,0.00019296351820230484
1717857928911274500,3.4602744140625,-0.000700770178809762,-0.002239521127194166,-0.0003306139260530472
1717857928921315300,3.4703154296875,-0.0020885737612843513,-0.0013131992891430855,-0.0014629550278186798
1717857928931356400,3.4803564453125,-0.0011556684039533138,-0.0005651172250509262,0.00003560539335012436
1717857928941396500,3.490396484375,-0.0016082224901765585,0.000535452738404274,0.00017325673252344131
1717857928951437600,3.5004375,-0.00014135334640741348,-0.0007375385612249374,0.0006387769244611263
1717857928961478400,3.510478515625,-0.0006977303419262171,-0.0018581077456474304,-0.0015985164791345596
1717857928971519500,3.52051953125,-0.000990145606920123,-0.0009281318634748459,-0.002126887906342745
1717857928981559600,3.5305595703125,0.000022380147129297256,-0.0010729534551501274,0.0007725059986114502
1717857928991600600,3.5406005859375,0.0007302481681108475,0.0011686300858855247,0.000253455713391304
1717857929001641500,3.550641357421875,0.001839492004364729,0.00011464674025774002,0.0001954995095729828
1717857929011682600,3.5606826171875,-0.00008011469617486,-0.00023502670228481293,-0.0005190265364944935
1717857929021722400,3.570722412109375,-0.000054142437875270844,-0.001875963993370533,-0.00036507006734609604
1717857929031763200,3.58076318359375,0.00013547437265515327,0.0006199507042765617,0.0002360055223107338
1717857929041804300,3.59080419921875,-0.0007806017529219389,0.0010030148550868034,0.0023431095760315657
1717857929051845400,3.600845458984375,-0.0010700873099267483,-0.0008135270327329636,0.0014003505930304527
1717857929061886200,3.61088623046875,0.001367584802210331,-0.001127399504184723,-0.001218145713210106
1717857929071926300,3.62092626953125,-0.0001522814854979515,-0.00040701404213905334,-0.0016093640588223934
1717857929081967400,3.63096728515625,0.000898401252925396,0.000006248243153095245,-0.0006189262494444847
1717857929092008400,3.641008544921875,-0.0004592782352119684,0.000858992338180542,0.0009201145730912685
1717857929102049300,3.65104931640625,0.0003923829644918442,-0.001067248173058033,-0.00023587234318256378
1717857929112089300,3.66108935546875,-0.000507232965901494,-0.0012648552656173706,0.000860284548252821
1717857929122130400,3.67113037109375,-0.0007395891007035971,0.00020018499344587326,0.0009316508658230305
1717857929132171500,3.681171630859375,-0.0006999080069363117,0.0005314825102686882,0.001072798389941454
1717857929142212400,3.69121240234375,-0.0011132815852761269,-0.00026762764900922775,0.00006747478619217873
1717857929152252400,3.70125244140625,-0.0008773256558924913,-0.0007129078730940819,0.0001292601227760315
1717857929162293500,3.71129345703125,0.00034309178590774536,-0.00046863872557878494,-0.0000043502077460289
1717857929172334300,3.721334228515625,0.0001713177189230919,0.0002059396356344223,-0.00007332582026720047
1717857929182375400,3.73137548828125,0.0009909775108098984,0.001318804919719696,0.00025726528838276863
1717857929192415500,3.74141552734375,-0.0002678988967090845,-0.00039067771285772324,-0.00043009640648961067
1717857929202456600,3.75145654296875,-0.0007311629597097635,0.00033498089760541916,0.0010581607930362225
1717857929212497400,3.761497314453125,-0.00017269793897867203,0.0003182031214237213,-0.000025212764739990234
1717857929222538500,3.77153857421875,-0.0023409537971019745,0.0007260944694280624,-0.001441781409084797
1717857929232579600,3.78157958984375,-0.0011806145776063204,0.0014912206679582596,-0.00022871186956763268
1717857929242619400,3.791619384765625,0.00048030028119683266,0.0018112603574991226,0.0018516522832214832
1717857929252660500,3.801660400390625,0.0006283721886575222,-0.0008260682225227356,-0.0002799420617520809
1717857929262701600,3.81170166015625,-0.0007589103188365698,0.0002521499991416931,-0.0014848955906927586
1717857929272742400,3.821742431640625,0.0005803932435810566,-0.0002285502851009369,0.0019750832580029964
1717857929282782200,3.8317822265625,-0.00010670488700270653,0.0009922152385115623,0.000904611311852932
1717857929292823300,3.8418232421875,-0.00027954415418207645,-0.0005148677155375481,-0.00041711563244462013
1717857929302864400,3.851864501953125,-0.0007590216118842363,-0.0004957597702741623,0.0011174962855875492
1717857929312905200,3.8619052734375,-0.0003443674650043249,0.00007522199302911758,0.0005132248625159264
1717857929322945300,3.8719453125,0.0010020360350608826,-0.0003712885081768036,0.0005981116555631161
1717857929332986400,3.881986328125,-0.000850458862259984,0.0010172836482524872,0.00044631119817495346
1717857929343027500,3.89202734375,0.0014300583861768246,-0.0012833084911108017,0.0010959282517433167
1717857929353068300,3.902068359375,-0.000842683482915163,0.0003702482208609581,-0.00024337554350495338
1717857929363109400,3.912109375,-0.00041913706809282303,0.0003287205472588539,0.00097762793302536
1717857929373149200,3.922149169921875,-0.0010535020846873522,-0.0007402719929814339,-0.0014983126893639565
1717857929383190300,3.932190185546875,0.0006284485571086407,-0.0005631474778056145,0.001328896265476942
1717857929393231000,3.942231201171875,0.0001400248147547245,-0.00002332497388124466,-0.001030930783599615
1717857929403272200,3.952272216796875,-0.0008801028598099947,-0.0011460203677415848,0.0008300826884806156
1717857929413312300,3.962312255859375,-0.0002249651588499546,0.00031126104295253754,-0.0005789957940578461
1717857929423353000,3.97235302734375,-0.0012914121616631746,0.0006113536655902863,0.000708932988345623
1717857929433394200,3.982394287109375,-0.0007276209071278572,0.00043531879782676697,0.0008998820558190346
1717857929443435300,3.992435302734375,-0.0008855222258716822,-0.00045833364129066467,-0.00028840312734246254
1717857929453475300,4.002475341796875,0.00023939693346619606,0.0003182440996170044,0.0008860509842634201
1717857929463516200,4.01251611328125,0.00097323814406991,-0.000633634626865387,0.0008029034361243248
1717857929473557200,4.02255712890625,-0.0005210614763200283,0.0008649257943034172,-0.00005703093484044075
1717857929483598300,4.032598388671875,0.0018562437035143375,0.0003221388906240463,0.0002485397271811962
1717857929493639200,4.04263916015625,-0.0008905406575649977,-0.00010822806507349014,-0.0002659829333424568
1717857929503679200,4.05267919921875,-0.0010138165671378374,-0.001230599358677864,0.001099847722798586
1717857929513720300,4.06272021484375,0.0007758275605738163,0.0018227146938443184,-0.00001069018617272377
1717857929523761200,4.07276123046875,0.0001550614833831787,-0.0006669973954558372,-0.000333231408149004
1717857929533802200,4.08280224609375,-0.00010193372145295143,-0.0005199909210205078,0.0008617285639047623
1717857929543842300,4.09284228515625,-0.0005345966201275587,-0.00027534738183021545,-0.0010822354815900326
1717857929553883400,4.10288330078125,0.00001055235043168068,-0.0011885454878211021,-0.0005288305692374706
1717857929563924200,4.11292431640625,0.0013080108910799026,-0.000713590532541275,-0.001678170170634985
1717857929573965300,4.12296533203125,0.00043316278606653214,-0.0002864198759198189,-0.00032768119126558304
1717857929584005400,4.13300537109375,-0.001165576744824648,0.0009245267137885094,0.0005538449622690678
1717857929594046500,4.14304638671875,0.00015082396566867828,0.0007160007953643799,0.0011487947776913643
1717857929604087300,4.15308740234375,-0.00012203166261315346,-0.001601384487003088,-0.0018654512241482735
1717857929614128400,4.16312841796875,0.0005813091993331909,0.00013100169599056244,-0.0003101648762822151
1717857929624169500,4.17316943359375,0.000611625611782074,-0.00003160908818244934,0.0004257122054696083
1717857929634209300,4.183209228515625,0.00022653257474303246,-0.0006356146186590195,0.00008855573832988739
1717857929644250000,4.19325,0.00009102281183004379,-0.0007992014288902283,0.00022217771038413048
1717857929654291200,4.203291259765625,0.0006486885249614716,-0.0003637745976448059,-0.0008678538724780083
1717857929664332000,4.21333203125,-0.0012690334115177393,0.0005931444466114044,0.00006343144923448563
1717857929674372000,4.2233720703125,-0.00026848376728594303,0.00023681391030550003,0.00010444410145282745
1717857929684413200,4.2334130859375,-0.001131104538217187,-0.0015892828814685345,0.0003356100060045719
1717857929694454300,4.243454345703125,-0.0009071326348930597,0.000697840005159378,0.0004930030554533005
1717857929704495000,4.2534951171875,-0.0010681746061891317,-0.00020220503211021423,0.0004160115495324135
1717857929714535200,4.26353515625,-0.0006298182997852564,-0.0009902343153953552,0.0006085583008825779
1717857929724576300,4.273576171875,0.001463817898184061,0.0001249760389328003,0.0011761984787881374
1717857929734617300,4.283617431640625,-0.000539412023499608,0.00006825104355812073,0.0015993746928870678
1717857929744658200,4.293658203125,-0.00020493241026997566,0.0013761390000581741,0.0012260591611266136
1717857929754699300,4.30369921875,0.001530117355287075,-0.000028145499527454376,-0.0003542606718838215
1717857929764739300,4.3137392578125,0.00024250801652669907,-0.0004682512953877449,-0.000778301153331995
1717857929774780200,4.3237802734375,-0.0010967955458909273,-0.001524460967630148,0.00030667055398225784
1717857929784821200,4.3338212890625,-0.00006315391510725021,-0.00014739111065864563,-0.0008340422064065933
1717857929794862300,4.3438623046875,-0.0002397212665528059,-0.00009785592555999756,-0.0003858325071632862
1717857929804902400,4.35390234375,-0.00032041920349001884,0.0005520367994904518,-0.0004357043653726578
1717857929814943200,4.363943115234375,0.0005821259692311287,0.00007053744047880173,-0.00047405390068888664
1717857929824984300,4.373984375,0.00031834840774536133,0.00031404849141836166,0.00026131514459848404
1717857929835025400,4.384025390625,0.00010875752195715904,-0.00018635950982570648,0.0002008615992963314
1717857929845065500,4.3940654296875,0.00005674455314874649,0.0008237669244408607,-0.0006583649665117264
1717857929855106300,4.404106201171875,-0.0020170591305941343,-0.00021886080503463745,0.0009789462201297283
1717857929865147400,4.4141474609375,-0.0006804692093282938,0.0015453454107046127,0.001212187111377716
1717857929875188200,4.424188232421875,0.000288122333586216,0.0009653093293309212,-0.0006392421200871468
1717857929885229300,4.434229248046875,-0.00006806338205933571,-0.00044449884444475174,0.0006974642165005207
1717857929895269000,4.44426904296875,-0.0003716638311743736,-0.0012730080634355545,0.0006524566560983658
1717857929905310200,4.454310302734375,-0.0010608434677124023,-0.0005263695493340492,-0.0001320047304034233
1717857929915351000,4.46435107421875,-0.001255520386621356,-0.00048775412142276764,-0.00009578559547662735
1717857929925392100,4.47439208984375,-0.000006697140634059906,-0.00010520964860916138,0.0007604309357702732
1717857929935432200,4.48443212890625,0.0003794613294303417,-0.0005262549966573715,0.00012020673602819443
1717857929945473300,4.494473388671875,0.0002736523747444153,-0.0008810805156826973,0.0005012541078031063
1717857929955514000,4.50451416015625,-0.00041584018617868423,-0.0014424743130803108,-0.000016730744391679764
1717857929965555200,4.51455517578125,0.0005358406342566013,0.00041111279278993607,-0.00040292879566550255
1717857929975596300,4.52459619140625,-0.00034619844518601894,0.000020959414541721344,0.00016405805945396423
1717857929985636400,4.53463623046875,-0.00046250689774751663,-0.00003158021718263626,0.0006325454451143742
1717857929995677200,4.54467724609375,-0.001028961269184947,-0.0002070823684334755,-0.00010834634304046631
1717857930005718300,4.55471826171875,0.00011254707351326942,-0.0014590863138437271,-0.00008030608296394348
1717857930015759000,4.564759033203125,0.0011003133840858936,-0.0007440280169248581,-0.00031413184478878975
1717857930025799200,4.574799072265625,0.0002479972317814827,-0.0008413353934884071,-0.0003293100744485855
1717857930035840300,4.58484033203125,-0.0025738882832229137,-0.0012557227164506912,-0.0005516842938959599
1717857930045881300,4.59488134765625,0.00017885258421301842,-0.0010379524901509285,-0.0006383471190929413
1717857930055922200,4.604922119140625,-0.00021795835345983505,-0.001295480877161026,0.00021599465981125832
1717857930065962200,4.614962158203125,0.0011400394141674042,0.0009590256959199905,0.0012237923219799995
1717857930076003300,4.62500341796875,0.00033043837174773216,0.00024529825896024704,0.0006727841682732105
1717857930086044400,4.63504443359375,-0.0016669232863932848,-0.0007336921989917755,-0.0008354056626558304
1717857930096085200,4.645085205078125,-0.0002578448038548231,0.0002114633098244667,0.00025941990315914154
1717857930106125300,4.655125244140625,0.00007596984505653381,-0.0005859648808836937,0.0011912272311747074
1717857930116166400,4.66516650390625,-0.00031924317590892315,0.0005171168595552444,0.000755800399929285
1717857930126207200,4.675207275390625,0.00029136473312973976,-0.00012585334479808807,-0.00019480660557746887
1717857930136248300,4.685248291015625,0.0006199986673891544,-0.0005729980766773224,0.00029841111972928047
1717857930146289400,4.695289306640625,0.00027353595942258835,-0.00020484905689954758,-0.0008266144432127476
1717857930156329200,4.7053291015625,0.0005238731391727924,-0.0005308203399181366,0.0009550401009619236
1717857930166370000,4.7153701171875,-0.0008465941064059734,-0.0003700321540236473,-0.0001575518399477005
1717857930176411100,4.7254111328125,-0.0005230200476944447,0.0003934968262910843,-0.000563417561352253
1717857930186452200,4.7354521484375,-0.000679744640365243,-0.0007952991873025894,-0.00006419513374567032
1717857930196492300,4.7454921875,-0.000652580289170146,-0.00028130877763032913,-0.0008429032750427723
1717857930206533000,4.755533203125,-0.0011303958017379045,-0.0003729425370693207,-0.00009464286267757416
1717857930216574200,4.76557421875,-0.000738644739612937,-0.0011362042278051376,0.00008538691326975822
1717857930226615300,4.775615234375,0.0013057827018201351,-0.00003201514482498169,-0.0007445481605827808
1717857930236656000,4.78565625,-0.0005898554809391499,0.000024709850549697876,-0.000146402046084404
1717857930246696200,4.7956962890625,-0.0007444343063980341,-0.00001968350261449814,0.0007443465292453766
1717857930256737300,4.8057373046875,-0.0003955601714551449,0.0010791365057229996,-0.0006106696091592312
1717857930266778000,4.815778076171875,-0.0030731926672160625,0.000521351583302021,0.001469696406275034
1717857930276819200,4.825819091796875,0.0002464377321302891,-0.000495176762342453,-0.0004970482550561428
1717857930286859300,4.835859375,-0.0010747532360255718,0.0001969803124666214,0.0004201051779091358
1717857930296900400,4.845900390625,-0.000753575935959816,0.0002989796921610832,-0.0003266450949013233
1717857930306941200,4.855941162109375,-0.00024368870072066784,-0.0012421654537320137,-0.00026456406340003014
1717857930316981800,4.865981689453125,0.0016396986320614815,0.00015626009553670883,0.00010082172229886055
1717857930327021800,4.876021728515625,0.0004033721052110195,-0.0012427177280187607,0.0013059396296739578
1717857930337063000,4.88606298828125,0.0011924668215215206,-0.00021127518266439438,0.0006566611118614674
1717857930347103700,4.896103759765625,0.001021294854581356,0.0002735089510679245,-0.00010476447641849518
1717857930357144800,4.906144775390625,-0.0005121533758938313,-0.0009060045704245567,-0.00006508314982056618
1717857930367186000,4.91618603515625,0.00043646013364195824,-0.0006046891212463379,-0.0013195606879889965
1717857930377226000,4.92622607421875,0.00027959980070590973,0.000042458996176719666,0.0012820814736187458
1717857930387266800,4.936266845703125,0.0009915432892739773,0.000791085883975029,-0.00015177903696894646
1717857930397308000,4.946307861328125,0.00011190120130777359,-0.00046992115676403046,0.0002695326693356037
1717857930407349000,4.956348876953125,-0.000033735763281583786,-0.000004952773451805115,-0.0018152715638279915
1717857930417388800,4.966388916015625,0.0007026279345154762,-0.0006395839154720306,-0.00006051454693078995
1717857930427430000,4.976429931640625,-0.0016335977707058191,0.0001107221469283104,-0.00036521535366773605
1717857930437471000,4.986470947265625,-0.00039762468077242374,0.000011919066309928894,0.0005394602194428444
1717857930447511800,4.99651171875,0.0010498068295419216,-0.001759811770170927,0.0006103222258388996
1717857930457553000,5.006552978515625,-0.00005860114470124245,-0.00023355428129434586,-0.0011843820102512836
1717857930467593000,5.016593017578125,-0.0007379630114883184,-0.0007616821676492691,0.00028082868084311485
1717857930477634000,5.026634033203125,-0.0001637856476008892,-0.0006429050117731094,0.00004993239417672157
1717857930487675000,5.0366748046875,0.000618509016931057,0.000026763416826725006,0.000022123102098703384
1717857930497716000,5.046716064453125,-0.0008576810359954834,0.0001711072400212288,0.000642639584839344
1717857930507755800,5.056755859375,0.001614158507436514,-0.0001710960641503334,0.00023817643523216248
1717857930517796900,5.066796875,0.00053824158385396,-0.0011876244097948074,0.00039370497688651085
1717857930527837700,5.076837646484375,-0.0003601845819503069,-0.0012022852897644043,-0.0005657714791595936
1717857930537878800,5.086878662109375,0.001340509857982397,-0.0008499491959810257,-0.0004232926294207573
1717857930547918800,5.0969189453125,0.0003840033896267414,-0.00016936752945184708,0.0001200363039970398
1717857930557959700,5.106959716796875,0.0002026418223977089,0.00017950590699911118,0.0008228444494307041
1717857930568000800,5.117000732421875,-0.0006491499952971935,0.0001343805342912674,0.0004078359343111515
1717857930578041900,5.127041748046875,-0.0011074799112975597,-0.00007201451808214188,0.0003047715872526169
1717857930588082700,5.137082763671875,-0.00018431805074214935,-0.0012758160009980202,0.0016836784780025482
1717857930598122800,5.147122802734375,-0.0002639465965330601,-0.0006515709683299065,0.0005393181927502155
1717857930608163800,5.157163818359375,0.00010834913700819016,0.00007353071123361588,0.000008967239409685135
1717857930618205000,5.167204833984375,0.0009448481723666191,0.0016844766214489937,0.0008728965185582638
1717857930628245800,5.177245849609375,-0.0004895157180726528,-0.0010744249448180199,0.000649541150778532
1717857930638285800,5.187285888671875,-0.00039976718835532665,-0.00017800461500883102,-0.0007531456649303436
1717857930648327000,5.197326904296875,0.0007489919662475586,-0.0009053358808159828,0.0011747055687010288
1717857930658368000,5.207367919921875,-0.001185794360935688,-0.0002118488773703575,0.000056444201618433
1717857930668408800,5.217408935546875,-0.00043515744619071484,0.00021835975348949432,0.0005164849571883678
1717857930678450000,5.227449951171875,-0.0008085328154265881,0.0002636341378092766,-0.0010563782416284084
1717857930688490000,5.237489990234375,-0.0008224411867558956,0.0009031137451529503,-0.0014022169634699821
1717857930698530800,5.24753076171875,0.0002827704884111881,-0.0006644232198596001,-0.0005950131453573704
1717857930708572000,5.257572021484375,-0.0008922962006181479,-0.0007118638604879379,-0.0005879332311451435
1717857930718613000,5.267613037109375,0.00006191432476043701,0.00007163826376199722,-0.0009655696339905262
1717857930728653000,5.277653076171875,0.0005092509090900421,0.0002445848658680916,0.0005941707640886307
1717857930738694000,5.28769384765625,-0.00016053393483161926,-0.0002686064690351486,0.0011241398751735687
1717857930748735000,5.29773486328125,-0.0009112153202295303,0.00020211748778820038,-0.0006158915348351002
1717857930758776000,5.307776123046875,0.001924518495798111,0.0013954807072877884,0.00019264407455921173
1717857930768815900,5.31781591796875,0.0005896175280213356,-0.00009200535714626312,0.0006203758530318737
1717857930778856700,5.327856689453125,0.00037416815757751465,0.0011157384142279625,-0.0016904487274587154
1717857930788897800,5.337897705078125,0.00008526956662535667,0.000491204671561718,0.0002239844761788845
1717857930798938600,5.347938720703125,0.0017654579132795334,0.0012459447607398033,-0.0010924162343144417
1717857930808979700,5.357979736328125,-0.00022583361715078354,0.00017068814486265182,0.0008749533444643021
1717857930819019800,5.368019775390625,-0.0006934846751391888,0.0010119806975126266,0.0004621632397174835
1717857930829060900,5.378060791015625,0.0015779021196067333,0.0012952769175171852,-0.0006341012194752693
1717857930839101700,5.388101806640625,0.0005850759334862232,0.0015354938805103302,0.001924663782119751
1717857930849142800,5.398142822265625,0.00006860168650746346,-0.000011769123375415802,0.0005737235769629478
1717857930859182800,5.408182861328125,0.0003410433419048786,0.00024229567497968674,0.00018143979832530022
1717857930869224000,5.418223876953125,0.0014701983891427517,-0.0007196161895990372,-0.000981369987130165
1717857930879264800,5.4282646484375,-0.00042357551865279675,0.0005001118406653404,-0.0003949417732656002
1717857930889305900,5.438305908203125,-0.0003671129234135151,-0.0005421144887804985,-1.4388933777809143e-7
1717857930899347000,5.448346923828125,0.0005202526226639748,-0.00010189320892095566,0.0018880371935665607
1717857930909386800,5.45838671875,0.0007513714954257011,0.00007084943354129791,0.0002798852510750294
1717857930919427800,5.468427734375,-0.0009551821276545525,-0.00007642339915037155,-0.001989128068089485
1717857930929469000,5.478468994140625,0.0006953584961593151,-0.00033366959542036057,0.0002694474533200264
1717857930939509800,5.488509765625,-0.0009225117973983288,0.00020029395818710327,-0.0007191179320216179
1717857930949549800,5.4985498046875,-0.0009512214455753565,0.0002830876037478447,0.00047167856246232986
1717857930959591000,5.5085908203125,-0.00009874347597360611,-0.00017311237752437592,0.00027513736858963966
1717857930969632000,5.518632080078125,0.001201743260025978,-0.001677333377301693,0.00014447839930653572
1717857930979672800,5.5286728515625,-0.000021979212760925293,0.0003575878217816353,-0.000960999634116888
1717857930989713000,5.538712890625,-0.0010222273413091898,-0.0002728532999753952,-0.0003176177851855755
1717857930999754000,5.54875390625,0.0008925856091082096,-0.0003857705742120743,0.0009087678045034409
1717857931009795000,5.558795166015625,-0.0003084172494709492,-0.0002436116337776184,0.00014786794781684875
1717857931019836000,5.5688359375,-0.0020818160846829414,0.000246942974627018,-0.00044868001714348793
1717857931029877000,5.578876953125,0.0012027481570839882,0.0012325532734394073,-0.000648953951895237
1717857931039916800,5.588916748046875,0.0009092674590647221,0.00039871782064437866,0.0005950084887444973
1717857931049957600,5.59895751953125,-0.0004392110276967287,-0.0012788278982043266,0.0008640754967927933
1717857931059998700,5.608998779296875,0.0007940991781651974,-0.0010082507506012917,0.00014022830873727798
1717857931070039800,5.619039794921875,-0.0003592714201658964,-0.001322832889854908,0.0013700085692107677
1717857931080080000,5.629079833984375,-0.0004061430227011442,-0.000010959804058074951,0.0011987672187387943
1717857931090120700,5.63912060546875,-0.0013254033401608467,0.001462089829146862,0.0013275849632918835
1717857931100161800,5.649161865234375,0.00006370153278112411,0.001984069123864174,0.0013297153636813164
1717857931110203000,5.659202880859375,0.00000945432111620903,0.00032573379576206207,0.00011092610657215118
1717857931120243700,5.66924365234375,-0.00033915345557034016,-0.00017733685672283173,0.000047276727855205536
1717857931130283800,5.67928369140625,-0.0011634421534836292,0.00035896431654691696,-0.0006165034137666225
1717857931140324900,5.689324951171875,-0.00023559690453112125,-0.0010850019752979279,0.0009363857097923756
1717857931150366000,5.699365966796875,0.0011964351870119572,-0.0003978228196501732,0.0002064141444861889
1717857931160406800,5.70940673828125,-0.00046298070810735226,0.0004197675734758377,0.0011952458880841732
1717857931170446800,5.71944677734375,-0.0005873548798263073,-0.000752398744225502,-0.0006903926841914654
1717857931180488000,5.729488037109375,0.00020546792075037956,-0.00086185522377491,0.0006848638877272606
1717857931190528800,5.73952880859375,-0.0006864774040877819,-0.0009596347808837891,0.0011509284377098083
1717857931200569900,5.74956982421875,-0.00030244956724345684,0.00045477040112018585,-0.0006397813558578491
1717857931210611000,5.75961083984375,0.0002823304384946823,-0.002143546473234892,0.0009468207135796547
1717857931220651000,5.769651123046875,0.00011961115524172783,0.000024266541004180908,0.0006829011254012585
1717857931230691800,5.77969189453125,-0.0005731179844588041,-0.002099870704114437,-0.000171540305018425
1717857931240733000,5.78973291015625,0.002183786127716303,-0.00014404486864805222,-0.000049567315727472305
1717857931250774000,5.79977392578125,0.0010222145356237888,-0.0002542715519666672,-0.000014405231922864914
1717857931260813800,5.809813720703125,0.0010485798120498657,-0.0004002135246992111,0.00013499846681952477
1717857931270855000,5.81985498046875,-0.0006070965901017189,0.000012662261724472046,-0.000020761042833328247
1717857931280896000,5.82989599609375,0.00011675059795379639,0.0006262548267841339,-0.00014300039038062096
1717857931290936800,5.839936767578125,-0.000944493105635047,-0.0011563664302229881,-0.0005973586812615395
1717857931300978000,5.84997802734375,-0.0018185426015406847,0.00029212702065706253,-0.000029839109629392624
1717857931311018200,5.860018310546875,0.00014620134606957436,0.00032736267894506454,-0.000943395309150219
1717857931321059300,5.870059326171875,0.0006884210743010044,-0.00021219439804553986,-0.00020889518782496452
1717857931331100200,5.88010009765625,0.0014868942089378834,-0.0005855271592736244,-0.00005911383777856827
1717857931341141200,5.890141357421875,-0.001598644070327282,-0.0006031040102243423,0.001797109842300415
1717857931351181300,5.900181396484375,-0.0016356499399989843,-0.0005771545693278313,0.0012529422529041767
1717857931361222100,5.91022216796875,-0.00048649590462446213,-0.0010653119534254074,0.0008239070884883404
1717857931371263200,5.92026318359375,0.00002952292561531067,-0.0012379465624690056,0.00019786274060606956
1717857931381304300,5.93030419921875,0.00041807815432548523,-0.0004155626520514488,0.0005552591755986214
1717857931391345200,5.94034521484375,-0.0005682611372321844,-0.0012968946248292923,0.00016961712390184402
1717857931401385200,5.95038525390625,-0.0016337917186319828,0.0007923552766442299,-0.0006602238863706589
1717857931411426300,5.96042626953125,0.0006140246987342834,0.0003287671133875847,-0.0006221500225365162
1717857931421467400,5.97046728515625,0.000996720977127552,0.0003154519945383072,-0.00033878954127430916
1717857931431508200,5.98050830078125,0.00040490180253982544,-0.001368928700685501,0.00024471525102853775
1717857931441548300,5.99054833984375,-0.0010318735148757696,0.00033389683812856674,0.00010729627683758736
1717857931451589400,6.00058935546875,0.0009724297560751438,-0.0005913972854614258,-0.0008881497196853161
1717857931461630500,6.01063037109375,-0.00041161500848829746,-0.0008244244381785393,-0.00043967366218566895
1717857931471671300,6.02067138671875,-0.000458060996606946,0.0010516848415136337,-0.0003308132290840149
1717857931481712400,6.03071240234375,0.0002692481502890587,0.0017334548756480217,-0.0004061805084347725
1717857931491752200,6.040752197265625,-0.0011328705586493015,-0.0013180430978536606,0.0009825676679611206
1717857931501793000,6.05079296875,0.0008703591302037239,0.000005814246833324432,-0.00047311605885624886
1717857931511834000,6.060834228515625,-0.00012195715680718422,-0.0004764283075928688,0.0006896485574543476
1717857931521875200,6.070875244140625,0.0010210718028247356,-0.00002848450094461441,-0.00025257794186472893
1717857931531915300,6.080915283203125,-0.0009550896938890219,-0.00008581113070249557,-0.0007673935033380985
1717857931541956000,6.0909560546875,-0.00017345184460282326,-0.00010818149894475937,-0.0000012023374438285828
1717857931551997200,6.1009970703125,-0.0003408091142773628,-0.0006069261580705643,0.0008469135500490665
1717857931562038300,6.111038330078125,-0.0008199119474738836,-0.00038961227983236313,0.0003616856411099434
1717857931572079000,6.1210791015625,0.0004319152794778347,0.00006858073174953461,-0.00045547960326075554
1717857931582119200,6.131119140625,0.00035787932574748993,-0.0006352933123707771,-0.00043816911056637764
1717857931592160300,6.14116015625,0.0010502319782972336,-0.0018345555290579796,0.00045821908861398697
1717857931602201300,6.151201416015625,0.00007418356835842133,-0.0013250922784209251,-0.00011462671682238579
1717857931612242200,6.1612421875,-0.0006350758485496044,0.00022298190742731094,-0.0006972397677600384
1717857931622282200,6.1712822265625,-0.0003876681439578533,0.00009461771696805954,-0.00012146448716521263
1717857931632323300,6.1813232421875,-0.001395809929817915,-0.0011345082893967628,0.0006725527346134186
1717857931642364200,6.1913642578125,-0.00015291268937289715,0.0005512731149792671,-0.0004768674261868
1717857931652405200,6.2014052734375,-0.0000056480057537555695,-0.0005948012694716454,-0.00019529787823557854
1717857931662446300,6.2114462890625,-0.0018456259276717901,-0.0003426000475883484,0.0011432068422436714
1717857931672486400,6.221486328125,0.00186528405174613,-0.000027985312044620514,0.0008939644321799278
1717857931682527200,6.23152734375,-0.00004766462370753288,0.001117439940571785,-0.0007513365708291531
1717857931692568300,6.241568359375,-0.0005293665453791618,0.0003802664577960968,-0.0012901988811790943
1717857931702609400,6.251609375,0.0007556085474789143,0.0005214139819145203,-0.0013112379238009453
1717857931712649500,6.2616494140625,0.0010923580266535282,0.00023323297500610352,-0.0006271512247622013
1717857931722690300,6.271690185546875,0.0008995453827083111,-0.0027119573205709457,-0.0004274141974747181
1717857931732731400,6.2817314453125,-0.0026552213821560144,-0.0014059962704777718,0.0007836525328457355
1717857931742772200,6.291772216796875,-0.0009864845778793097,-0.0009596506133675575,0.00024729175493121147
1717857931752813300,6.301813232421875,0.00028756819665431976,0.0009624455124139786,-0.0002826550044119358
1717857931762853000,6.31185302734375,-0.00024293363094329834,-0.0008772658184170723,-0.0005835923366248608
1717857931772894200,6.321894287109375,0.0011538923718035221,0.00017977319657802582,-0.0007372032850980759
1717857931782935000,6.33193505859375,-0.000016300473362207413,-0.00008654315024614334,0.0007736077532172203
1717857931792976100,6.34197607421875,-0.0008632692042738199,-0.0012471657246351242,-0.0005899583920836449
1717857931803016200,6.35201611328125,0.0013412954285740852,-0.0037611904554069042,0.0012574763968586922
1717857931813057300,6.362057373046875,-0.0005380988586694002,0.0006532883271574974,0.0006148307584226131
1717857931823098000,6.37209814453125,0.000004653353244066238,0.0007678046822547913,-0.0002682735212147236
1717857931833139200,6.38213916015625,0.0000713597983121872,-0.0007865065708756447,-0.00011950172483921051
1717857931843180300,6.39218017578125,0.00003940192982554436,-0.0013969028368592262,-0.00008807657286524773
1717857931853220400,6.402220458984375,-0.00048601021990180016,-0.00005195103585720062,0.00016998685896396637
1717857931863261200,6.41226123046875,-0.000672964146360755,0.00009372364729642868,-0.00011337362229824066
1717857931873302300,6.42230224609375,-0.0002644532360136509,-0.0003505609929561615,0.000015057623386383057
1717857931883343000,6.432343017578125,0.000272972509264946,0.000003905966877937317,0.00016073277220129967
1717857931893384200,6.44238427734375,-0.0009949537925422192,-0.0013171136379241943,-0.0013694982044398785
1717857931903424300,6.45242431640625,-0.00169935985468328,-0.0007543871179223061,0.0008598337881267071
1717857931913465300,6.46246533203125,0.0006965496577322483,-0.0010158456861972809,0.0010536671616137028
1717857931923506200,6.472506103515625,-0.00019880500622093678,-0.0013508722186088562,-0.001637723296880722
1717857931933547300,6.48254736328125,-0.0012165179941803217,-0.0007536625489592552,-0.0009523811750113964
1717857931943587300,6.49258740234375,0.0004578111693263054,-0.0001272875815629959,0.0013688299804925919
1717857931953628400,6.50262841796875,0.0005558966659009457,-0.0008523492142558098,0.00028292788192629814
1717857931963669200,6.512669189453125,0.0002925102598965168,-0.00004541128873825073,-0.00023425789549946785
1717857931973710300,6.52271044921875,0.00028675375506281853,0.000012366101145744324,0.0009607649408280849
1717857931983751400,6.53275146484375,-0.0014339147601276636,-0.001162353903055191,0.0007362603209912777
1717857931993791200,6.542791259765625,0.0007072691805660725,-0.0000073285773396492004,-0.001658703200519085
1717857932003832300,6.552832275390625,-0.0009835718665271997,0.000938093289732933,0.0006638392806053162
1717857932013873400,6.562873291015625,0.00127790542319417,-0.0002287011593580246,0.0001178099773824215
1717857932023914200,6.572914306640625,-0.001391114667057991,-0.0005200514569878578,-0.0008475859649479389
1717857932033954000,6.5829541015625,-0.0012355409562587738,-0.0014429455623030663,-0.0007385294884443283
1717857932043995100,6.5929951171875,0.0015876758843660355,0.00035921577364206314,0.00029451074078679085
1717857932054036200,6.6030361328125,0.0003679729998111725,0.00016579311341047287,-0.0006577279418706894
1717857932064077000,6.6130771484375,-0.0010075496975332499,0.0010915081948041916,-0.0003717043437063694
1717857932074118100,6.6231181640625,-0.0002318182960152626,-0.0004736119881272316,-0.0005846680141985416
1717857932084158200,6.633158203125,0.0015690112486481667,-0.0001652175560593605,0.00022866157814860344
1717857932094199300,6.64319921875,-0.001457019941881299,0.000195981003344059,-0.00011076219379901886
1717857932104240000,6.653240234375,-0.0002687175292521715,0.0005102334544062614,-0.0008322121575474739
1717857932114281200,6.66328125,0.00011550774797797203,-0.000821998342871666,0.0008749822154641151
1717857932124322000,6.673322021484375,0.0002963361330330372,-0.00007950887084007263,0.0006161229684948921
1717857932134362000,6.683362060546875,-0.0004130087327212095,-0.0011568274348974228,-0.0005266298539936543
1717857932144403200,6.6934033203125,-0.0001072778832167387,0.00008127652108669281,0.0000076000578701496124
1717857932154444300,6.7034443359375,-0.001226052176207304,0.00020603090524673462,0.0004909206181764603
1717857932164485000,6.713485107421875,0.0007020765915513039,-0.00003498513251543045,-0.00002200435847043991
1717857932174525200,6.723525146484375,-0.0005531113129109144,0.0012114513665437698,-0.0019885427318513393
1717857932184566300,6.733566162109375,0.0009382585994899273,-0.0006903121247887611,0.000546786468476057
1717857932194607400,6.743607421875,-0.0008047409355640411,-0.0013264864683151245,0.00008222274482250214
1717857932204648200,6.753648193359375,-0.0012159331236034632,-0.00009663868695497513,-0.0016059549525380135
1717857932214689300,6.763689208984375,-0.0007016747258603573,-0.0011506862938404083,-0.000052070245146751404
1717857932224729300,6.773729248046875,-0.00011977390386164188,0.0009382972493767738,-0.0011048181913793087
1717857932234770200,6.783770263671875,0.0005046827718615532,0.0005992026999592781,-0.0008742716163396835
1717857932244811300,6.793811279296875,0.0009584855288267136,-0.000658341683447361,-0.0006684092804789543
1717857932254852400,6.803852294921875,0.0009155855514109135,0.000749451108276844,0.00011005718261003494
1717857932264892400,6.813892333984375,0.000509453471750021,0.0008024480193853378,0.0010605393908917904
1717857932274933200,6.823933349609375,-0.0010331468656659126,-0.00044367462396621704,-0.00022493582218885422
1717857932284974300,6.833974365234375,0.0012957872822880745,-0.0009315656498074532,0.000303435605019331
1717857932295015400,6.844015380859375,-0.000371596310287714,0.0005185948684811592,-0.0014564543962478638
1717857932305056300,6.85405615234375,0.0010228347964584827,0.0009819846600294113,-0.00021728547289967537
1717857932315096000,6.864095947265625,-0.0003701781388372183,-0.00007011555135250092,-0.0006279461085796356
1717857932325137200,6.87413720703125,-0.00034647597931325436,0.0006630532443523407,0.0005608890205621719
1717857932335178200,6.88417822265625,-0.0002173837274312973,-0.0005918936803936958,-0.000021690502762794495
1717857932345219000,6.894218994140625,-0.001091699581593275,-0.00037218257784843445,-0.0008568577468395233
1717857932355259000,6.9042587890625,0.00022786715999245644,-0.00013823993504047394,-0.00006899842992424965
1717857932365300000,6.914300048828125,-0.00011008791625499725,-0.0004626130685210228,0.001068970188498497
1717857932375341000,6.924341064453125,0.00018428033217787743,-0.0014007175341248512,0.000548231415450573
1717857932385382000,6.9343818359375,0.001671389676630497,-0.00036741141229867935,0.0003287866711616516
1717857932395423000,6.944423095703125,-0.0014243698678910732,0.000008454546332359314,0.00038521550595760345
1717857932405463000,6.954463134765625,-0.00026616104878485203,-0.00006611458957195282,0.0001495257019996643
1717857932415504000,6.96450390625,-0.00012039626017212868,-0.0005296133458614349,-0.0002881293185055256
1717857932425545000,6.974544921875,-0.00046660727821290493,-0.0004294784739613533,-0.0011555212549865246
1717857932435586000,6.9845859375,0.0004387395456433296,-0.0005032476037740707,-0.0019366652704775333
1717857932445626000,6.994626220703125,-0.0001567432191222906,0.00016254279762506485,-0.0006431681104004383
1717857932455667000,7.0046669921875,-0.0003458887804299593,-0.0005804235115647316,0.00021656928583979607
1717857932465708000,7.0147080078125,0.001330837607383728,0.00030321255326271057,0.0007750340737402439
1717857932475749000,7.0247490234375,-0.00048513012006878853,-0.00037887413054704666,-0.00017100805416703224
1717857932485790000,7.0347900390625,-0.00018685590475797653,0.0009742779657244682,-0.000257294625043869
1717857932495830000,7.044830078125,0.000800092238932848,-0.0013769427314400673,-0.0008498490788042545
1717857932505871000,7.05487109375,-0.00003720540553331375,0.0004862053319811821,-0.0008812742307782173
1717857932515912000,7.064911865234375,0.0005937283858656883,0.000046401284635066986,-0.001575165893882513
1717857932525953000,7.074953125,0.000396121758967638,-0.0007959567010402679,-0.0008553136140108109
1717857932535994000,7.084994140625,0.0002859593369066715,-0.002163806464523077,-0.00017150864005088806
1717857932546034200,7.0950341796875,0.0007096682675182819,0.0005747219547629356,-0.00038030045107007027
1717857932556075000,7.105074951171875,-0.00027766497805714607,-0.0008143102750182152,0.00029926886782050133
1717857932566116000,7.1151162109375,-0.0016747592017054558,0.0007138112559914589,-0.0006418926641345024
1717857932576157200,7.1251572265625,0.0013705193996429443,0.001033727079629898,-0.0011506848968565464
1717857932586197200,7.135197265625,0.0004495983012020588,0.00007578730583190918,-0.0002018003724515438
1717857932596238000,7.145238037109375,0.0008667483925819397,-0.0011808555573225021,0.000488686840981245
1717857932606279200,7.155279052734375,-0.0003580395132303238,0.000057248398661613464,0.0011544767767190933
1717857932616320300,7.1653203125,0.0007741348817944527,-0.00022290553897619247,0.000841108150780201
1717857932626360000,7.175360107421875,-0.0013199085369706154,0.0008929595351219177,-0.0015618624165654182
1717857932636401000,7.18540087890625,-0.00016495189629495144,-0.0006280886009335518,-0.0005566501058638096
1717857932646442000,7.19544189453125,-0.00004857173189520836,0.0011543650180101395,-0.0007076510228216648
1717857932656482800,7.20548291015625,-0.00008628750219941139,-0.0002288036048412323,0.00015928689390420914
1717857932666524000,7.21552392578125,-0.000858870567753911,0.001854853704571724,-0.0010095746256411076
1717857932676564000,7.22556396484375,-0.0009785490110516548,0.0013027368113398552,-0.0011623003520071507
1717857932686605000,7.23560498046875,-0.00040623568929731846,0.0005836831405758858,0.001885687466710806
1717857932696646000,7.24564599609375,-0.000054772477596998215,-0.0005851415917277336,-0.00042323069646954536
1717857932706687000,7.25568701171875,-0.00004891352728009224,-0.0005822125822305679,0.0005717258900403976
1717857932716727000,7.26572705078125,-0.0009106958750635386,-0.0009896522387862206,0.0003907480277121067
1717857932726768000,7.27576806640625,0.0007828082889318466,-0.00029749609529972076,0.0003622523508965969
1717857932736809000,7.28580908203125,-0.000327669782564044,0.000880606472492218,-0.0001317816786468029
1717857932746850000,7.29585009765625,0.0012694280594587326,-0.0000070249661803245544,-0.000598367303609848
1717857932756891100,7.30589111328125,-0.0008488236926496029,0.0014233728870749474,0.002030318835750222
1717857932766931000,7.315930908203125,0.0008958131074905396,0.00003773067146539688,0.0007269675843417645
1717857932776972000,7.325971923828125,0.0014295103028416634,-0.0010031424462795258,0.00014374591410160065
1717857932787013000,7.33601318359375,-0.0007351071108132601,-0.0006353603675961494,-0.0017782575450837612
1717857932797054000,7.346053955078125,-0.00018877745606005192,-0.000794573687016964,-0.0016806726343929768
1717857932807094000,7.356093994140625,0.0003435886465013027,-0.0021842108108103275,-0.0002148686908185482
1717857932817135000,7.366135009765625,-0.0001348105724900961,-0.0002547549083828926,-0.00012554042041301727
1717857932827176200,7.37617626953125,-0.0017873020842671394,-0.0006390484049916267,-0.0016589886508882046
1717857932837217000,7.386217041015625,-0.00020396243780851364,0.00001840852200984955,-0.0007281121797859669
1717857932847258000,7.396258056640625,-0.00005802139639854431,0.000977412797510624,0.0000628465786576271
1717857932857298200,7.406298095703125,0.0006204205565154552,-0.000582423061132431,-0.0006032828241586685
1717857932867339000,7.416339111328125,-0.00017613102681934834,-0.0013102656230330467,-0.0005494868382811546
1717857932877380000,7.426380126953125,-0.00001958431676030159,0.000385235995054245,-0.0003748741000890732
1717857932887421200,7.436421142578125,-0.0005114700179547071,0.0016403831541538239,-0.0007333355024456978
1717857932897462000,7.4464619140625,-0.0006259579677134752,-0.0007247952744364738,-0.000858701765537262
1717857932907501800,7.456501708984375,-0.00020890706218779087,-0.0008614156395196915,0.0013186987489461899
1717857932917543000,7.46654296875,0.0005741682834923267,-0.0015542935580015182,0.0011767535470426083
1717857932927584000,7.476583984375,0.0001930701546370983,0.0002598520368337631,0.00011601625010371208
1717857932937624800,7.486624755859375,-0.0020231856033205986,-0.000466715544462204,-0.0013853521086275578
1717857932947665000,7.496664794921875,0.0014575659297406673,0.00012823473662137985,0.00046581123024225235
1717857932957706000,7.5067060546875,-0.0013518990017473698,-0.0001981891691684723,0.000026057008653879166
1717857932967747000,7.5167470703125,-0.0009138090535998344,0.0003829123452305794,-0.0011614463292062283
1717857932977788000,7.526787841796875,-0.00020189722999930382,0.0006480803713202477,-0.0000627078115940094
1717857932987829000,7.5368291015625,0.0005520437844097614,0.0008851010352373123,0.0006177299655973911
1717857932997869000,7.546869140625,-0.0009211993310600519,-0.0001598987728357315,0.0006649070419371128
1717857933007910000,7.556909912109375,0.0003147735260426998,-0.0006531160324811935,-0.0009132819250226021
1717857933017951000,7.566950927734375,-0.0014897664077579975,0.0011056577786803246,0.0011309757828712463
1717857933027992000,7.576991943359375,0.0001731114462018013,-0.00006080698221921921,-0.00027703773230314255
1717857933038032100,7.5870322265625,0.000716187059879303,-0.00033675413578748703,-0.0001703067682683468
1717857933048073000,7.597072998046875,0.00008075684309005737,-0.0010361000895500183,0.000024370383471250534
1717857933058114000,7.607114013671875,0.00020392658188939095,-0.0007992349565029144,0.0003860900178551674
1717857933068155100,7.617155029296875,-0.00033296667970716953,-0.0011124229058623314,0.0011269813403487206
1717857933078196000,7.627196044921875,0.0005926084704697132,-0.0007777148857712746,0.00004060985520482063
1717857933088236000,7.637236083984375,-0.0005565453320741653,-0.00027757324278354645,0.0011570071801543236
1717857933098277000,7.647277099609375,-0.003222906496375799,-0.00002601463347673416,-0.0009051612578332424
1717857933108318200,7.657318115234375,-0.0009962376207113266,-0.000015362165868282318,-0.0005501620471477509
1717857933118359000,7.667359130859375,-0.0008278647437691689,-0.00005488283932209015,0.00008274475112557411
1717857933128399000,7.677399169921875,-0.0008307942189276218,0.00018560048192739487,0.0003900737501680851
1717857933138440200,7.687440185546875,-0.0004253382794559002,-0.0001423172652721405,0.0023216456174850464
1717857933148481000,7.69748095703125,0.0009043780155479908,-0.0008043795824050903,-0.00046029267832636833
1717857933158522000,7.707522216796875,0.0017777797766029835,-0.00003711692988872528,-0.000664866529405117
1717857933168563200,7.717563232421875,-0.0013298627454787493,0.0012561138719320297,0.0011199838481843472
1717857933178603000,7.72760302734375,0.00020500319078564644,-0.00016734562814235687,0.00023858435451984406
1717857933188643800,7.737643798828125,-0.00006557395681738853,-0.0008728168904781342,0.000518482644110918
1717857933198685000,7.747684814453125,-0.001710887998342514,-0.0003190087154507637,0.0006540119647979736
1717857933208726000,7.75772607421875,0.0008481433615088463,-0.000028990209102630615,-0.0009593311697244644
1717857933218766800,7.767766845703125,0.0008890512399375439,-0.00014892220497131348,0.0013483776710927486
1717857933228807000,7.777806884765625,-0.0007546518463641405,0.0006550857797265053,-0.00039466144517064095
1717857933238848000,7.787847900390625,0.0004034144803881645,-0.0024871090427041054,0.0003278548829257488
1717857933248889000,7.79788916015625,-0.001055465079843998,-0.0012657837942242622,0.0012519718147814274
1717857933258930000,7.807929931640625,-0.0010890711564570665,-0.0005377745255827904,0.00008751032873988152
1717857933268970000,7.817969970703125,0.000056354328989982605,-0.0005175340920686722,0.00014050723984837532
1717857933279011000,7.828010986328125,0.00017255451530218124,-0.0011261580511927605,-0.00027630291879177094
1717857933289052000,7.838052001953125,-0.0010271996725350618,-0.0009200293570756912,0.0003668502904474735
1717857933299093000,7.848093017578125,-0.0007153728511184454,-0.0007343236356973648,0.0011222157627344131
1717857933309134000,7.858134033203125,0.0003472282551229,-0.00043125543743371964,0.00027000438421964645
1717857933319174700,7.868174560546875,0.0008392599411308765,-0.0010623270645737648,-0.0008822749368846416
1717857933329215500,7.878215576171875,-0.00015729502774775028,-0.0002782922238111496,-0.00017653731629252434
1717857933339256600,7.888256591796875,0.0014529568143188953,-0.000834910199046135,-0.00031003961339592934
1717857933349297400,7.89829736328125,0.0007070056162774563,-0.00048577040433883667,-0.0005521210841834545
1717857933359337500,7.90833740234375,0.0004755239933729172,-0.0012255888432264328,0.0007890518754720688
1717857933369378600,7.918378662109375,-0.0002597749698907137,0.00018375646322965622,0.00047613075003027916
1717857933379419600,7.928419677734375,-0.00034384895116090775,-0.00121978297829628,0.0007109562866389751
1717857933389460500,7.93846044921875,0.00023618759587407112,-0.0007670456543564796,-0.000276010949164629
1717857933399501600,7.94850146484375,-0.0005992990918457508,-0.0008553201332688332,0.0012385779991745949
1717857933409541600,7.958541748046875,0.0011943397112190723,0.0012427186593413353,-0.00031644152477383614
1717857933419582700,7.968582763671875,-0.0020354336593300104,-0.0010644467547535896,0.0004297359846532345
1717857933429623600,7.97862353515625,-0.0005110402125865221,-0.001199468970298767,-0.00046774931252002716
1717857933439664600,7.98866455078125,0.0006912592798471451,-0.00012146309018135071,0.0024218973703682423
1717857933449704400,7.998704345703125,-0.0006746761500835419,-0.00007219426333904266,0.0004061507061123848
1717857933459745300,8.008745361328126,0.0017834068275988102,-0.0006458181887865067,-0.00021207984536886215
1717857933469786400,8.018786376953125,-0.0005788169801235199,-0.00009480956941843033,-0.00014044065028429031
1717857933479827500,8.028827392578124,-0.0018537482246756554,0.0010046036913990974,0.0005763857625424862
1717857933489868300,8.038868408203125,0.00012791017070412636,-0.0004691891372203827,-0.0010505393147468567
1717857933499908400,8.048908447265624,-0.0010509833227843046,-0.0011752191931009293,0.000571325421333313
1717857933509949400,8.058949462890626,0.0016342820599675179,-0.00004497356712818146,0.0014509675092995167
1717857933519990500,8.068990478515625,-0.0003882052842527628,-0.0008024238049983978,-0.00022599566727876663
1717857933530031400,8.07903125,-0.0006404065061360598,-0.0011526299640536308,-0.002016704995185137
1717857933540071400,8.089071533203125,0.0003811432980000973,0.0001347176730632782,0.0008998611010611057
1717857933550112500,8.099112548828124,-0.0003339156974107027,-0.00033213384449481964,-0.0011622244492173195
1717857933560153600,8.109153564453125,-0.00044404645450413227,0.0017443746328353882,0.0008938335813581944
1717857933570194400,8.1191943359375,-0.00023152632638812065,0.0002418188378214836,0.00039981724694371223
1717857933580235500,8.129235595703125,0.00026837829500436783,0.00023455265909433365,-0.0005095070227980614
1717857933590275600,8.139275634765625,0.0005003395490348339,-0.00014947541058063507,0.00013551022857427597
1717857933600316400,8.14931640625,0.0007918351329863071,-0.001407545991241932,-0.0006494233384728432
1717857933610357500,8.159357421875,0.000012594275176525116,0.000186089426279068,-0.0004400988109409809
1717857933620398600,8.169398681640626,0.000758493784815073,-0.0008085845038294792,0.0008491845801472664
1717857933630438700,8.179438720703125,-0.0015169112011790276,0.00042818766087293625,-0.0009572375565767288
1717857933640479500,8.1894794921875,-0.0006001200526952744,0.0002799341455101967,0.0008452367037534714
1717857933650520600,8.1995205078125,-0.0003111669793725014,-0.00008891336619853973,-0.0010701087303459644
1717857933660561700,8.209561767578125,-0.001690960256382823,-0.0014757411554455757,0.00095377117395401
1717857933670602500,8.2196025390625,0.0000781775452196598,0.0008137784898281097,0.0010475143790245056
1717857933680642600,8.229642578125,0.0000071087852120399475,-0.00024813786149024963,0.0018280697986483574
1717857933690683600,8.23968359375,-0.0003143348731100559,0.0009851716458797455,-0.00038182130083441734
1717857933700724500,8.249724365234375,-0.0008968168403953314,-0.001460210420191288,0.0007241698913276196
1717857933710765600,8.259765625,0.0008390317671000957,-0.0007060030475258827,-0.00023110629990696907
1717857933720805400,8.269805419921875,-0.0023864121176302433,-0.003094742074608803,-0.0003306921571493149
1717857933730846500,8.279846435546874,0.0000980505719780922,-0.0008904431015253067,-0.00008195266127586365
1717857933740887300,8.28988720703125,-0.0001930061262100935,-0.000691642053425312,0.000006370246410369873
1717857933750928400,8.299928466796874,0.00015853112563490868,-0.00027192849665880203,-0.0004729987122118473
1717857933760969500,8.309969482421875,-0.0002791753504425287,-0.00025611743330955505,0.0004588658921420574
1717857933771009500,8.320009521484375,-0.000312198419123888,-0.00020844675600528717,-0.0007267734035849571
1717857933781050400,8.33005029296875,0.0007999995723366737,-0.0010589910671114922,-0.0010855169966816902
1717857933791091500,8.340091552734375,0.00002608494833111763,-0.00019426271319389343,-0.0005741901695728302
1717857933801132500,8.350132568359374,0.0006064046174287796,-0.000908365473151207,0.0005476884543895721
1717857933811173400,8.36017333984375,0.00009800679981708527,-0.00025056488811969757,-0.000985227059572935
1717857933821213400,8.37021337890625,0.0015422864817082882,-0.0005848268046975136,0.0000727321021258831
1717857933831254500,8.380254638671875,-0.0005850465968251228,0.000009590759873390198,-0.0004026424139738083
1717857933841295400,8.39029541015625,-0.0015807761810719967,0.00011223740875720978,0.0006475122645497322
1717857933851336400,8.40033642578125,0.00030154595151543617,-0.0002643335610628128,0.0011591054499149323
1717857933861376500,8.41037646484375,0.0008253762498497963,0.00022371113300323486,0.00005203811451792717
1717857933871417600,8.42041748046875,0.000689022708684206,0.00029508303850889206,0.0007300791330635548
1717857933881458400,8.43045849609375,0.0009795613586902618,-0.0005214391276240349,0.0006760824471712112
1717857933891499500,8.44049951171875,0.0009617181494832039,-0.0007845591753721237,0.00028113555163145065
1717857933901540600,8.45054052734375,-0.00022186082787811756,-0.0001895492896437645,0.00003994302824139595
1717857933911580700,8.46058056640625,-0.0018578406888991594,-0.0005312319844961166,-0.00031665386632084846
1717857933921621500,8.47062158203125,-0.000839215237647295,-0.0009597074240446091,-0.00036717066541314125
1717857933931662600,8.48066259765625,-0.0011340270284563303,0.0015199622139334679,0.0003279140219092369
1717857933941703700,8.49070361328125,-0.0005054834764450788,-0.0005642250180244446,0.0007817903533577919
1717857933951743500,8.500743408203125,0.0005770917050540447,0.00024564191699028015,-0.0005351430736482143
1717857933961784600,8.51078466796875,0.0006607091054320335,-0.0002984600141644478,-0.0020930450409650803
1717857933971825700,8.52082568359375,-0.0013912562280893326,-0.0010002031922340393,0.00046092690899968147
1717857933981866500,8.530866455078124,-0.0002533877268433571,-0.0012102462351322174,0.0003326558507978916
1717857933991907600,8.540907470703125,0.00007391488179564476,-0.0006499169394373894,-0.00028386572375893593
1717857934001947400,8.550947509765624,-0.00020884443074464798,0.00039168447256088257,-0.000390627421438694
1717857934011988500,8.560988525390625,-0.0010280327405780554,-0.0014733271673321724,0.00045625772327184677
1717857934022029300,8.571029296875,-0.00022003287449479103,-0.000028316862881183624,-0.0006303498521447182
1717857934032070400,8.5810703125,0.0004271152429282665,0.0011037932708859444,0.0003110775724053383
1717857934042110500,8.5911103515625,0.0003206273540854454,-0.0004536723718047142,-0.00045823678374290466
1717857934052151600,8.601151611328126,0.0020966893061995506,-0.0003567337989807129,0.0004901150241494179
1717857934062192400,8.6111923828125,-0.0007895005401223898,-0.0006908215582370758,-0.00166619336232543
1717857934072233500,8.6212333984375,0.00010505504906177521,0.00018722284585237503,0.0002310425043106079
1717857934082274600,8.631274658203125,-0.0008937465026974678,-0.0013156821951270103,0.0017165937460958958
1717857934092314400,8.641314453125,-0.0008663160260766745,-0.00033910106867551804,0.0009725065901875496
1717857934102355500,8.65135546875,-0.000010907184332609177,-0.0008185887709259987,-0.0004085409455001354
1717857934112396500,8.661396484375,-0.0001200968399643898,-0.0006161881610751152,0.0010668504983186722
1717857934122437400,8.671437255859376,0.0006270851008594036,-0.00007679592818021774,0.001048336736857891
1717857934132477400,8.6814775390625,-0.0007132838945835829,0.000004963018000125885,0.001041412353515625
1717857934142518500,8.6915185546875,-0.000026250258088111877,-0.0004914039745926857,-0.00010970095172524452
1717857934152559600,8.7015595703125,-0.0002917672973126173,-0.0011284323409199715,0.0012594303116202354
1717857934162600400,8.711600341796874,0.0003701173700392246,-0.00041339732706546783,-0.00018190452829003334
1717857934172641500,8.7216416015625,0.000559734646230936,0.00026757270097732544,-0.00037232041358947754
1717857934182681600,8.731681640625,-0.000249987468123436,0.0005012983456254005,0.000637927558273077
1717857934192722400,8.741722412109375,-0.0001229546032845974,-0.0002933889627456665,0.0005369936116039753
1717857934202763500,8.751763427734375,-0.000611012801527977,-0.0010922979563474655,0.0010328921489417553
1717857934212804600,8.7618046875,-0.0014480443205684423,-0.0007127970457077026,0.00119694322347641
1717857934222844700,8.7718447265625,-0.0006952553521841764,-0.00023487675935029984,0.000707799568772316
1717857934232885500,8.781885498046876,0.00016228249296545982,-0.0005675060674548149,0.0006401552818715572
1717857934242926600,8.791926513671875,0.00018561584874987602,0.0011301692575216293,0.0008984766900539398
1717857934252967700,8.8019677734375,0.0003185076639056206,-0.00040727388113737106,0.000052656978368759155
1717857934263007500,8.812007568359375,-0.0000028265640139579773,-0.001676460262387991,0.0004270123317837715
1717857934273048300,8.82204833984375,-0.0006622250657528639,-0.0005872268229722977,0.0005295439623296261
1717857934283089400,8.83208935546875,0.00036915577948093414,-0.0000705355778336525,-0.00008942745625972748
1717857934293130500,8.842130615234375,-0.00008011981844902039,-0.0001102173700928688,-0.00007930770516395569
1717857934303171300,8.85217138671875,-0.0006443378515541553,-0.0007906872779130936,0.00044846348464488983
1717857934313211100,8.862211181640625,0.0005444972775876522,-0.000026625581085681915,-0.000620529055595398
1717857934323252200,8.872252197265626,0.0009193276055157185,-0.00030326470732688904,-0.0008194157853722572
1717857934333293300,8.882293212890625,-0.0019129442516714334,0.001298094168305397,0.00023945700377225876
1717857934343334100,8.892334228515624,-0.00020989356562495232,0.001043546013534069,0.0006944690831005573
1717857934353375200,8.902375244140625,-0.0011867410503327847,0.0009854892268776894,0.0001402655616402626
1717857934363415300,8.912415283203124,-0.000385114224627614,0.00045054685324430466,0.00040555745363235474
1717857934373456100,8.9224560546875,-0.00045435642823576927,-0.001959613524377346,0.0003911764360964298
1717857934383497200,8.932497314453125,-0.0005024492274969816,0.00016128737479448318,0.00020526209846138954
1717857934393538300,8.942538330078126,-0.0007903371006250381,0.00014344416558742523,0.0008691879920661449
1717857934403578400,8.952578369140625,0.0006867256015539169,-0.0002541635185480118,0.00019602756947278976
1717857934413619200,8.962619140625,-0.0008342056535184383,0.0019442755728960037,-0.001463388092815876
1717857934423660300,8.972660400390625,-0.0007219831459224224,0.0003258436918258667,-0.00020400108769536018
1717857934433701400,8.982701416015624,-0.0011395667679607868,-0.0004438105970621109,0.00005379272624850273
1717857934443741400,8.992741455078125,-0.000044380780309438705,-0.000552070327103138,-0.00010413071140646935
1717857934453782300,9.0027822265625,0.00038598617538809776,-0.0004292987287044525,-0.000012517906725406647
1717857934463823400,9.0128232421875,0.0008459063246846199,-0.0008449815213680267,-0.0011558663100004196
1717857934473864200,9.0228642578125,-0.0002678278833627701,-0.0007134219631552696,-0.0003622444346547127
1717857934483905300,9.0329052734375,-0.00024448917247354984,0.00011332612484693527,-0.00018441909924149513
1717857934493945000,9.042945068359375,0.0001698988489806652,0.0003761798143386841,0.0009016180410981178
1717857934503986400,9.052986328125,-0.0012409090995788574,-0.00018393248319625854,0.0008994252420961857
1717857934514027300,9.06302734375,-0.00010906578972935677,0.0007830606773495674,-0.0006582573987543583
1717857934524068400,9.073068359375,-0.00037572230212390423,-0.0003850189968943596,0.0005968050099909306
1717857934534109400,9.083109375,-0.0014977119863033295,0.0009231260046362877,-0.0008221268653869629
1717857934544149200,9.093149169921874,0.0010795015841722488,-0.0006589898839592934,-0.001276976428925991
1717857934554190000,9.103190185546875,-0.0007833794225007296,-0.00038681551814079285,0.0005347719416022301
1717857934564231200,9.113231201171875,0.0007494981400668621,0.000911409966647625,0.0013357652351260185
1717857934574272300,9.123272216796876,-0.0011788967531174421,0.000135897658765316,-0.000015789177268743515
1717857934584312300,9.133312255859375,-0.00035844813100993633,0.0007790736854076385,0.000018277671188116074
1717857934594353200,9.143353271484376,-0.00010677939280867577,-0.0010862043127417564,-0.000727673526853323
1717857934604394200,9.153394287109375,-0.00129670649766922,-0.0006192950531840324,-0.0007716938853263855
1717857934614435000,9.16343505859375,0.0005403417162597179,-0.0003266138955950737,0.0004570889286696911
1717857934624476200,9.17347607421875,-0.0000019725412130355835,0.0006241397932171822,0.0013973023742437363
1717857934634516200,9.18351611328125,0.00044437311589717865,-0.000898655503988266,-0.0005121841095387936
1717857934644557300,9.193557373046875,-0.0021400260739028454,-0.00017854198813438416,-0.0010542846284806728
1717857934654598100,9.20359814453125,-0.0003336039371788502,-0.0011239638552069664,0.00017795991152524948
1717857934664639200,9.21363916015625,-0.000004355330020189285,-0.0009943461045622826,-0.000817552674561739
1717857934674679300,9.22367919921875,0.0003751455806195736,0.00035294704139232635,-0.00044284574687480927
1717857934684720400,9.233720458984376,0.0007255827076733112,0.0006233816966414452,-0.0004638214595615864
1717857934694761200,9.24376123046875,0.0009926976636052132,0.001488376408815384,-0.0001687435433268547
1717857934704802300,9.25380224609375,-0.0007214155048131943,0.0005118930712342262,0.00019121496006846428
1717857934714843400,9.263843505859375,-0.0005999752320349216,-0.0000963723286986351,-0.0009185238741338253
1717857934724883200,9.27388330078125,0.0003041243180632591,-0.0007685599848628044,-0.0015502497553825378
1717857934734924300,9.28392431640625,-0.0009124078787863255,-0.0011595115065574646,0.0005853390321135521
1717857934744965400,9.29396533203125,-0.0003807565663009882,0.00024825427681207657,-0.0003262059763073921
1717857934755006200,9.304006103515626,0.00016812095418572426,0.00017768051475286484,0.000718552153557539
1717857934765046300,9.31404638671875,-0.0007421390619128942,-0.0002867346629500389,0.000010355375707149506
1717857934775087400,9.32408740234375,-0.00174641702324152,-0.0011788932606577873,-0.0009401268325746059
1717857934785128400,9.33412841796875,0.0024383114650845528,-0.00017808657139539719,-0.0014826399274170399
1717857934795169300,9.344169189453124,-0.0012959728483110666,0.001453898847103119,-0.0008261706680059433
1717857934805210400,9.35421044921875,0.00001241639256477356,-0.0010175695642828941,-0.00031258538365364075
1717857934815250200,9.364250244140624,0.0012174970470368862,0.0009289346635341644,-0.0009618643671274185
1717857934825291300,9.374291259765625,-0.0016588964499533176,-0.0015216823667287827,-0.0004591294564306736
1717857934835332000,9.38433203125,-0.00010361033491790295,0.0007614456117153168,0.0018655438907444477
1717857934845373200,9.394373291015626,-0.0003049527294933796,-0.0005163056775927544,-0.0002754298038780689
1717857934855413200,9.404413330078125,-0.0007518311031162739,-0.000004179775714874268,-0.001042952761054039
1717857934865454000,9.4144541015625,-0.0005123584996908903,-0.0009018229320645332,-0.00004691071808338165
1717857934875495200,9.4244951171875,0.000832271296530962,-0.00047545135021209717,0.00024816766381263733
1717857934885536300,9.434536376953124,0.0005174293182790279,0.0006599863991141319,-0.0002584606409072876
1717857934895577000,9.4445771484375,0.0001616310328245163,-0.0012702727690339088,0.00018389057368040085
1717857934905617200,9.4546171875,0.0001209094189107418,0.00023358594626188278,0.0011510979384183884
1717857934915658200,9.464658203125,-0.0008977497927844524,0.000002956017851829529,-0.00031017884612083435
1717857934925699300,9.47469921875,0.00044401688501238823,-0.00047009531408548355,0.000007828697562217712
1717857934935740200,9.484740234375,-0.002003161935135722,-0.0002048444002866745,0.0008888025768101215
1717857934945780200,9.4947802734375,-0.0005231082905083895,-0.00018829386681318283,0.000407353974878788
1717857934955821300,9.5048212890625,0.00013229576870799065,-0.0005203895270824432,-0.0010177036747336388
1717857934965862400,9.5148623046875,-0.002764352597296238,-0.00016215350478887558,0.00007767602801322937
1717857934975903200,9.5249033203125,0.0004588714800775051,-0.001593602355569601,0.0009458665736019611
1717857934985944300,9.5349443359375,-0.00013287831097841263,0.0004771966487169266,0.000011421740055084229
1717857934995984400,9.544984375,0.00039016641676425934,0.0005206065252423286,-0.00021308241412043571
1717857935006025200,9.555025146484375,0.00013394374400377274,-0.000003071501851081848,-0.0008591250516474247
1717857935016066300,9.56506640625,-0.0003893671091645956,-0.0007777856662869453,-0.0007078577764332294
1717857935026107400,9.575107421875,-0.001053790096193552,-0.001079515554010868,0.0013079987838864326
1717857935036147500,9.5851474609375,-0.00009345426224172115,0.00009760167449712753,0.0013098632916808128
1717857935046188300,9.595188232421876,0.0001292610540986061,0.0001630084589123726,0.0003147381357848644
1717857935056229400,9.6052294921875,-0.0005061691626906395,0.0003086831420660019,0.0004905066452920437
1717857935066270500,9.6152705078125,0.0004279199056327343,-0.0012150602415204048,0.00011907937005162239
1717857935076311300,9.625311279296875,-0.00004745461046695709,0.0003380952402949333,-0.00036588218063116074
1717857935086351000,9.63535107421875,-0.0011584972962737083,-0.000258641317486763,0.0006031128577888012
1717857935096392200,9.64539208984375,-0.0014282756019383669,-0.0009089857339859009,0.00015783216804265976
1717857935106433300,9.655433349609375,-0.00006192992441356182,-0.0003721136599779129,-0.000025170855224132538
1717857935116474000,9.66547412109375,-0.00006379419937729836,0.00009180884808301926,0.00023422110825777054
1717857935126515200,9.67551513671875,0.0006400207057595253,-0.00226723775267601,0.0006091813556849957
1717857935136555300,9.68555517578125,-0.000634834636002779,-0.0015391292981803417,-0.0009583551436662674
1717857935146596000,9.69559619140625,0.0001156446523964405,-0.0013321954756975174,0.00012762285768985748
1717857935156637200,9.70563720703125,0.0011183246970176697,-0.0005500251427292824,0.0009217774495482445
1717857935166678300,9.71567822265625,-0.00014978856779634953,0.000024683773517608643,0.00041460851207375526
1717857935176718300,9.72571826171875,0.0009386450983583927,-0.0003668004646897316,0.00038185156881809235
1717857935186759200,9.73575927734375,0.0011310256086289883,-0.000501854345202446,0.0011958829127252102
1717857935196800300,9.74580029296875,-0.0007302577141672373,0.00008696969598531723,0.0010834978893399239
1717857935206841300,9.75584130859375,-0.001333580818027258,0.0005588587373495102,-0.0010622316040098667
1717857935216882200,9.765882080078125,-0.000926916254684329,0.00006297789514064789,-0.0012414627708494663
1717857935226922200,9.775922119140626,0.000816047191619873,-0.00037014763802289963,-0.000007542315870523453
1717857935236963300,9.78596337890625,0.0001313486136496067,0.0005041686818003654,0.0007325499318540096
1717857935247004200,9.796004150390624,0.0011745309457182884,0.0008350284770131111,0.0017322981730103493
1717857935257045200,9.806045166015625,-0.0013890275731682777,-0.0004376964643597603,-0.0010592271573841572
1717857935267085300,9.816085205078124,-0.0009605069644749165,0.00017079338431358337,0.00045032426714897156
1717857935277126400,9.82612646484375,0.0008722804486751556,0.0005710665136575699,-0.0006447671912610531
1717857935287167200,9.836167236328125,0.00018939515575766563,-0.0004324689507484436,-0.0007238946855068207
1717857935297208300,9.846208251953126,0.00018646568059921265,0.000046634115278720856,-0.0005936659872531891
1717857935307249400,9.85624951171875,-0.00033009983599185944,-0.0006582681089639664,-0.00005444372072815895
1717857935317288400,9.866288330078126,-0.0008310405537486076,0.0008799731731414795,0.0004837815649807453
1717857935327329300,9.876329345703125,-0.00024241791106760502,0.00031685177236795425,-0.0006478647701442242
1717857935337370400,9.886370361328124,-0.0002842296380549669,0.001180781051516533,0.00025015324354171753
1717857935347411500,9.896411376953125,0.0006138980388641357,0.000261467881500721,-0.00043667852878570557
1717857935357451500,9.906451416015624,0.00018699374049901962,0.0012063570320606232,-0.00040898146107792854
1717857935367492400,9.916492431640625,-0.001813066890463233,-0.0005800649523735046,-0.0010474063456058502
1717857935377533400,9.926533447265625,-7.860362529754639e-7,0.0000710776075720787,-0.0002742907963693142
1717857935387574500,9.936574462890626,0.0002848883159458637,0.00004506576806306839,0.000141022726893425
1717857935397615400,9.946615478515625,0.000670779962092638,-0.001246567815542221,-0.0004267636686563492
1717857935407655400,9.956655517578126,-0.0015323807019740343,0.0007480112835764885,0.00005903374403715134
1717857935417696500,9.966696533203125,0.0008098692633211613,0.0004641180858016014,-0.00003550853580236435
1717857935427737600,9.976737548828124,-0.000973474932834506,-0.00018113665282726288,-0.00009176041930913925
1717857935437778400,9.9867783203125,-0.0002616120036691427,-0.0005052434280514717,-0.0004944303072988987
1717857935447819500,9.996819580078125,-0.00009532296098768711,0.00017858482897281647,0.0009170109406113625
1717857935457859300,10.006859375,0.001043178141117096,-0.00038760341703891754,0.00017558690160512924
1717857935467900200,10.016900146484375,0.000584049616008997,-0.0005966350436210632,-0.0010686451569199562
1717857935477941200,10.026941162109376,0.0013651545159518719,-0.0012965137138962746,-0.0004116431809961796
1717857935487982300,10.036982421875,-0.0004971895832568407,-0.00041243061423301697,0.001371016725897789
1717857935498022400,10.0470224609375,-0.00015470711514353752,-0.0003304053097963333,-0.00036270124837756157
1717857935508063200,10.057063232421875,-0.0008892987389117479,-0.001580563373863697,0.00023263925686478615
1717857935518104300,10.067104248046874,-0.00033216550946235657,0.0000735260546207428,0.0014723408967256546
1717857935528145400,10.0771455078125,-0.000499611021950841,-0.000612843781709671,-0.00006058439612388611
1717857935538186200,10.087186279296875,-0.0002559318672865629,0.000015395693480968475,0.0012901709415018559
1717857935548226300,10.097226318359375,0.00038563134148716927,0.0006883060559630394,-0.0005250889807939529
1717857935558267400,10.107267333984375,0.0000886889174580574,-0.0009569954127073288,0.0005047554150223732
1717857935568308500,10.11730859375,-0.0016945651732385159,-0.0007741795852780342,0.001302087213844061
1717857935578349300,10.127349365234375,-0.00017576455138623714,-0.00036112405359745026,-0.0001488029956817627
1717857935588389400,10.137389404296876,0.00010883854702115059,0.0007271105423569679,-0.0002623423933982849
1717857935598430500,10.147430419921875,-0.0013974453322589397,0.0010967571288347244,0.0014671143144369125
1717857935608471300,10.15747119140625,0.0012894608080387115,-0.0007028644904494286,0.00028327060863375664
1717857935618512400,10.167512451171875,0.00013098586350679398,0.0009051524102687836,0.0005684951320290565
1717857935628553500,10.177553466796875,0.0005040871910750866,-0.00046745873987674713,0.0007398952730000019
1717857935638593500,10.187593505859375,-0.0004634393844753504,-0.00022963900119066238,0.0016126129776239395
1717857935648634400,10.19763427734375,0.00019292021170258522,-0.0003066984936594963,0.0001240852288901806
1717857935658675500,10.207675537109376,0.000488530844449997,0.00020569376647472382,0.0007267585024237633
1717857935668716500,10.217716552734375,-0.00025061098858714104,0.0006851162761449814,0.0004940475337207317
1717857935678757400,10.22775732421875,0.0007296986877918243,-0.0035945833660662174,0.0011893990449607372
1717857935688797400,10.23779736328125,0.00040456559509038925,0.0017612408846616745,0.0006947219371795654
1717857935698838500,10.247838623046874,-0.0005637600552290678,0.001515963114798069,-0.0013995878398418427
1717857935708879400,10.25787939453125,-0.0009431196376681328,0.0010415315628051758,-0.00015908107161521912
1717857935718920400,10.26792041015625,0.00007047969847917557,-0.00038938503712415695,0.00005423836410045624
1717857935728960300,10.277960205078125,-0.0005270561669021845,0.000830233097076416,-0.000014477875083684921
1717857935739001300,10.28800146484375,-0.00007804716005921364,-0.00047977548092603683,-0.00015349453315138817
1717857935749042200,10.298042236328126,-0.0002581360749900341,-0.0003811325877904892,0.00017071189358830452
1717857935759083300,10.308083251953125,-0.000007266178727149963,-0.00046608783304691315,0.0015451693907380104
1717857935769124400,10.318124267578124,-0.00022718310356140137,0.000025449320673942566,-0.0004206388257443905
1717857935779164400,10.328164306640625,-0.0009430407080799341,-0.0003335447981953621,-0.0010281060822308064
1717857935789205200,10.338205322265624,0.00027123047038912773,0.00006510969251394272,-0.0010145404376089573
1717857935799246300,10.348246337890625,0.0011828304268419743,0.0008155880495905876,0.0006182435899972916
1717857935809287400,10.358287353515625,0.0005164970643818378,-0.00012054760009050369,-0.001189530361443758
1717857935819328300,10.368328369140626,0.0005207578651607037,-0.0012723645195364952,-0.000040376558899879456
1717857935829368300,10.378368408203125,-0.0016909604892134666,0.00005541369318962097,-0.0006074942648410797
1717857935839409400,10.388409423828126,0.0010217353701591492,-0.0008324850350618362,0.001163508277386427
1717857935849450200,10.3984501953125,-0.0010899079497903585,0.0002357587218284607,-0.0012966170907020569
1717857935859491300,10.4084912109375,-0.00007204781286418438,0.0007601343095302582,0.00009035738185048103
1717857935869531400,10.418531494140625,-0.001724253874272108,-0.0005160598084330559,0.00030299974605441093
1717857935879572500,10.428572509765624,-0.0005495334044098854,0.0003369506448507309,-0.0008091363124549389
1717857935889613300,10.43861328125,-0.0009247050620615482,0.00106099434196949,-0.0001255231909453869
1717857935899654400,10.448654296875,0.0009738625958561897,0.0001145070418715477,-0.00010288646444678307
1717857935909695500,10.458695556640626,-0.0009857909753918648,-0.00007224641740322113,-0.0005286321975290775
1717857935919735600,10.468735595703125,-0.0009471753146499395,0.0003498643636703491,0.00018669292330741882
1717857935929776400,10.4787763671875,0.0003883303143084049,0.000028157606720924377,-0.0003807232715189457
1717857935939817500,10.4888173828125,-0.0009576315060257912,0.00018475111573934555,0.000776153989136219
1717857935949858300,10.4988583984375,-0.0009010708890855312,0.0011953944340348244,-0.00022776424884796143
1717857935959898400,10.5088984375,0.00012637674808502197,0.0008313404396176338,0.001020992174744606
1717857935969939500,10.518939453125,-0.00043296534568071365,-0.00001515168696641922,0.0007819435559213161
1717857935979980500,10.52898046875,-0.0011280502658337355,-0.0001118239015340805,0.00005996040999889374
1717857935990021400,10.539021484375,0.00017369864508509636,-0.0009043635800480843,-0.0010620406828820705
1717857936000062500,10.5490625,-0.0002015409991145134,-0.0013776072300970554,-0.000028201844543218613
1717857936010102300,10.559102294921875,0.0005762800574302673,-0.0008998261764645576,0.00003624940291047096
1717857936020143400,10.569143310546876,-0.0004690107889473438,0.0005414765328168869,0.00026208534836769104
1717857936030184200,10.57918408203125,0.0004219580441713333,0.0009274855256080627,0.0009424719028174877
1717857936040225300,10.589225341796874,0.0006414027884602547,-0.0006552310660481453,-0.0003286548890173435
1717857936050266400,10.599266357421875,-0.002968373941257596,-0.0010951180011034012,-0.0003211935982108116
1717857936060306400,10.609306396484374,0.0016436884179711342,0.0013845507055521011,-0.0012090913951396942
1717857936070347300,10.61934716796875,0.0012032859958708286,0.00023869797587394714,0.000722080934792757
1717857936080388400,10.629388427734375,-0.0008888933807611465,0.0013420451432466507,0.0002642837353050709
1717857936090429200,10.63942919921875,-0.001448595430701971,-0.00046124309301376343,-0.0003612707369029522
1717857936100469200,10.64946923828125,0.0007823347114026546,0.0005472954362630844,-0.0003183935768902302
1717857936110510300,10.65951025390625,-0.00012457789853215218,0.0008046859875321388,-0.0003738929517567158
1717857936120551400,10.669551513671875,-0.0001253767404705286,-0.000016633421182632446,0.0003475574776530266
1717857936130592300,10.67959228515625,0.0004525454714894295,0.0005997326225042343,-0.0006503905169665813
1717857936140633300,10.68963330078125,-0.00008301623165607452,0.00004632771015167236,-0.0007651727646589279
1717857936150673400,10.69967333984375,0.000028256326913833618,0.0005020378157496452,0.00011256849393248558
1717857936160714500,10.709714599609375,-0.0014692391268908978,-0.00033073313534259796,-0.000058939214795827866
1717857936170755300,10.71975537109375,-0.00047101452946662903,-0.0012827357277274132,0.0002977447584271431
1717857936180796400,10.72979638671875,-0.0005522409919649363,0.00018067192286252975,-0.0006010723300278187
1717857936190837500,10.73983740234375,0.0008577853441238403,0.001449214294552803,-0.0006535770371556282
1717857936200877300,10.749877197265626,-0.00029776012524962425,0.00023854151368141174,-0.0003571673296391964
1717857936210918400,10.75991845703125,-0.00019258097745478153,-0.000006588175892829895,0.0006768065504729748
1717857936220959500,10.76995947265625,-0.0002642199397087097,0.0005231145769357681,0.00007147016003727913
1717857936231000300,10.780000244140625,0.0009252969175577164,0.000437859445810318,-0.0006754738278687
1717857936241041400,10.79004150390625,0.0006999936886131763,0.0001233406364917755,-0.0008802707307040691
1717857936251081500,10.80008154296875,-0.0011893445625901222,-0.00021387450397014618,-0.0005138604901731014
1717857936261122600,10.81012255859375,-0.00034006242640316486,0.000514499843120575,-0.0010004201903939247
1717857936271163400,10.820163330078126,-0.0005964653100818396,0.001089148223400116,-0.0005785268731415272
1717857936281204500,10.83020458984375,-0.0003559817560017109,0.00016662944108247757,0.0006097755394876003
1717857936291244300,10.840244384765626,-0.0006451401859521866,-0.0004800306633114815,-0.00027328263968229294
1717857936301285400,10.850285400390625,-0.001288826111704111,0.0014441031962633133,-0.0003033764660358429
1717857936311326200,10.860326171875,0.0005903472192585468,-0.00033516809344291687,-0.0002963296137750149
1717857936321368300,10.870368408203126,-0.000026973430067300797,0.0008400855585932732,-0.0007461379282176495
1717857936331409200,10.8804091796875,-0.0004148036241531372,0.00019839312881231308,-0.00047454796731472015
1717857936341449200,10.89044921875,0.0007849503308534622,-0.0004934957250952721,-0.0006788126192986965
1717857936351490300,10.900490234375,0.0008137049153447151,0.0003853309899568558,0.000401865690946579
1717857936361531100,10.91053125,-0.0009458458516746759,-0.0006186813116073608,-0.00007350882515311241
1717857936371572200,10.920572265625,-0.0017903984989970922,-0.0019256616942584515,-0.0002512815408408642
1717857936381613300,10.93061328125,-0.0010007712990045547,-0.00029314402490854263,-0.0005650022067129612
1717857936391653000,10.940653076171875,-0.001761679071933031,0.001599358394742012,-0.00030222535133361816
1717857936401694000,10.95069384765625,0.0012444970197975636,-0.0007154615595936775,0.0007963287644088268
1717857936411735000,10.960735107421876,-0.0002161324955523014,0.00037019792944192886,0.0003416379913687706
1717857936421776100,10.970776123046875,0.0007902760989964008,0.0006383778527379036,0.00042366329580545425
1717857936431817000,10.98081689453125,-0.0013382008764892817,0.00009727943688631058,-0.0008912491612136364
1717857936441857000,10.99085693359375,0.0012040529400110245,0.0001809028908610344,0.00007547857239842415
1717857936451898000,11.000898193359374,-0.00011924188584089279,0.0007245149463415146,0.00006156926974654198
1717857936461939200,11.010939208984375,0.00005865748971700668,0.0010052118450403214,0.0007105818949639797
1717857936471980000,11.02097998046875,0.0004562237299978733,0.00006748083978891373,0.00010799895972013474
1717857936482020000,11.03102001953125,-0.0013667098246514797,-0.0001618172973394394,0.0000933515839278698
1717857936492061200,11.041061279296875,-0.0026455780025571585,0.0007299324497580528,0.0007290034554898739
1717857936502102000,11.05110205078125,-0.0011502131819725037,-0.0007433276623487473,0.0003471062518656254
1717857936512143000,11.06114306640625,-0.000012037809938192368,-0.0007827505469322205,0.0005374746397137642
1717857936522184200,11.07118408203125,0.00007850956171751022,-0.000617634505033493,-0.00023484183475375175
1717857936532224300,11.081224365234375,-0.0001211527269333601,-0.0014021676033735275,-0.0008438611403107643
1717857936542265000,11.09126513671875,0.0017790128476917744,-0.0009944373741745949,-0.0003743455745279789
1717857936552306200,11.10130615234375,0.0007426152005791664,-0.0021010003983974457,-0.00019355164840817451
1717857936562347300,11.11134716796875,0.0010366281494498253,0.00003512110561132431,-0.00037517957389354706
1717857936572388000,11.12138818359375,-0.0014655212871730328,0.00027785543352365494,0.0008048913441598415
1717857936582428200,11.13142822265625,0.0008873813785612583,0.0006983689963817596,0.000009138602763414383
1717857936592469200,11.14146923828125,-0.0008835019543766975,-0.0012904340401291847,-0.0002658865414559841
1717857936602510300,11.15151025390625,-0.00024301162920892239,0.0009668609127402306,0.000706166960299015
1717857936612551200,11.16155126953125,0.0003993832506239414,-0.000023097731173038483,0.000018434133380651474
1717857936622591200,11.17159130859375,-0.0009364583529531956,-0.0009754439815878868,-0.0004015467129647732
1717857936632632300,11.18163232421875,-0.00018861214630305767,0.0002667699009180069,0.00022958964109420776
1717857936642673200,11.191673095703125,0.0007655983790755272,0.0007517319172620773,-0.0012186374515295029
1717857936652714200,11.20171435546875,0.00026836921460926533,0.0007839715108275414,-0.0006150482222437859
1717857936662755300,11.21175537109375,0.0001754246186465025,0.00020979437977075577,0.00022597843781113625
1717857936672795100,11.221795166015625,-0.00020679691806435585,-0.0010987529531121254,-0.0008676145225763321
1717857936682836000,11.2318359375,-0.0016070869751274586,-0.0019315239042043686,-0.0007024984806776047
1717857936692877000,11.241876953125,0.0007466329261660576,0.0016093244776129723,0.000856099184602499
1717857936702918100,11.251918212890626,-0.00002541765570640564,0.0003541763871908188,0.00014583440497517586
1717857936712959000,11.261958984375,0.0009589402470737696,-0.0006082355976104736,0.0011356165632605553
1717857936722999000,11.2719990234375,-0.0008938207756727934,0.0013284152373671532,0.0009268247522413731
1717857936733040000,11.2820400390625,0.0005896734073758125,-0.0004581306129693985,0.0004375646822154522
1717857936743081200,11.292081298828125,-0.0001147326547652483,0.000773315317928791,-0.00004260288551449776
1717857936753122000,11.3021220703125,-0.0008949139155447483,-0.0007094833999872208,0.0010042223148047924
1717857936763163100,11.3121630859375,0.0008401353843510151,-0.0005076155066490173,0.0002028769813477993
1717857936773203200,11.322203125,0.000696317758411169,-0.0017962115816771984,-0.0014996202662587166
1717857936783244000,11.332244140625,0.0009687589481472969,-0.0008204290643334389,-0.0007992088794708252
1717857936793285000,11.34228515625,0.00109492102637887,-0.00020201224833726883,0.00032523227855563164
1717857936803326200,11.352326171875,0.0014733565039932728,0.0006643142551183701,-0.000903550535440445
1717857936813366300,11.3623662109375,-0.000029682647436857224,-0.001998750027269125,-0.001337586436420679
1717857936823407000,11.372406982421875,-0.000012372154742479324,0.001938200555741787,-0.0008867131546139717
1717857936833448200,11.3824482421875,-0.0009856359101831913,0.00035763997584581375,0.0001536356285214424
1717857936843489300,11.3924892578125,-0.00038083200342953205,0.0010418063029646873,-0.0012370669282972813
1717857936853530000,11.402530029296875,-0.0004418950993567705,-0.002136779483407736,-0.00035625044256448746
1717857936863570200,11.412570068359376,0.0008249706588685513,0.000916801393032074,-0.0016947551630437374
1717857936873611300,11.422611328125,-0.0010525034740567207,0.0006952062249183655,-0.0008482956327497959
1717857936883652000,11.432652099609374,0.0017547344323247671,0.00015005748718976974,-0.00002271542325615883
1717857936893693200,11.442693115234375,0.00023827282711863518,0.0007745129987597466,0.001555394846946001
1717857936903734300,11.452734375,0.0002555837854743004,-0.0001975400373339653,-0.0017029824666678905
1717857936913774300,11.4627744140625,-0.00033038784749805927,-0.0009484104812145233,-0.0008572302758693695
1717857936923815200,11.472815185546875,-0.0008451768662780523,0.0003378959372639656,-0.0004007644020020962
1717857936933856300,11.482856201171876,0.0008559396956115961,0.00025694724172353745,-0.00007446389645338058
1717857936943897300,11.4928974609375,0.0007701858412474394,-0.0003220243379473686,-0.000985531136393547
1717857936953938200,11.502938232421876,-0.0003193614538758993,-0.0017738426104187965,0.00029312167316675186
1717857936963978000,11.51297802734375,-0.0002919307444244623,-0.000640401616692543,-0.0005092890933156013
1717857936974019000,11.52301904296875,-0.0008028226438909769,0.00045912060886621475,0.00007554469630122185
1717857936984060200,11.53306005859375,0.0008384834509342909,-0.00021998584270477295,0.0006923326291143894
