time,seconds_elapsed,z,y,x
1716734859964533500,0.510533447265625,9.797372817993164,0.047884032130241394,0.05027823522686958
1716734859974533400,0.520533447265625,9.806949615478516,0.047884032130241394,0.0454898327589035
1716734859984533500,0.530533447265625,9.792584419250488,0.047884032130241394,0.040701430290937424
1716734859994533400,0.540533447265625,9.816526412963867,0.038307227194309235,0.05985504388809204
1716734860004533500,0.550533447265625,9.80216121673584,0.035913024097681046,0.05985504388809204
1716734860014533400,0.560533447265625,9.787796020507812,0.038307227194309235,0.05506663769483566
1716734860024533500,0.570533447265625,9.785401344299316,0.040701430290937424,0.0694318488240242
1716734860034533400,0.580533447265625,9.823708534240723,0.026336219161748886,0.06703764945268631
1716734860044533500,0.590533447265625,9.80216121673584,0.023942016065120697,0.05985504388809204
1716734860054533400,0.600533447265625,9.794978141784668,0.028730420395731926,0.06703764945268631
1716734860064533500,0.610533447265625,9.792584419250488,0.0454898327589035,0.05985504388809204
1716734860074533400,0.620533447265625,9.809343338012695,0.035913024097681046,0.05985504388809204
1716734860084533500,0.630533447265625,9.816526412963867,0.05027823522686958,0.06464344263076782
1716734860094533400,0.640533447265625,9.80216121673584,0.040701430290937424,0.05267243832349777
1716734860104533500,0.650533447265625,9.814131736755371,0.033518824726343155,0.06703764945268631
1716734860114533400,0.660533447265625,9.797372817993164,0.038307227194309235,0.035913024097681046
1716734860124533500,0.670533447265625,9.799766540527344,0.040701430290937424,0.05027823522686958
1716734860134533400,0.680533447265625,9.809343338012695,0.05027823522686958,0.05985504388809204
1716734860144533500,0.690533447265625,9.816526412963867,0.033518824726343155,0.05506663769483566
1716734860154533400,0.700533447265625,9.794978141784668,0.033518824726343155,0.043095629662275314
1716734860164533500,0.710533447265625,9.797372817993164,0.038307227194309235,0.05027823522686958
1716734860174533600,0.72053369140625,9.809343338012695,0.035913024097681046,0.05985504388809204
1716734860184533500,0.730533447265625,9.811738014221191,0.026336219161748886,0.06224924325942993
1716734860194533600,0.74053369140625,9.823708534240723,0.038307227194309235,0.06703764945268631
1716734860204533500,0.750533447265625,9.828496932983398,0.021547814831137657,0.05027823522686958
1716734860214533600,0.76053369140625,9.80216121673584,0.038307227194309235,0.0694318488240242
1716734860224533500,0.770533447265625,9.80216121673584,0.038307227194309235,0.06464344263076782
1716734860234533600,0.78053369140625,9.797372817993164,0.035913024097681046,0.06703764945268631
1716734860244533500,0.790533447265625,9.799766540527344,0.031124621629714966,0.05027823522686958
1716734860254533600,0.80053369140625,9.816526412963867,0.040701430290937424,0.0454898327589035
1716734860264533500,0.810533447265625,9.785401344299316,0.035913024097681046,0.05027823522686958
1716734860274533600,0.82053369140625,9.78061294555664,0.031124621629714966,0.0454898327589035
1716734860284533500,0.830533447265625,9.80455493927002,0.040701430290937424,0.05746084079146385
1716734860294533600,0.84053369140625,9.823708534240723,0.038307227194309235,0.05746084079146385
1716734860304533500,0.850533447265625,9.811738014221191,0.033518824726343155,0.08379705995321274
1716734860314533600,0.86053369140625,9.78061294555664,0.038307227194309235,0.08140286058187485
1716734860324533500,0.870533447265625,9.739912033081055,0.035913024097681046,0.07900865375995636
1716734860334533600,0.88053369140625,9.818920135498047,0.026336219161748886,0.05506663769483566
1716734860344533500,0.890533447265625,9.845256805419922,0.028730420395731926,0.07900865375995636
1716734860354533600,0.90053369140625,9.792584419250488,0.016759412363171577,0.07661445438861847
1716734860364533500,0.910533447265625,9.74709415435791,0.038307227194309235,0.06224924325942993
1716734860374533600,0.92053369140625,9.730335235595703,0.043095629662275314,0.05746084079146385
1716734860384533500,0.930533447265625,9.821314811706543,0.031124621629714966,0.07182604819536209
1716734860394533600,0.94053369140625,9.850045204162598,0.033518824726343155,0.06703764945268631
1716734860404533500,0.950533447265625,9.790189743041992,0.035913024097681046,0.05267243832349777
1716734860414533600,0.96053369140625,9.754277229309082,0.05506663769483566,0.06464344263076782
1716734860424533500,0.970533447265625,9.80455493927002,0.033518824726343155,0.028730420395731926
1716734860434533600,0.98053369140625,9.840468406677246,0.028730420395731926,0.028730420395731926
1716734860444533500,0.990533447265625,9.794978141784668,0.028730420395731926,0.0694318488240242
1716734860454533600,1.00053369140625,9.763854026794434,0.023942016065120697,0.035913024097681046
1716734860464533500,1.010533447265625,9.799766540527344,0.028730420395731926,0.033518824726343155
1716734860474533400,1.020533447265625,9.833285331726074,0.05027823522686958,0.043095629662275314
1716734860484533500,1.030533447265625,9.794978141784668,0.047884032130241394,0.05746084079146385
1716734860494533400,1.040533447265625,9.783007621765137,0.038307227194309235,0.06464344263076782
1716734860504533500,1.050533447265625,9.797372817993164,0.033518824726343155,0.05985504388809204
1716734860514533400,1.060533447265625,9.828496932983398,0.0454898327589035,0.040701430290937424
1716734860524533500,1.070533447265625,9.821314811706543,0.026336219161748886,0.05985504388809204
1716734860534533400,1.080533447265625,9.787796020507812,0.023942016065120697,0.05506663769483566
1716734860544533500,1.090533447265625,9.80455493927002,0.040701430290937424,0.05267243832349777
1716734860554532600,1.10053271484375,9.816526412963867,0.0454898327589035,0.06703764945268631
1716734860564532500,1.110532470703125,9.80455493927002,0.05506663769483566,0.05027823522686958
1716734860574532600,1.12053271484375,9.787796020507812,0.047884032130241394,0.05746084079146385
1716734860584532500,1.130532470703125,9.799766540527344,0.038307227194309235,0.05746084079146385
1716734860594532600,1.14053271484375,9.818920135498047,0.040701430290937424,0.043095629662275314
1716734860604532500,1.150532470703125,9.823708534240723,0.033518824726343155,0.06703764945268631
1716734860614532600,1.16053271484375,9.80216121673584,0.038307227194309235,0.06224924325942993
1716734860624532500,1.170532470703125,9.799766540527344,0.031124621629714966,0.043095629662275314
1716734860634532600,1.18053271484375,9.806949615478516,0.026336219161748886,0.05985504388809204
1716734860644532500,1.190532470703125,9.816526412963867,0.031124621629714966,0.038307227194309235
1716734860654532600,1.20053271484375,9.80455493927002,0.047884032130241394,0.026336219161748886
1716734860664532200,1.2105322265625,9.785401344299316,0.035913024097681046,0.05027823522686958
1716734860674532000,1.220531982421875,9.821314811706543,0.031124621629714966,0.043095629662275314
1716734860684532200,1.2305322265625,9.821314811706543,0.033518824726343155,0.06703764945268631
1716734860694532000,1.240531982421875,9.78061294555664,0.014365210197865963,0.05506663769483566
1716734860704532200,1.2505322265625,9.792584419250488,0.031124621629714966,0.05027823522686958
1716734860714532000,1.260531982421875,9.809343338012695,0.028730420395731926,0.038307227194309235
1716734860724532200,1.2705322265625,9.828496932983398,0.023942016065120697,0.043095629662275314
1716734860734532000,1.280531982421875,9.797372817993164,0.038307227194309235,0.06703764945268631
1716734860744532200,1.2905322265625,9.797372817993164,0.033518824726343155,0.06224924325942993
1716734860754532000,1.300531982421875,9.811738014221191,0.026336219161748886,0.047884032130241394
1716734860764532200,1.3105322265625,9.823708534240723,0.040701430290937424,0.05267243832349777
1716734860774531800,1.32053173828125,9.806949615478516,0.016759412363171577,0.06224924325942993
1716734860784532000,1.330531982421875,9.80455493927002,0.021547814831137657,0.05267243832349777
1716734860794531800,1.34053173828125,9.809343338012695,0.043095629662275314,0.05985504388809204
1716734860804532000,1.350531982421875,9.816526412963867,0.038307227194309235,0.023942016065120697
1716734860814531800,1.36053173828125,9.806949615478516,0.031124621629714966,0.05985504388809204
1716734860824532000,1.370531982421875,9.790189743041992,0.021547814831137657,0.05027823522686958
1716734860834531800,1.38053173828125,9.816526412963867,0.0454898327589035,0.05985504388809204
1716734860844532000,1.390531982421875,9.818920135498047,0.035913024097681046,0.05267243832349777
1716734860854532900,1.400532958984375,9.816526412963867,0.019153613597154617,0.05506663769483566
1716734860864532700,1.41053271484375,9.811738014221191,0.035913024097681046,0.06703764945268631
1716734860874532900,1.420532958984375,9.790189743041992,0.05267243832349777,0.05506663769483566
1716734860884532700,1.43053271484375,9.809343338012695,0.040701430290937424,0.05746084079146385
1716734860894532900,1.440532958984375,9.811738014221191,0.043095629662275314,0.0454898327589035
1716734860904532700,1.45053271484375,9.80455493927002,0.038307227194309235,0.05506663769483566
1716734860914532900,1.460532958984375,9.80216121673584,0.021547814831137657,0.0694318488240242
1716734860924532700,1.47053271484375,9.794978141784668,0.021547814831137657,0.05746084079146385
1716734860934532900,1.480532958984375,9.806949615478516,0.019153613597154617,0.05027823522686958
1716734860944532700,1.49053271484375,9.797372817993164,0.028730420395731926,0.0454898327589035
1716734860954532900,1.500532958984375,9.814131736755371,0.038307227194309235,0.07182604819536209
1716734860964533200,1.510533203125,9.816526412963867,0.023942016065120697,0.05985504388809204
1716734860974533000,1.520533203125,9.790189743041992,0.043095629662275314,0.06224924325942993
1716734860984533200,1.530533203125,9.797372817993164,0.035913024097681046,0.06224924325942993
1716734860994533400,1.540533447265625,9.797372817993164,0.019153613597154617,0.043095629662275314
1716734861004533200,1.550533203125,9.799766540527344,0.035913024097681046,0.0454898327589035
1716734861014533400,1.560533447265625,9.818920135498047,0.047884032130241394,0.05027823522686958
1716734861024533200,1.570533203125,9.80216121673584,0.038307227194309235,0.040701430290937424
1716734861034533400,1.580533447265625,9.799766540527344,0.028730420395731926,0.05506663769483566
1716734861044533200,1.590533203125,9.792584419250488,0.040701430290937424,0.047884032130241394
1716734861054533400,1.600533447265625,9.806949615478516,0.019153613597154617,0.05267243832349777
1716734861064533200,1.610533203125,9.80455493927002,0.035913024097681046,0.05267243832349777
1716734861074533600,1.62053369140625,9.80455493927002,0.023942016065120697,0.05027823522686958
1716734861084533800,1.63053369140625,9.826103210449219,0.043095629662275314,0.06224924325942993
1716734861094533600,1.64053369140625,9.809343338012695,0.05506663769483566,0.07182604819536209
1716734861104533800,1.65053369140625,9.797372817993164,0.038307227194309235,0.0694318488240242
1716734861117036000,1.6630361328125,9.811738014221191,0.031124621629714966,0.05746084079146385
1716734861127036200,1.6730361328125,9.816526412963867,0.031124621629714966,0.05985504388809204
1716734861137036000,1.6830361328125,9.826103210449219,0.040701430290937424,0.0694318488240242
1716734861147036200,1.6930361328125,9.809343338012695,0.023942016065120697,0.05506663769483566
1716734861157036000,1.7030361328125,9.797372817993164,0.021547814831137657,0.05506663769483566
1716734861167036200,1.7130361328125,9.809343338012695,0.043095629662275314,0.06703764945268631
1716734861177036000,1.7230361328125,9.80455493927002,0.035913024097681046,0.05027823522686958
1716734861187036200,1.7330361328125,9.80216121673584,0.026336219161748886,0.05027823522686958
1716734861197036000,1.7430361328125,9.806949615478516,0.040701430290937424,0.06224924325942993
1716734861207036200,1.7530361328125,9.792584419250488,0.05267243832349777,0.05027823522686958
1716734861217036000,1.7630361328125,9.80455493927002,0.047884032130241394,0.040701430290937424
1716734861227036200,1.7730361328125,9.80216121673584,0.038307227194309235,0.05985504388809204
1716734861237036000,1.7830361328125,9.818920135498047,0.028730420395731926,0.0454898327589035
1716734861247036200,1.7930361328125,9.816526412963867,0.019153613597154617,0.05746084079146385
1716734861257036000,1.8030361328125,9.80455493927002,0.021547814831137657,0.05267243832349777
1716734861267036200,1.8130361328125,9.790189743041992,0.031124621629714966,0.05746084079146385
1716734861277036000,1.8230361328125,9.806949615478516,0.05027823522686958,0.08140286058187485
1716734861287036200,1.8330361328125,9.823708534240723,0.026336219161748886,0.035913024097681046
1716734861297036000,1.8430361328125,9.823708534240723,0.033518824726343155,0.07422025501728058
1716734861307036000,1.853035888671875,9.806949615478516,0.038307227194309235,0.07182604819536209
1716734861317036000,1.8630361328125,9.814131736755371,0.028730420395731926,0.047884032130241394
1716734861327036000,1.873035888671875,9.80455493927002,0.031124621629714966,0.05267243832349777
1716734861337036000,1.8830361328125,9.811738014221191,0.0454898327589035,0.05506663769483566
1716734861347036000,1.893035888671875,9.806949615478516,0.0454898327589035,0.047884032130241394
1716734861357036000,1.9030361328125,9.799766540527344,0.043095629662275314,0.06224924325942993
1716734861367036000,1.913035888671875,9.806949615478516,0.038307227194309235,0.06224924325942993
1716734861377036000,1.9230361328125,9.806949615478516,0.033518824726343155,0.06464344263076782
1716734861387036000,1.933035888671875,9.806949615478516,0.023942016065120697,0.06224924325942993
1716734861397036000,1.9430361328125,9.809343338012695,0.023942016065120697,0.06464344263076782
1716734861407036000,1.953035888671875,9.806949615478516,0.026336219161748886,0.05506663769483566
1716734861417036000,1.9630361328125,9.818920135498047,0.043095629662275314,0.05746084079146385
1716734861427036000,1.973035888671875,9.797372817993164,0.028730420395731926,0.06464344263076782
1716734861437036000,1.9830361328125,9.811738014221191,0.028730420395731926,0.047884032130241394
1716734861447036000,1.993035888671875,9.80455493927002,0.031124621629714966,0.047884032130241394
1716734861457036000,2.0030361328125,9.816526412963867,0.023942016065120697,0.05746084079146385
1716734861467036000,2.013035888671875,9.818920135498047,0.047884032130241394,0.038307227194309235
1716734861477036000,2.0230361328125,9.809343338012695,0.028730420395731926,0.06224924325942993
1716734861487036000,2.033035888671875,9.806949615478516,0.0454898327589035,0.06464344263076782
1716734861497036000,2.0430361328125,9.811738014221191,0.035913024097681046,0.0694318488240242
1716734861507036000,2.053035888671875,9.809343338012695,0.038307227194309235,0.05267243832349777
1716734861517036000,2.0630361328125,9.811738014221191,0.023942016065120697,0.05506663769483566
1716734861527036000,2.073035888671875,9.806949615478516,0.035913024097681046,0.05746084079146385
1716734861537036000,2.0830361328125,9.799766540527344,0.0454898327589035,0.06224924325942993
1716734861547036000,2.093035888671875,9.80455493927002,0.023942016065120697,0.038307227194309235
1716734861557036000,2.1030361328125,9.809343338012695,0.043095629662275314,0.05267243832349777
1716734861567036000,2.113035888671875,9.809343338012695,0.038307227194309235,0.07422025501728058
1716734861577036000,2.1230361328125,9.80455493927002,0.040701430290937424,0.05746084079146385
1716734861587036000,2.133035888671875,9.794978141784668,0.028730420395731926,0.047884032130241394
1716734861597036000,2.1430361328125,9.809343338012695,0.05267243832349777,0.05985504388809204
1716734861607036000,2.153035888671875,9.80216121673584,0.047884032130241394,0.05267243832349777
1716734861617035800,2.163035888671875,9.797372817993164,0.033518824726343155,0.06703764945268631
1716734861627036000,2.173035888671875,9.799766540527344,0.031124621629714966,0.05985504388809204
1716734861637035800,2.183035888671875,9.806949615478516,0.038307227194309235,0.05267243832349777
1716734861647036000,2.193035888671875,9.797372817993164,0.031124621629714966,0.05746084079146385
1716734861657035800,2.203035888671875,9.816526412963867,0.011971008032560349,0.05506663769483566
1716734861667036000,2.213035888671875,9.797372817993164,0.028730420395731926,0.047884032130241394
1716734861677036000,2.2230361328125,9.809343338012695,0.026336219161748886,0.06464344263076782
1716734861687036000,2.233035888671875,9.818920135498047,0.040701430290937424,0.05985504388809204
1716734861697036000,2.2430361328125,9.809343338012695,0.031124621629714966,0.05985504388809204
1716734861707036000,2.253035888671875,9.794978141784668,0.033518824726343155,0.040701430290937424
1716734861717036000,2.2630361328125,9.80455493927002,0.031124621629714966,0.05506663769483566
1716734861727036000,2.273035888671875,9.814131736755371,0.028730420395731926,0.05506663769483566
1716734861737036000,2.2830361328125,9.811738014221191,0.028730420395731926,0.05746084079146385
1716734861747036000,2.293035888671875,9.818920135498047,0.031124621629714966,0.05027823522686958
1716734861757036000,2.3030361328125,9.799766540527344,0.019153613597154617,0.05027823522686958
1716734861767036000,2.313035888671875,9.80455493927002,0.033518824726343155,0.05985504388809204
1716734861777036000,2.3230361328125,9.80216121673584,0.038307227194309235,0.06464344263076782
1716734861787036000,2.333035888671875,9.823708534240723,0.05506663769483566,0.06703764945268631
1716734861797036000,2.3430361328125,9.799766540527344,0.031124621629714966,0.06224924325942993
1716734861807036000,2.353035888671875,9.792584419250488,0.026336219161748886,0.06703764945268631
1716734861817036000,2.3630361328125,9.821314811706543,0.031124621629714966,0.047884032130241394
1716734861827036000,2.373035888671875,9.818920135498047,0.035913024097681046,0.043095629662275314
1716734861837036000,2.3830361328125,9.811738014221191,0.028730420395731926,0.038307227194309235
1716734861847036000,2.393035888671875,9.806949615478516,0.028730420395731926,0.06224924325942993
1716734861857036000,2.4030361328125,9.806949615478516,0.043095629662275314,0.05746084079146385
1716734861867036000,2.413035888671875,9.797372817993164,0.040701430290937424,0.05746084079146385
1716734861877036000,2.4230361328125,9.792584419250488,0.033518824726343155,0.05746084079146385
1716734861887036000,2.433035888671875,9.799766540527344,0.031124621629714966,0.047884032130241394
1716734861897036000,2.4430361328125,9.80455493927002,0.028730420395731926,0.0454898327589035
1716734861907036000,2.453035888671875,9.80216121673584,0.033518824726343155,0.05506663769483566
1716734861917036000,2.4630361328125,9.811738014221191,0.040701430290937424,0.07422025501728058
1716734861927036000,2.473035888671875,9.80455493927002,0.023942016065120697,0.06224924325942993
1716734861937036000,2.4830361328125,9.80216121673584,0.028730420395731926,0.06224924325942993
1716734861947036000,2.493035888671875,9.806949615478516,0.011971008032560349,0.047884032130241394
1716734861957036000,2.5030361328125,9.818920135498047,0.040701430290937424,0.043095629662275314
1716734861967036000,2.513035888671875,9.794978141784668,0.031124621629714966,0.047884032130241394
1716734861977036000,2.5230361328125,9.80216121673584,0.038307227194309235,0.06464344263076782
1716734861987036000,2.533035888671875,9.80216121673584,0.038307227194309235,0.05027823522686958
1716734861997036000,2.5430361328125,9.811738014221191,0.038307227194309235,0.05267243832349777
1716734862007036000,2.553035888671875,9.811738014221191,0.05027823522686958,0.0694318488240242
1716734862017036000,2.5630361328125,9.811738014221191,0.031124621629714966,0.05985504388809204
1716734862027036000,2.573035888671875,9.806949615478516,0.033518824726343155,0.05746084079146385
1716734862037036000,2.5830361328125,9.816526412963867,0.031124621629714966,0.06464344263076782
1716734862047036000,2.593035888671875,9.799766540527344,0.0454898327589035,0.047884032130241394
1716734862057036000,2.6030361328125,9.80216121673584,0.021547814831137657,0.05506663769483566
1716734862067036000,2.613035888671875,9.814131736755371,0.033518824726343155,0.05746084079146385
1716734862077036000,2.6230361328125,9.823708534240723,0.028730420395731926,0.07422025501728058
1716734862087036000,2.633035888671875,9.80216121673584,0.031124621629714966,0.038307227194309235
1716734862097036000,2.6430361328125,9.797372817993164,0.023942016065120697,0.0454898327589035
1716734862107036000,2.653035888671875,9.794978141784668,0.028730420395731926,0.05746084079146385
1716734862117036000,2.6630361328125,9.814131736755371,0.033518824726343155,0.05506663769483566
1716734862127036000,2.673035888671875,9.814131736755371,0.035913024097681046,0.05027823522686958
1716734862137036000,2.6830361328125,9.816526412963867,0.047884032130241394,0.047884032130241394
1716734862147036000,2.693035888671875,9.794978141784668,0.021547814831137657,0.0454898327589035
1716734862157036000,2.7030361328125,9.811738014221191,0.038307227194309235,0.06464344263076782
1716734862167036000,2.713035888671875,9.799766540527344,0.035913024097681046,0.05746084079146385
1716734862177036000,2.7230361328125,9.80216121673584,0.0454898327589035,0.05746084079146385
1716734862187036000,2.733035888671875,9.809343338012695,0.038307227194309235,0.06703764945268631
1716734862197036000,2.7430361328125,9.799766540527344,0.047884032130241394,0.043095629662275314
1716734862207036000,2.753035888671875,9.814131736755371,0.043095629662275314,0.038307227194309235
1716734862217036000,2.7630361328125,9.80216121673584,0.021547814831137657,0.07900865375995636
1716734862227036000,2.773035888671875,9.794978141784668,0.031124621629714966,0.05506663769483566
1716734862237036000,2.7830361328125,9.806949615478516,0.028730420395731926,0.05985504388809204
1716734862247036000,2.793035888671875,9.806949615478516,0.023942016065120697,0.0454898327589035
1716734862257036000,2.8030361328125,9.806949615478516,0.033518824726343155,0.05985504388809204
1716734862267036000,2.813035888671875,9.806949615478516,0.014365210197865963,0.06464344263076782
1716734862277036000,2.8230361328125,9.814131736755371,0.040701430290937424,0.038307227194309235
1716734862287036000,2.833035888671875,9.80455493927002,0.0454898327589035,0.06464344263076782
1716734862297036000,2.8430361328125,9.80216121673584,0.023942016065120697,0.05027823522686958
1716734862307036000,2.853035888671875,9.80455493927002,0.019153613597154617,0.05506663769483566
1716734862317036000,2.8630361328125,9.80216121673584,0.040701430290937424,0.06703764945268631
1716734862327036000,2.873035888671875,9.794978141784668,0.038307227194309235,0.05027823522686958
1716734862337036000,2.8830361328125,9.794978141784668,0.043095629662275314,0.06464344263076782
1716734862347036000,2.893035888671875,9.799766540527344,0.033518824726343155,0.043095629662275314
1716734862357036000,2.9030361328125,9.80455493927002,0.028730420395731926,0.05267243832349777
1716734862367036000,2.913035888671875,9.799766540527344,0.038307227194309235,0.05267243832349777
1716734862377036000,2.9230361328125,9.797372817993164,0.028730420395731926,0.05027823522686958
1716734862387036000,2.933035888671875,9.790189743041992,0.031124621629714966,0.07422025501728058
1716734862397036000,2.9430361328125,9.80455493927002,0.038307227194309235,0.05267243832349777
1716734862407036000,2.953035888671875,9.794978141784668,0.043095629662275314,0.05746084079146385
1716734862417036000,2.9630361328125,9.80455493927002,0.040701430290937424,0.05985504388809204
1716734862427036000,2.973035888671875,9.809343338012695,0.016759412363171577,0.043095629662275314
1716734862437036000,2.9830361328125,9.809343338012695,0.047884032130241394,0.05985504388809204
1716734862447036000,2.993035888671875,9.797372817993164,0.031124621629714966,0.031124621629714966
1716734862457036000,3.0030361328125,9.792584419250488,0.038307227194309235,0.047884032130241394
1716734862467036000,3.013035888671875,9.797372817993164,0.031124621629714966,0.038307227194309235
1716734862477035800,3.023035888671875,9.818920135498047,0.028730420395731926,0.05027823522686958
1716734862487036000,3.033035888671875,9.809343338012695,0.033518824726343155,0.05027823522686958
1716734862497035800,3.043035888671875,9.80216121673584,0.0454898327589035,0.05746084079146385
1716734862507036000,3.053035888671875,9.797372817993164,0.038307227194309235,0.05027823522686958
1716734862517035800,3.063035888671875,9.806949615478516,0.0454898327589035,0.06464344263076782
1716734862527036000,3.073035888671875,9.799766540527344,0.038307227194309235,0.05267243832349777
1716734862537035800,3.083035888671875,9.799766540527344,0.023942016065120697,0.047884032130241394
1716734862547036000,3.093035888671875,9.80455493927002,0.0454898327589035,0.06224924325942993
1716734862557035800,3.103035888671875,9.818920135498047,0.043095629662275314,0.0454898327589035
1716734862567036000,3.113035888671875,9.806949615478516,0.028730420395731926,0.06464344263076782
1716734862577035800,3.123035888671875,9.809343338012695,0.035913024097681046,0.05267243832349777
1716734862587036000,3.133035888671875,9.806949615478516,0.016759412363171577,0.05027823522686958
1716734862597035800,3.143035888671875,9.794978141784668,0.033518824726343155,0.043095629662275314
1716734862607036000,3.153035888671875,9.80216121673584,0.040701430290937424,0.05985504388809204
1716734862617035800,3.163035888671875,9.806949615478516,0.043095629662275314,0.05506663769483566
1716734862627036000,3.173035888671875,9.809343338012695,0.038307227194309235,0.043095629662275314
1716734862637035800,3.183035888671875,9.811738014221191,0.038307227194309235,0.06703764945268631
1716734862647036000,3.193035888671875,9.80216121673584,0.035913024097681046,0.05027823522686958
1716734862657035800,3.203035888671875,9.806949615478516,0.033518824726343155,0.05506663769483566
1716734862667036000,3.213035888671875,9.785401344299316,0.016759412363171577,0.05746084079146385
1716734862677036000,3.2230361328125,9.80216121673584,0.033518824726343155,0.05746084079146385
1716734862687036000,3.233035888671875,9.797372817993164,0.043095629662275314,0.05746084079146385
1716734862697036000,3.2430361328125,9.80216121673584,0.016759412363171577,0.06464344263076782
1716734862707036000,3.253035888671875,9.797372817993164,0.026336219161748886,0.0454898327589035
1716734862717036000,3.2630361328125,9.80216121673584,0.040701430290937424,0.043095629662275314
1716734862727036000,3.273035888671875,9.814131736755371,0.033518824726343155,0.05985504388809204
1716734862737036000,3.2830361328125,9.811738014221191,0.031124621629714966,0.06224924325942993
1716734862747036000,3.293035888671875,9.792584419250488,0.031124621629714966,0.0454898327589035
1716734862757036000,3.3030361328125,9.80216121673584,0.033518824726343155,0.040701430290937424
1716734862767036000,3.313035888671875,9.80455493927002,0.040701430290937424,0.07182604819536209
1716734862777036000,3.3230361328125,9.80216121673584,0.035913024097681046,0.05506663769483566
1716734862787036000,3.333035888671875,9.80216121673584,0.040701430290937424,0.06464344263076782
1716734862797036000,3.3430361328125,9.80216121673584,0.0454898327589035,0.05506663769483566
1716734862807036000,3.353035888671875,9.809343338012695,0.035913024097681046,0.05746084079146385
1716734862817036000,3.3630361328125,9.799766540527344,0.031124621629714966,0.06224924325942993
1716734862827036000,3.373035888671875,9.80455493927002,0.035913024097681046,0.06224924325942993
1716734862837036000,3.3830361328125,9.80216121673584,0.028730420395731926,0.05746084079146385
1716734862847036000,3.393035888671875,9.80216121673584,0.035913024097681046,0.05027823522686958
1716734862857036000,3.4030361328125,9.8691987991333,0.05267243832349777,0.023942016065120697
1716734862867036000,3.413035888671875,10.099041938781738,0.031124621629714966,0.038307227194309235
1716734862877036000,3.4230361328125,10.113407135009766,0.0071826050989329815,0.033518824726343155
1716734862887036000,3.433035888671875,9.694421768188477,0.023942016065120697,0.06224924325942993
1716734862897036000,3.4430361328125,9.605836868286133,0.043095629662275314,0.05506663769483566
1716734862907036000,3.453035888671875,9.967360496520996,0.07182604819536209,0.047884032130241394
1716734862917036000,3.4630361328125,10.065523147583008,0.0454898327589035,0.06464344263076782
1716734862927036000,3.473035888671875,9.783007621765137,0.033518824726343155,0.06703764945268631
1716734862937036000,3.4830361328125,9.569923400878906,0.016759412363171577,0.06464344263076782
1716734862947036000,3.493035888671875,9.828496932983398,0.035913024097681046,0.028730420395731926
1716734862957036000,3.5030361328125,10.027215957641602,0.035913024097681046,0.05027823522686958
1716734862967036000,3.513035888671875,9.821314811706543,0.031124621629714966,0.047884032130241394
1716734862977036000,3.5230361328125,9.608230590820312,0.021547814831137657,0.05506663769483566
1716734862987036000,3.533035888671875,9.783007621765137,0.040701430290937424,0.05267243832349777
1716734862997036000,3.5430361328125,9.969755172729492,0.05267243832349777,0.0454898327589035
1716734863007036000,3.553035888671875,9.845256805419922,0.0454898327589035,0.047884032130241394
1716734863017036000,3.5630361328125,9.624990463256836,0.031124621629714966,0.05267243832349777
1716734863027036000,3.573035888671875,9.773430824279785,0.035913024097681046,0.038307227194309235
1716734863037036000,3.5830361328125,9.943418502807617,0.033518824726343155,0.05985504388809204
1716734863047036000,3.593035888671875,9.83807373046875,0.014365210197865963,0.031124621629714966
1716734863057036000,3.6030361328125,9.648932456970215,0.016759412363171577,0.043095629662275314
1716734863067036000,3.613035888671875,9.751882553100586,0.043095629662275314,0.06464344263076782
1716734863077036000,3.6230361328125,9.92905330657959,0.038307227194309235,0.05985504388809204
1716734863087036000,3.633035888671875,9.890746116638184,0.043095629662275314,0.08140286058187485
1716734863097036000,3.6430361328125,9.703998565673828,0.0454898327589035,0.07661445438861847
1716734863107036000,3.653035888671875,9.730335235595703,0.040701430290937424,0.06703764945268631
1716734863117036000,3.6630361328125,9.883563995361328,0.016759412363171577,0.05985504388809204
1716734863127036000,3.673035888671875,9.883563995361328,0.016759412363171577,0.0694318488240242
1716734863137036000,3.6830361328125,9.735123634338379,0.014365210197865963,0.043095629662275314
1716734863147036000,3.693035888671875,9.715970039367676,0.047884032130241394,0.05506663769483566
1716734863157036000,3.7030361328125,9.85962200164795,0.040701430290937424,0.0694318488240242
1716734863167036000,3.713035888671875,9.883563995361328,0.043095629662275314,0.07422025501728058
1716734863177036000,3.7230361328125,9.751882553100586,0.038307227194309235,0.038307227194309235
1716734863187036000,3.733035888671875,9.720758438110352,0.026336219161748886,0.043095629662275314
1716734863197036000,3.7430361328125,9.842862129211426,0.033518824726343155,0.05506663769483566
1716734863207036000,3.753035888671875,9.85962200164795,0.035913024097681046,0.040701430290937424
1716734863217036000,3.7630361328125,9.775824546813965,0.031124621629714966,0.05746084079146385
1716734863227036000,3.773035888671875,9.739912033081055,0.031124621629714966,0.05267243832349777
1716734863237036000,3.7830361328125,9.826103210449219,0.028730420395731926,0.0694318488240242
1716734863247036000,3.793035888671875,9.866804122924805,0.033518824726343155,0.05746084079146385
1716734863257036000,3.8030361328125,9.783007621765137,0.033518824726343155,0.05027823522686958
1716734863267036000,3.813035888671875,9.739912033081055,0.009576806798577309,0.05746084079146385
1716734863277036000,3.8230361328125,9.806949615478516,0.0454898327589035,0.05506663769483566
1716734863287036000,3.833035888671875,9.854833602905273,0.023942016065120697,0.05985504388809204
1716734863297036000,3.8430361328125,9.792584419250488,0.035913024097681046,0.0454898327589035
1716734863307036000,3.853035888671875,9.76864242553711,0.021547814831137657,0.05267243832349777
1716734863317036000,3.8630361328125,9.80216121673584,0.038307227194309235,0.06224924325942993
1716734863327036000,3.873035888671875,9.845256805419922,0.038307227194309235,0.05027823522686958
1716734863337036000,3.8830361328125,9.806949615478516,0.040701430290937424,0.038307227194309235
1716734863347036000,3.893035888671875,9.763854026794434,0.040701430290937424,0.06464344263076782
1716734863357036000,3.9030361328125,9.80216121673584,0.033518824726343155,0.047884032130241394
1716734863367036000,3.913035888671875,9.847650527954102,0.040701430290937424,0.040701430290937424
1716734863377036000,3.9230361328125,9.814131736755371,0.021547814831137657,0.05267243832349777
1716734863387036000,3.933035888671875,9.773430824279785,0.038307227194309235,0.06224924325942993
1716734863397036000,3.9430361328125,9.78061294555664,0.05027823522686958,0.05267243832349777
1716734863407036000,3.953035888671875,9.83807373046875,0.043095629662275314,0.06464344263076782
1716734863417036000,3.9630361328125,9.80455493927002,0.023942016065120697,0.05267243832349777
1716734863427035600,3.97303564453125,9.787796020507812,0.028730420395731926,0.047884032130241394
1716734863437035500,3.983035400390625,9.787796020507812,0.031124621629714966,0.0454898327589035
1716734863447035600,3.99303564453125,9.821314811706543,0.016759412363171577,0.07182604819536209
1716734863457035500,4.003035400390625,9.830891609191895,0.047884032130241394,0.05027823522686958
1716734863467035600,4.01303564453125,9.80216121673584,0.033518824726343155,0.06224924325942993
1716734863477035500,4.023035400390625,9.771036148071289,0.040701430290937424,0.05506663769483566
1716734863487035400,4.033035400390625,9.811738014221191,0.038307227194309235,0.05746084079146385
1716734863497035500,4.043035400390625,9.814131736755371,0.026336219161748886,0.05027823522686958
1716734863507035400,4.053035400390625,9.790189743041992,0.035913024097681046,0.043095629662275314
1716734863517035500,4.063035400390625,9.790189743041992,0.016759412363171577,0.06464344263076782
1716734863527035400,4.073035400390625,9.806949615478516,0.038307227194309235,0.05506663769483566
1716734863537035500,4.083035400390625,9.818920135498047,0.047884032130241394,0.05267243832349777
1716734863547035400,4.093035400390625,9.787796020507812,0.031124621629714966,0.038307227194309235
1716734863557035500,4.103035400390625,9.794978141784668,0.019153613597154617,0.05267243832349777
1716734863567035400,4.113035400390625,9.814131736755371,0.031124621629714966,0.0454898327589035
1716734863577035500,4.123035400390625,9.809343338012695,0.043095629662275314,0.040701430290937424
1716734863587035400,4.133035400390625,9.790189743041992,0.031124621629714966,0.0694318488240242
1716734863597035500,4.143035400390625,9.78061294555664,0.031124621629714966,0.05746084079146385
1716734863607035400,4.153035400390625,9.799766540527344,0.021547814831137657,0.0454898327589035
1716734863617035500,4.163035400390625,9.799766540527344,0.033518824726343155,0.047884032130241394
1716734863627035400,4.173035400390625,9.794978141784668,0.026336219161748886,0.06224924325942993
1716734863637035500,4.183035400390625,9.794978141784668,0.026336219161748886,0.07422025501728058
1716734863647035400,4.193035400390625,9.806949615478516,0.0454898327589035,0.06224924325942993
1716734863657035500,4.203035400390625,9.826103210449219,0.038307227194309235,0.05746084079146385
1716734863667035600,4.21303564453125,9.80216121673584,0.023942016065120697,0.07661445438861847
1716734863677035500,4.223035400390625,9.787796020507812,0.040701430290937424,0.06464344263076782
1716734863687035600,4.23303564453125,9.80455493927002,0.043095629662275314,0.06224924325942993
1716734863697035500,4.243035400390625,9.818920135498047,0.023942016065120697,0.06224924325942993
1716734863707035600,4.25303564453125,9.80216121673584,0.028730420395731926,0.05985504388809204
1716734863717035500,4.263035400390625,9.818920135498047,0.031124621629714966,0.05267243832349777
1716734863727036000,4.273035888671875,9.80455493927002,0.05267243832349777,0.05506663769483566
1716734863737036000,4.2830361328125,9.797372817993164,0.035913024097681046,0.05267243832349777
1716734863747036000,4.293035888671875,9.794978141784668,0.0454898327589035,0.06224924325942993
1716734863757036000,4.3030361328125,9.80216121673584,0.028730420395731926,0.05746084079146385
1716734863767036000,4.313035888671875,9.806949615478516,0.031124621629714966,0.047884032130241394
1716734863777036000,4.3230361328125,9.818920135498047,0.016759412363171577,0.043095629662275314
1716734863787036000,4.333035888671875,9.80216121673584,0.028730420395731926,0.038307227194309235
1716734863797036000,4.3430361328125,9.792584419250488,0.05267243832349777,0.047884032130241394
1716734863807036000,4.353035888671875,9.809343338012695,0.011971008032560349,0.009576806798577309
1716734863817036000,4.3630361328125,10.077494621276855,0.06703764945268631,0.031124621629714966
1716734863827036000,4.373035888671875,10.079888343811035,-0.002394201699644327,0.0454898327589035
1716734863837036000,4.3830361328125,9.684844970703125,-0.0071826050989329815,0.06703764945268631
1716734863847036000,4.393035888671875,9.457395553588867,0.031124621629714966,0.05746084079146385
1716734863857036000,4.4030361328125,9.948206901550293,0.0694318488240242,0.06464344263076782
1716734863867036000,4.413035888671875,10.1660795211792,0.043095629662275314,0.07182604819536209
1716734863877036000,4.4230361328125,9.792584419250488,0.043095629662275314,0.05985504388809204
1716734863887036000,4.433035888671875,9.452607154846191,0.021547814831137657,0.05985504388809204
1716734863897036000,4.4430361328125,9.756670951843262,0.031124621629714966,0.035913024097681046
1716734863907036000,4.453035888671875,10.120590209960938,0.035913024097681046,0.016759412363171577
1716734863917036000,4.4630361328125,9.881169319152832,0.019153613597154617,0.05506663769483566
1716734863927036000,4.473035888671875,9.526827812194824,0.038307227194309235,0.047884032130241394
1716734863937036000,4.4830361328125,9.711181640625,0.026336219161748886,0.05985504388809204
1716734863947036000,4.493035888671875,10.036792755126953,0.040701430290937424,0.038307227194309235
1716734863957036000,4.5030361328125,9.914688110351562,0.033518824726343155,0.05746084079146385
1716734863967036000,4.513035888671875,9.593865394592285,0.028730420395731926,0.06703764945268631
1716734863977035800,4.523035888671875,9.694421768188477,0.035913024097681046,0.05985504388809204
1716734863987036000,4.533035888671875,9.981725692749023,0.05027823522686958,0.0694318488240242
1716734863997035800,4.543035888671875,9.89314079284668,0.016759412363171577,0.05746084079146385
1716734864007036000,4.553035888671875,9.624990463256836,0.014365210197865963,0.031124621629714966
1716734864017035800,4.563035888671875,9.687239646911621,0.016759412363171577,0.05267243832349777
1716734864027036000,4.573035888671875,9.964966773986816,0.043095629662275314,0.047884032130241394
1716734864037035800,4.583035888671875,9.92905330657959,0.038307227194309235,0.08379705995321274
1716734864047036000,4.593035888671875,9.67766284942627,0.0454898327589035,0.07182604819536209
1716734864057035800,4.603035888671875,9.67766284942627,0.047884032130241394,0.06464344263076782
1716734864067036000,4.613035888671875,9.912294387817383,0.040701430290937424,0.05746084079146385
1716734864077035800,4.623035888671875,9.955389976501465,0.026336219161748886,0.05267243832349777
1716734864087036000,4.633035888671875,9.732728958129883,0.028730420395731926,0.05506663769483566
1716734864097035800,4.643035888671875,9.675268173217773,0.035913024097681046,0.05506663769483566
1716734864107036000,4.653035888671875,9.850045204162598,0.05746084079146385,0.06224924325942993
1716734864117035800,4.663035888671875,9.924264907836914,0.038307227194309235,0.06224924325942993
1716734864127036000,4.673035888671875,9.775824546813965,0.0454898327589035,0.05267243832349777
1716734864137035800,4.683035888671875,9.68005657196045,0.033518824726343155,0.05506663769483566
1716734864147036000,4.693035888671875,9.818920135498047,0.035913024097681046,0.043095629662275314
1716734864157036000,4.7030361328125,9.902717590332031,0.011971008032560349,0.05267243832349777
1716734864167036000,4.713035888671875,9.792584419250488,0.035913024097681046,0.040701430290937424
1716734864177036000,4.7230361328125,9.687239646911621,0.038307227194309235,0.031124621629714966
1716734864187036000,4.733035888671875,9.809343338012695,0.040701430290937424,0.05985504388809204
1716734864197036000,4.7430361328125,9.907505989074707,0.035913024097681046,0.06224924325942993
1716734864207036000,4.753035888671875,9.80455493927002,0.023942016065120697,0.06224924325942993
1716734864217036000,4.7630361328125,9.727940559387207,0.0454898327589035,0.07182604819536209
1716734864227036000,4.773035888671875,9.787796020507812,0.011971008032560349,0.07422025501728058
1716734864237036000,4.7830361328125,9.876380920410156,0.035913024097681046,0.0694318488240242
1716734864247036000,4.793035888671875,9.814131736755371,0.028730420395731926,0.05267243832349777
1716734864257036000,4.8030361328125,9.742305755615234,0.038307227194309235,0.05267243832349777
1716734864267036000,4.813035888671875,9.766247749328613,0.0454898327589035,0.05027823522686958
1716734864277036000,4.8230361328125,9.873987197875977,0.05267243832349777,0.05267243832349777
1716734864287036000,4.833035888671875,9.826103210449219,0.040701430290937424,0.06464344263076782
1716734864297036000,4.8430361328125,9.732728958129883,0.040701430290937424,0.047884032130241394
1716734864307036000,4.853035888671875,9.78061294555664,0.021547814831137657,0.05746084079146385
1716734864317036000,4.8630361328125,9.850045204162598,0.033518824726343155,0.0454898327589035
1716734864327036000,4.873035888671875,9.833285331726074,0.033518824726343155,0.05506663769483566
1716734864337036000,4.8830361328125,9.763854026794434,0.0454898327589035,0.07900865375995636
1716734864347036000,4.893035888671875,9.763854026794434,0.035913024097681046,0.047884032130241394
1716734864357036000,4.9030361328125,9.83568000793457,0.033518824726343155,0.06703764945268631
1716734864367036000,4.913035888671875,9.828496932983398,0.031124621629714966,0.05985504388809204
1716734864377036000,4.9230361328125,9.766247749328613,0.038307227194309235,0.06224924325942993
1716734864387036000,4.933035888671875,9.78061294555664,0.043095629662275314,0.07422025501728058
1716734864397036000,4.9430361328125,9.821314811706543,0.040701430290937424,0.08858546614646912
1716734864407036000,4.953035888671875,9.840468406677246,0.038307227194309235,0.07900865375995636
1716734864417036000,4.9630361328125,9.785401344299316,0.05027823522686958,0.06464344263076782
1716734864427036000,4.973035888671875,9.763854026794434,0.047884032130241394,0.06224924325942993
1716734864437036000,4.9830361328125,9.811738014221191,0.0454898327589035,0.05027823522686958
1716734864447036000,4.993035888671875,9.83568000793457,0.040701430290937424,0.0454898327589035
1716734864457036000,5.0030361328125,9.792584419250488,0.026336219161748886,0.06224924325942993
1716734864467036000,5.013035888671875,9.773430824279785,0.031124621629714966,0.05027823522686958
1716734864477035800,5.023035888671875,9.806949615478516,0.040701430290937424,0.06464344263076782
1716734864487036000,5.033035888671875,9.83807373046875,0.021547814831137657,0.05506663769483566
1716734864497035800,5.043035888671875,9.790189743041992,0.0454898327589035,0.05027823522686958
1716734864507036000,5.053035888671875,9.78061294555664,0.031124621629714966,0.040701430290937424
1716734864517035800,5.063035888671875,9.809343338012695,0.033518824726343155,0.05746084079146385
1716734864527036000,5.073035888671875,9.833285331726074,0.031124621629714966,0.05746084079146385
1716734864537035800,5.083035888671875,9.792584419250488,0.035913024097681046,0.0694318488240242
1716734864547036000,5.093035888671875,9.783007621765137,0.023942016065120697,0.047884032130241394
1716734864557035800,5.103035888671875,9.811738014221191,0.035913024097681046,0.05746084079146385
1716734864567036000,5.113035888671875,9.826103210449219,0.028730420395731926,0.05985504388809204
1716734864577035800,5.123035888671875,9.809343338012695,0.038307227194309235,0.05746084079146385
1716734864587036000,5.133035888671875,9.773430824279785,0.014365210197865963,0.06464344263076782
1716734864597035800,5.143035888671875,9.790189743041992,0.05027823522686958,0.05985504388809204
1716734864607036000,5.153035888671875,9.818920135498047,0.043095629662275314,0.07182604819536209
1716734864617035800,5.163035888671875,9.794978141784668,0.033518824726343155,0.05506663769483566
1716734864627036000,5.173035888671875,9.797372817993164,0.019153613597154617,0.05267243832349777
1716734864637035800,5.183035888671875,9.790189743041992,0.019153613597154617,0.0454898327589035
1716734864647036000,5.193035888671875,9.814131736755371,0.026336219161748886,0.035913024097681046
1716734864657035800,5.203035888671875,9.806949615478516,0.043095629662275314,0.05746084079146385
1716734864667036000,5.213035888671875,9.792584419250488,0.040701430290937424,0.038307227194309235
1716734864677036000,5.2230361328125,9.790189743041992,0.035913024097681046,0.05985504388809204
1716734864687036000,5.233035888671875,9.811738014221191,0.043095629662275314,0.047884032130241394
1716734864697036000,5.2430361328125,9.80216121673584,0.021547814831137657,0.05027823522686958
1716734864707036000,5.253035888671875,9.783007621765137,0.035913024097681046,0.038307227194309235
1716734864717036000,5.2630361328125,9.763854026794434,0.031124621629714966,0.07661445438861847
1716734864727036000,5.273035888671875,9.74470043182373,0.05746084079146385,0.028730420395731926
1716734864737035800,5.283035888671875,10.192416191101074,0.040701430290937424,0.05746084079146385
1716734864747036000,5.293035888671875,10.182839393615723,-0.002394201699644327,0.05506663769483566
1716734864757035800,5.303035888671875,9.502885818481445,-0.004788403399288654,0.07900865375995636
1716734864767036000,5.313035888671875,9.431059837341309,0.038307227194309235,0.047884032130241394
1716734864777035800,5.323035888671875,10.125378608703613,0.06464344263076782,0.06224924325942993
1716734864787036000,5.333035888671875,10.25466537475586,0.06224924325942993,0.05746084079146385
1716734864797035800,5.343035888671875,9.663297653198242,0.019153613597154617,0.05746084079146385
1716734864807036000,5.353035888671875,9.450213432312012,0.021547814831137657,0.05027823522686958
1716734864817035800,5.363035888671875,9.948206901550293,0.035913024097681046,0.05267243832349777
1716734864827036000,5.373035888671875,10.151714324951172,0.028730420395731926,0.05985504388809204
1716734864837035800,5.383035888671875,9.6896333694458,0.011971008032560349,0.047884032130241394
1716734864847036000,5.393035888671875,9.49809741973877,0.019153613597154617,0.0694318488240242
1716734864857035800,5.403035888671875,9.864410400390625,0.031124621629714966,0.047884032130241394
1716734864867036000,5.413035888671875,10.096648216247559,0.07182604819536209,0.031124621629714966
1716734864877035800,5.423035888671875,9.771036148071289,0.031124621629714966,0.047884032130241394
1716734864887036000,5.433035888671875,9.522039413452148,0.033518824726343155,0.05506663769483566
1716734864897035800,5.443035888671875,9.809343338012695,0.028730420395731926,0.07661445438861847
1716734864907036000,5.453035888671875,10.058341026306152,0.023942016065120697,0.06224924325942993
1716734864917035800,5.463035888671875,9.814131736755371,0.011971008032560349,0.047884032130241394
1716734864927036000,5.473035888671875,9.545981407165527,0.004788403399288654,0.040701430290937424
1716734864937036000,5.4830361328125,9.735123634338379,0.031124621629714966,0.05267243832349777
1716734864947036000,5.493035888671875,10.01524543762207,0.026336219161748886,0.08140286058187485
1716734864957036000,5.5030361328125,9.878775596618652,0.033518824726343155,0.07422025501728058
1716734864967036000,5.513035888671875,9.596260070800781,0.038307227194309235,0.07661445438861847
1716734864977035800,5.523035888671875,9.732728958129883,0.05746084079146385,0.05746084079146385
1716734864987036000,5.533035888671875,9.974543571472168,0.028730420395731926,0.05746084079146385
1716734864997035800,5.543035888671875,9.881169319152832,0,0.06464344263076782
1716734865007036000,5.553035888671875,9.658509254455566,-0.004788403399288654,0.05267243832349777
1716734865017035800,5.563035888671875,9.708786964416504,0.033518824726343155,0.07661445438861847
1716734865027036000,5.573035888671875,9.936236381530762,0.0454898327589035,0.05506663769483566
1716734865037035800,5.583035888671875,9.914688110351562,0.05027823522686958,0.05027823522686958
1716734865047036000,5.593035888671875,9.696816444396973,0.031124621629714966,0.05985504388809204
1716734865057035800,5.603035888671875,9.703998565673828,0.023942016065120697,0.05506663769483566
1716734865067036000,5.613035888671875,9.881169319152832,0.031124621629714966,0.035913024097681046
1716734865077035800,5.623035888671875,9.89314079284668,0.040701430290937424,0.05027823522686958
1716734865087036000,5.633035888671875,9.735123634338379,0.038307227194309235,0.033518824726343155
1716734865097035800,5.643035888671875,9.6896333694458,0.021547814831137657,0.035913024097681046
1716734865107036000,5.653035888671875,9.845256805419922,0.038307227194309235,0.05267243832349777
1716734865117035800,5.663035888671875,9.900322914123535,0.035913024097681046,0.06464344263076782
1716734865127036000,5.673035888671875,9.763854026794434,0.033518824726343155,0.06224924325942993
1716734865137035800,5.683035888671875,9.71357536315918,0.021547814831137657,0.06703764945268631
1716734865147036000,5.693035888671875,9.823708534240723,0.035913024097681046,0.06703764945268631
1716734865157035800,5.703035888671875,9.866804122924805,0.038307227194309235,0.0454898327589035
1716734865167036000,5.713035888671875,9.766247749328613,0.009576806798577309,0.06464344263076782
1716734865177036000,5.7230361328125,9.725546836853027,0.019153613597154617,0.07422025501728058
1716734865187036000,5.733035888671875,9.826103210449219,0.047884032130241394,0.05746084079146385
1716734865197036000,5.7430361328125,9.881169319152832,0.0454898327589035,0.06464344263076782
1716734865207036000,5.753035888671875,9.794978141784668,0.043095629662275314,0.05985504388809204
1716734865217036000,5.7630361328125,9.730335235595703,0.0454898327589035,0.040701430290937424
1716734865227036000,5.773035888671875,9.797372817993164,0.026336219161748886,0.040701430290937424
1716734865237035800,5.783035888671875,9.857227325439453,0.031124621629714966,0.043095629662275314
1716734865247036000,5.793035888671875,9.818920135498047,0.031124621629714966,0.05506663769483566
1716734865257035800,5.803035888671875,9.739912033081055,0.040701430290937424,0.06224924325942993
1716734865267036000,5.813035888671875,9.773430824279785,0.038307227194309235,0.06703764945268631
1716734865277035800,5.823035888671875,9.842862129211426,0.0454898327589035,0.05267243832349777
1716734865287036000,5.833035888671875,9.818920135498047,0.026336219161748886,0.0454898327589035
1716734865297035800,5.843035888671875,9.737517356872559,0.021547814831137657,0.06464344263076782
1716734865307036000,5.853035888671875,9.78061294555664,0.026336219161748886,0.035913024097681046
1716734865317036000,5.8630361328125,9.83807373046875,0.016759412363171577,0.043095629662275314
1716734865327036000,5.873035888671875,9.809343338012695,0.026336219161748886,0.0694318488240242
1716734865337036000,5.8830361328125,9.751882553100586,0.038307227194309235,0.08379705995321274
1716734865347036000,5.893035888671875,9.78061294555664,0.033518824726343155,0.06464344263076782
1716734865357036000,5.9030361328125,9.821314811706543,0.011971008032560349,0.0694318488240242
1716734865367036000,5.913035888671875,9.823708534240723,0.031124621629714966,0.05506663769483566
1716734865377036000,5.9230361328125,9.775824546813965,0.035913024097681046,0.05027823522686958
1716734865387036000,5.933035888671875,9.792584419250488,0.035913024097681046,0.06224924325942993
1716734865397036000,5.9430361328125,9.816526412963867,0.026336219161748886,0.047884032130241394
1716734865407036000,5.953035888671875,9.833285331726074,0.035913024097681046,0.05267243832349777
1716734865417036000,5.9630361328125,9.778219223022461,0.023942016065120697,0.05746084079146385
1716734865427036000,5.973035888671875,9.778219223022461,0.026336219161748886,0.05985504388809204
1716734865437036000,5.9830361328125,9.821314811706543,0.043095629662275314,0.05506663769483566
1716734865447036000,5.993035888671875,9.821314811706543,0.038307227194309235,0.05746084079146385
1716734865457036000,6.0030361328125,9.792584419250488,0.028730420395731926,0.07182604819536209
1716734865467036000,6.013035888671875,9.78061294555664,0.031124621629714966,0.07661445438861847
1716734865477035800,6.023035888671875,9.797372817993164,0.033518824726343155,0.05267243832349777
1716734865487036000,6.033035888671875,9.818920135498047,0.031124621629714966,0.05746084079146385
1716734865497035800,6.043035888671875,9.775824546813965,0.0454898327589035,0.05506663769483566
1716734865507036000,6.053035888671875,9.785401344299316,0.028730420395731926,0.06224924325942993
1716734865517035800,6.063035888671875,9.809343338012695,0.035913024097681046,0.05985504388809204
1716734865527036000,6.073035888671875,9.806949615478516,0.031124621629714966,0.05267243832349777
1716734865537035800,6.083035888671875,9.794978141784668,0.023942016065120697,0.05746084079146385
1716734865547036000,6.093035888671875,9.76864242553711,0.023942016065120697,0.06703764945268631
1716734865557035800,6.103035888671875,9.809343338012695,0.028730420395731926,0.06224924325942993
1716734865567036000,6.113035888671875,9.799766540527344,0.023942016065120697,0.05746084079146385
1716734865577035800,6.123035888671875,9.792584419250488,0.011971008032560349,0.0694318488240242
1716734865587036000,6.133035888671875,9.771036148071289,0.038307227194309235,0.05506663769483566
1716734865597035800,6.143035888671875,9.809343338012695,0.035913024097681046,0.047884032130241394
1716734865607036000,6.153035888671875,9.818920135498047,0.026336219161748886,0.05506663769483566
1716734865617035800,6.163035888671875,9.799766540527344,0.031124621629714966,0.021547814831137657
1716734865627036000,6.173035888671875,9.783007621765137,0.035913024097681046,0.040701430290937424
1716734865637035800,6.183035888671875,9.799766540527344,0.040701430290937424,0.05506663769483566
1716734865647036000,6.193035888671875,9.80216121673584,0.026336219161748886,0.05506663769483566
1716734865657035800,6.203035888671875,9.794978141784668,0.033518824726343155,0.040701430290937424
1716734865667036000,6.213035888671875,9.783007621765137,0.033518824726343155,0.05027823522686958
1716734865677035800,6.223035888671875,9.862015724182129,0.05746084079146385,0.028730420395731926
1716734865687036000,6.233035888671875,10.137349128723145,0.038307227194309235,0.040701430290937424
1716734865697035800,6.243035888671875,10.029610633850098,0.002394201699644327,0.05746084079146385
1716734865707036000,6.253035888671875,9.632172584533691,0.014365210197865963,0.05267243832349777
1716734865717035800,6.263035888671875,9.613018989562988,0.014365210197865963,0.05506663769483566
1716734865727036000,6.273035888671875,9.996091842651367,0.035913024097681046,0.0694318488240242
1716734865737035800,6.283035888671875,10.065523147583008,0.05746084079146385,0.06224924325942993
1716734865747036000,6.293035888671875,9.739912033081055,0.035913024097681046,0.05746084079146385
1716734865757035800,6.303035888671875,9.579500198364258,0.031124621629714966,0.05027823522686958
1716734865767036000,6.313035888671875,9.8691987991333,0.023942016065120697,0.05746084079146385
1716734865777035800,6.323035888671875,9.991303443908691,0.031124621629714966,0.038307227194309235
1716734865787036000,6.333035888671875,9.732728958129883,0.014365210197865963,0.05506663769483566
1716734865797035800,6.343035888671875,9.636960983276367,0.009576806798577309,0.05746084079146385
1716734865807036000,6.353035888671875,9.842862129211426,0.028730420395731926,0.043095629662275314
1716734865817035800,6.363035888671875,9.969755172729492,0.043095629662275314,0.05985504388809204
1716734865827036000,6.373035888671875,9.794978141784668,0.031124621629714966,0.031124621629714966
1716734865837035800,6.383035888671875,9.663297653198242,0.038307227194309235,0.040701430290937424
1716734865847036000,6.393035888671875,9.806949615478516,0.033518824726343155,0.06224924325942993
1716734865857035800,6.403035888671875,9.931447982788086,0.0454898327589035,0.05746084079146385
1716734865867036000,6.413035888671875,9.826103210449219,0.019153613597154617,0.05985504388809204
1716734865877035800,6.423035888671875,9.663297653198242,0.011971008032560349,0.040701430290937424
1716734865887036000,6.433035888671875,9.790189743041992,0.026336219161748886,0.05746084079146385
1716734865897035800,6.443035888671875,9.917082786560059,0.038307227194309235,0.05746084079146385
1716734865907036000,6.453035888671875,9.845256805419922,0.038307227194309235,0.05985504388809204
1716734865917035800,6.463035888671875,9.687239646911621,0.028730420395731926,0.07661445438861847
1716734865927036000,6.473035888671875,9.749488830566406,0.05027823522686958,0.05746084079146385
1716734865937036000,6.4830361328125,9.876380920410156,0.035913024097681046,0.05027823522686958
1716734865947036000,6.493035888671875,9.85962200164795,0.033518824726343155,0.05267243832349777
1716734865957036000,6.5030361328125,9.715970039367676,0.028730420395731926,0.06224924325942993
1716734865967036000,6.513035888671875,9.756670951843262,0.028730420395731926,0.07182604819536209
1716734865977036000,6.5230361328125,9.888352394104004,0.035913024097681046,0.05985504388809204
1716734865987036000,6.533035888671875,9.854833602905273,0.040701430290937424,0.038307227194309235
1716734865997036000,6.5430361328125,9.751882553100586,0.035913024097681046,0.06464344263076782
1716734866007036000,6.553035888671875,9.751882553100586,0.043095629662275314,0.047884032130241394
1716734866017036000,6.5630361328125,9.842862129211426,0.033518824726343155,0.05506663769483566
1716734866027036000,6.573035888671875,9.857227325439453,0.043095629662275314,0.05506663769483566
1716734866037036000,6.5830361328125,9.763854026794434,0.028730420395731926,0.05985504388809204
1716734866047036000,6.593035888671875,9.766247749328613,0.019153613597154617,0.0454898327589035
1716734866057036000,6.6030361328125,9.840468406677246,0.05027823522686958,0.05746084079146385
1716734866067036000,6.613035888671875,9.842862129211426,0.028730420395731926,0.06224924325942993
1716734866077036000,6.6230361328125,9.790189743041992,0.031124621629714966,0.07182604819536209
1716734866087036000,6.633035888671875,9.749488830566406,0.040701430290937424,0.05985504388809204
1716734866097036000,6.6430361328125,9.806949615478516,0.023942016065120697,0.07182604819536209
1716734866107036000,6.653035888671875,9.840468406677246,0.023942016065120697,0.0454898327589035
1716734866117036000,6.6630361328125,9.778219223022461,0.028730420395731926,0.05985504388809204
1716734866127036000,6.673035888671875,9.756670951843262,0.028730420395731926,0.047884032130241394
1716734866137036000,6.6830361328125,9.814131736755371,0.035913024097681046,0.05746084079146385
1716734866147036000,6.693035888671875,9.83807373046875,0.040701430290937424,0.06703764945268631
1716734866157036000,6.7030361328125,9.792584419250488,0.035913024097681046,0.07661445438861847
1716734866167036000,6.713035888671875,9.761459350585938,0.031124621629714966,0.05985504388809204
1716734866177036000,6.7230361328125,9.811738014221191,0.023942016065120697,0.05985504388809204
1716734866187036000,6.733035888671875,9.828496932983398,0.028730420395731926,0.047884032130241394
1716734866197036000,6.7430361328125,9.806949615478516,0.021547814831137657,0.05506663769483566
1716734866207036000,6.753035888671875,9.78061294555664,0.028730420395731926,0.05985504388809204
1716734866217036000,6.7630361328125,9.80216121673584,0.038307227194309235,0.06703764945268631
1716734866227036000,6.773035888671875,9.818920135498047,0.043095629662275314,0.0454898327589035
1716734866237036000,6.7830361328125,9.809343338012695,0.031124621629714966,0.040701430290937424
1716734866247036000,6.793035888671875,9.783007621765137,0.040701430290937424,0.06703764945268631
1716734866257036000,6.8030361328125,9.80455493927002,0.023942016065120697,0.05506663769483566
1716734866267036000,6.813035888671875,9.809343338012695,0.038307227194309235,0.0694318488240242
1716734866277036000,6.8230361328125,9.799766540527344,0.035913024097681046,0.05267243832349777
1716734866287036000,6.833035888671875,9.76864242553711,0.031124621629714966,0.05985504388809204
1716734866297036000,6.8430361328125,9.80455493927002,0.043095629662275314,0.05506663769483566
1716734866307036000,6.853035888671875,9.821314811706543,0.038307227194309235,0.05985504388809204
1716734866317036000,6.8630361328125,9.80216121673584,0.05027823522686958,0.05506663769483566
1716734866327036000,6.873035888671875,9.790189743041992,0.033518824726343155,0.05267243832349777
1716734866337036000,6.8830361328125,9.787796020507812,0.035913024097681046,0.043095629662275314
1716734866347036000,6.893035888671875,9.806949615478516,0.028730420395731926,0.038307227194309235
1716734866357036000,6.9030361328125,9.794978141784668,0.043095629662275314,0.043095629662275314
1716734866367036000,6.913035888671875,9.785401344299316,0.035913024097681046,0.05746084079146385
1716734866377036000,6.9230361328125,9.799766540527344,0.05027823522686958,0.07182604819536209
1716734866387036000,6.933035888671875,9.811738014221191,0.040701430290937424,0.05027823522686958
1716734866397036000,6.9430361328125,9.80216121673584,0.026336219161748886,0.05746084079146385
1716734866407036000,6.953035888671875,9.783007621765137,0.026336219161748886,0.05267243832349777
1716734866417036000,6.9630361328125,9.792584419250488,0.028730420395731926,0.05985504388809204
1716734866427036000,6.973035888671875,9.80216121673584,0.021547814831137657,0.06464344263076782
1716734866437036000,6.9830361328125,9.792584419250488,0.031124621629714966,0.06703764945268631
1716734866447036000,6.993035888671875,9.785401344299316,0.05506663769483566,0.07661445438861847
1716734866457036000,7.0030361328125,9.790189743041992,0.0454898327589035,0.06464344263076782
1716734866467036000,7.013035888671875,9.80455493927002,0.040701430290937424,0.05746084079146385
1716734866477036000,7.0230361328125,9.811738014221191,0.023942016065120697,0.05746084079146385
1716734866487036000,7.033035888671875,9.783007621765137,0.038307227194309235,0.05506663769483566
1716734866497036000,7.0430361328125,9.80455493927002,0.016759412363171577,0.047884032130241394
1716734866507036000,7.053035888671875,9.799766540527344,0.031124621629714966,0.05506663769483566
1716734866517036000,7.0630361328125,9.80216121673584,0.040701430290937424,0.05746084079146385
1716734866527036000,7.073035888671875,9.792584419250488,0.028730420395731926,0.05027823522686958
1716734866537036000,7.0830361328125,9.787796020507812,0.026336219161748886,0.05985504388809204
1716734866547036000,7.093035888671875,9.80455493927002,0.033518824726343155,0.047884032130241394
1716734866557036000,7.1030361328125,9.80455493927002,0.026336219161748886,0.043095629662275314
1716734866567036000,7.113035888671875,9.783007621765137,0.040701430290937424,0.06224924325942993
1716734866577036000,7.1230361328125,9.792584419250488,0.021547814831137657,0.05506663769483566
1716734866587036000,7.133035888671875,9.80216121673584,0.033518824726343155,0.038307227194309235
1716734866597036000,7.1430361328125,9.799766540527344,0.040701430290937424,0.05506663769483566
1716734866607036000,7.153035888671875,9.806949615478516,0.023942016065120697,0.040701430290937424
1716734866617035800,7.163035888671875,9.797372817993164,0.038307227194309235,0.05267243832349777
1716734866627036000,7.173035888671875,9.811738014221191,0.047884032130241394,0.040701430290937424
1716734866637035800,7.183035888671875,9.799766540527344,0.033518824726343155,0.06464344263076782
1716734866647036000,7.193035888671875,9.809343338012695,0.016759412363171577,0.0454898327589035
1716734866657035800,7.203035888671875,9.74709415435791,0.021547814831137657,0.028730420395731926
1716734866667036000,7.213035888671875,9.943418502807617,0.035913024097681046,0.035913024097681046
1716734866677036000,7.2230361328125,9.809343338012695,0.004788403399288654,0.05985504388809204
1716734866687036000,7.233035888671875,9.766247749328613,0.043095629662275314,0.05027823522686958
1716734866697036000,7.2430361328125,9.711181640625,0.026336219161748886,0.0694318488240242
1716734866707036000,7.253035888671875,9.811738014221191,0.040701430290937424,0.06224924325942993
1716734866717036000,7.2630361328125,9.850045204162598,0.0454898327589035,0.05027823522686958
1716734866727036000,7.273035888671875,9.761459350585938,0.033518824726343155,0.07661445438861847
1716734866737036000,7.2830361328125,9.725546836853027,0.026336219161748886,0.06464344263076782
1716734866747036000,7.293035888671875,9.80216121673584,0.031124621629714966,0.033518824726343155
1716734866757036000,7.3030361328125,9.845256805419922,0.043095629662275314,0.05506663769483566
1716734866767036000,7.313035888671875,9.792584419250488,0.011971008032560349,0.05027823522686958
1716734866777036000,7.3230361328125,9.74470043182373,0.040701430290937424,0.05746084079146385
1716734866787036000,7.333035888671875,9.792584419250488,0.038307227194309235,0.0694318488240242
1716734866797036000,7.3430361328125,9.840468406677246,0.023942016065120697,0.05746084079146385
1716734866807036000,7.353035888671875,9.80216121673584,0.05027823522686958,0.0454898327589035
1716734866817036000,7.3630361328125,9.754277229309082,0.028730420395731926,0.06224924325942993
1716734866827036000,7.373035888671875,9.792584419250488,0.028730420395731926,0.08140286058187485
1716734866837036000,7.3830361328125,9.830891609191895,0.023942016065120697,0.043095629662275314
1716734866847036000,7.393035888671875,9.794978141784668,0.038307227194309235,0.05267243832349777
1716734866857036000,7.4030361328125,9.766247749328613,0.023942016065120697,0.05027823522686958
1716734866867036000,7.413035888671875,9.794978141784668,0.0071826050989329815,0.05985504388809204
1716734866877036000,7.4230361328125,9.818920135498047,0.035913024097681046,0.05506663769483566
1716734866887036000,7.433035888671875,9.821314811706543,0.033518824726343155,0.05985504388809204
1716734866897036000,7.4430361328125,9.771036148071289,0.028730420395731926,0.05506663769483566
1716734866907036000,7.453035888671875,9.797372817993164,0.047884032130241394,0.038307227194309235
1716734866917036000,7.4630361328125,9.83568000793457,0.028730420395731926,0.05027823522686958
1716734866927036000,7.473035888671875,9.833285331726074,0.035913024097681046,0.05506663769483566
1716734866937036000,7.4830361328125,9.775824546813965,0.038307227194309235,0.05267243832349777
1716734866947036000,7.493035888671875,9.78061294555664,0.047884032130241394,0.0454898327589035
1716734866957036000,7.5030361328125,9.794978141784668,0.028730420395731926,0.06224924325942993
1716734866967036000,7.513035888671875,9.80455493927002,0.040701430290937424,0.05746084079146385
1716734866977035800,7.523035888671875,9.783007621765137,0.031124621629714966,0.06224924325942993
1716734866987036000,7.533035888671875,9.785401344299316,0.0454898327589035,0.05746084079146385
1716734866997035800,7.543035888671875,9.823708534240723,0.031124621629714966,0.0694318488240242
1716734867007036000,7.553035888671875,9.809343338012695,0.014365210197865963,0.05506663769483566
1716734867017035800,7.563035888671875,9.785401344299316,0.028730420395731926,0.05746084079146385
1716734867027036000,7.573035888671875,9.78061294555664,0.033518824726343155,0.05267243832349777
1716734867037035800,7.583035888671875,9.818920135498047,0.040701430290937424,0.06703764945268631
1716734867047036000,7.593035888671875,9.821314811706543,0.05027823522686958,0.05027823522686958
1716734867057035800,7.603035888671875,9.799766540527344,0.023942016065120697,0.035913024097681046
1716734867067036000,7.613035888671875,9.785401344299316,0.047884032130241394,0.05985504388809204
1716734867077035800,7.623035888671875,9.80455493927002,0.031124621629714966,0.06464344263076782
1716734867087036000,7.633035888671875,9.814131736755371,0.031124621629714966,0.06224924325942993
1716734867097035800,7.643035888671875,9.797372817993164,0.033518824726343155,0.05746084079146385
1716734867107036000,7.653035888671875,9.794978141784668,0.026336219161748886,0.040701430290937424
1716734867117035800,7.663035888671875,9.799766540527344,0.023942016065120697,0.0454898327589035
1716734867127036000,7.673035888671875,9.80216121673584,0.038307227194309235,0.040701430290937424
1716734867137035800,7.683035888671875,9.80216121673584,0.035913024097681046,0.05267243832349777
1716734867147036000,7.693035888671875,9.794978141784668,0.038307227194309235,0.05985504388809204
1716734867157036000,7.7030361328125,9.809343338012695,0.05506663769483566,0.05027823522686958
1716734867167036000,7.713035888671875,9.806949615478516,0.023942016065120697,0.05027823522686958
1716734867177036000,7.7230361328125,9.799766540527344,0.019153613597154617,0.047884032130241394
1716734867187036000,7.733035888671875,9.794978141784668,0.05267243832349777,0.05027823522686958
1716734867197036000,7.7430361328125,9.794978141784668,0.035913024097681046,0.047884032130241394
1716734867207036000,7.753035888671875,9.799766540527344,0.038307227194309235,0.06464344263076782
1716734867217036000,7.7630361328125,9.806949615478516,0.035913024097681046,0.05506663769483566
1716734867227036000,7.773035888671875,9.787796020507812,0.026336219161748886,0.06464344263076782
1716734867237036000,7.7830361328125,9.790189743041992,0.040701430290937424,0.033518824726343155
1716734867247036000,7.793035888671875,9.794978141784668,0.038307227194309235,0.05985504388809204
1716734867257036000,7.8030361328125,9.792584419250488,0.031124621629714966,0.05985504388809204
1716734867267036000,7.813035888671875,9.787796020507812,0.038307227194309235,0.06224924325942993
1716734867277036000,7.8230361328125,9.797372817993164,0.06703764945268631,0.05985504388809204
1716734867287036000,7.833035888671875,9.809343338012695,0.031124621629714966,0.05985504388809204
1716734867297036000,7.8430361328125,9.797372817993164,0.035913024097681046,0.05267243832349777
1716734867307036000,7.853035888671875,9.797372817993164,0.019153613597154617,0.043095629662275314
1716734867317036000,7.8630361328125,9.799766540527344,0.028730420395731926,0.05267243832349777
1716734867327036000,7.873035888671875,9.811738014221191,0.028730420395731926,0.05027823522686958
1716734867337036000,7.8830361328125,9.797372817993164,0.038307227194309235,0.05746084079146385
1716734867347036000,7.893035888671875,9.799766540527344,0.033518824726343155,0.040701430290937424
1716734867357036000,7.9030361328125,9.797372817993164,0.028730420395731926,0.07422025501728058
1716734867367036000,7.913035888671875,9.806949615478516,0.043095629662275314,0.06224924325942993
1716734867377036000,7.9230361328125,9.799766540527344,0.026336219161748886,0.05985504388809204
1716734867387036000,7.933035888671875,9.797372817993164,0.033518824726343155,0.06224924325942993
1716734867397036000,7.9430361328125,9.80455493927002,0.023942016065120697,0.05506663769483566
1716734867407036000,7.953035888671875,9.797372817993164,0.021547814831137657,0.043095629662275314
1716734867417036000,7.9630361328125,9.799766540527344,0.05267243832349777,0.05027823522686958
1716734867427036000,7.973035888671875,9.775824546813965,0.033518824726343155,0.05985504388809204
1716734867437036000,7.9830361328125,9.80216121673584,0.026336219161748886,0.05985504388809204
1716734867447036000,7.993035888671875,9.80455493927002,0.033518824726343155,0.06464344263076782
1716734867457035800,8.003035888671874,9.80216121673584,0.038307227194309235,0.05267243832349777
1716734867467036000,8.013035888671874,9.790189743041992,0.023942016065120697,0.05506663769483566
1716734867477035800,8.023035888671876,9.80216121673584,0.028730420395731926,0.05746084079146385
1716734867487036000,8.033035888671876,9.799766540527344,0.028730420395731926,0.05506663769483566
1716734867497035800,8.043035888671875,9.806949615478516,0.023942016065120697,0.06464344263076782
1716734867507036000,8.053035888671875,9.78061294555664,0.043095629662275314,0.06224924325942993
1716734867517035800,8.063035888671875,9.797372817993164,0.021547814831137657,0.05027823522686958
1716734867527036000,8.073035888671875,9.794978141784668,0.023942016065120697,0.040701430290937424
1716734867537035800,8.083035888671875,9.799766540527344,0.026336219161748886,0.05506663769483566
1716734867547036000,8.093035888671874,9.797372817993164,0.023942016065120697,0.07661445438861847
1716734867557035800,8.103035888671876,9.790189743041992,0.035913024097681046,0.05027823522686958
1716734867567036000,8.113035888671876,9.792584419250488,0.019153613597154617,0.06464344263076782
1716734867577035800,8.123035888671875,9.809343338012695,0.023942016065120697,0.05267243832349777
1716734867587036000,8.133035888671875,9.787796020507812,0.035913024097681046,0.05027823522686958
1716734867597035800,8.143035888671875,9.792584419250488,0.040701430290937424,0.06464344263076782
1716734867607036000,8.153035888671875,9.773430824279785,0.05027823522686958,0.06703764945268631
1716734867617035800,8.163035888671875,9.888352394104004,0.0454898327589035,0.05267243832349777
1716734867627036000,8.173035888671874,10.043975830078125,0.026336219161748886,0.05746084079146385
1716734867637035800,8.183035888671874,9.8691987991333,0.021547814831137657,0.05027823522686958
1716734867647036000,8.193035888671876,9.706393241882324,0.038307227194309235,0.05506663769483566
1716734867657035800,8.203035888671875,9.854833602905273,0.028730420395731926,0.05985504388809204
1716734867667036000,8.213035888671875,9.907505989074707,0.038307227194309235,0.05267243832349777
1716734867677036000,8.2230361328125,9.830891609191895,0.047884032130241394,0.05985504388809204
1716734867687036000,8.233035888671875,9.775824546813965,0.05027823522686958,0.038307227194309235
1716734867697036000,8.2430361328125,9.771036148071289,0.040701430290937424,0.0694318488240242
1716734867707036000,8.253035888671874,9.864410400390625,0.040701430290937424,0.05267243832349777
1716734867717036000,8.2630361328125,9.845256805419922,0.021547814831137657,0.05746084079146385
1716734867727036000,8.273035888671876,9.775824546813965,0.014365210197865963,0.05267243832349777
1716734867737036000,8.2830361328125,9.792584419250488,0.038307227194309235,0.07182604819536209
1716734867747036000,8.293035888671875,9.864410400390625,0.028730420395731926,0.05746084079146385
1716734867757036000,8.3030361328125,9.811738014221191,0.040701430290937424,0.0454898327589035
1716734867767036000,8.313035888671875,9.751882553100586,0.047884032130241394,0.05746084079146385
1716734867777036000,8.3230361328125,9.783007621765137,0.031124621629714966,0.047884032130241394
1716734867787036000,8.333035888671875,9.83568000793457,0.033518824726343155,0.07182604819536209
1716734867797036000,8.3430361328125,9.826103210449219,0.038307227194309235,0.05746084079146385
1716734867807036000,8.353035888671876,9.763854026794434,0.033518824726343155,0.05027823522686958
1716734867817035800,8.363035888671876,9.778219223022461,0.033518824726343155,0.035913024097681046
1716734867827036000,8.373035888671875,9.828496932983398,0.047884032130241394,0.05985504388809204
1716734867837035800,8.383035888671875,9.826103210449219,0.0454898327589035,0.05027823522686958
1716734867847036000,8.393035888671875,9.766247749328613,0.043095629662275314,0.07182604819536209
1716734867857035800,8.403035888671875,9.76864242553711,0.047884032130241394,0.038307227194309235
1716734867867036000,8.413035888671875,9.821314811706543,0.05506663769483566,0.05027823522686958
1716734867877035800,8.423035888671874,9.823708534240723,0.028730420395731926,0.05985504388809204
1716734867887036000,8.433035888671874,9.799766540527344,0.026336219161748886,0.05267243832349777
1716734867897035800,8.443035888671876,9.775824546813965,0.028730420395731926,0.035913024097681046
1716734867907036000,8.453035888671875,9.80455493927002,0.043095629662275314,0.0454898327589035
1716734867917035800,8.463035888671875,9.816526412963867,0.035913024097681046,0.07182604819536209
1716734867927036000,8.473035888671875,9.783007621765137,0.043095629662275314,0.05027823522686958
1716734867937036000,8.4830361328125,9.785401344299316,0.031124621629714966,0.08140286058187485
1716734867947036000,8.493035888671875,9.80216121673584,0.043095629662275314,0.05506663769483566
1716734867957036000,8.5030361328125,9.821314811706543,0.023942016065120697,0.05506663769483566
1716734867967036000,8.513035888671874,9.80216121673584,0.05267243832349777,0.05267243832349777
1716734867977035800,8.523035888671876,9.790189743041992,0.035913024097681046,0.07661445438861847
1716734867987036000,8.533035888671876,9.806949615478516,0.035913024097681046,0.047884032130241394
1716734867997035800,8.543035888671875,9.830891609191895,0.031124621629714966,0.0454898327589035
1716734868007036000,8.553035888671875,9.799766540527344,0.05027823522686958,0.05027823522686958
1716734868017035800,8.563035888671875,9.775824546813965,0.038307227194309235,0.05267243832349777
1716734868027036000,8.573035888671875,9.806949615478516,0.028730420395731926,0.07900865375995636
1716734868037035800,8.583035888671875,9.806949615478516,0.023942016065120697,0.06224924325942993
1716734868047036000,8.593035888671874,9.80455493927002,0.028730420395731926,0.05985504388809204
1716734868057035800,8.603035888671876,9.783007621765137,0.026336219161748886,0.06224924325942993
1716734868067036000,8.613035888671876,9.806949615478516,0.05985504388809204,0.05027823522686958
1716734868077035800,8.623035888671875,9.794978141784668,0.021547814831137657,0.06224924325942993
1716734868087036000,8.633035888671875,9.792584419250488,0.035913024097681046,0.043095629662275314
1716734868097035800,8.643035888671875,9.794978141784668,0.038307227194309235,0.07182604819536209
1716734868107036000,8.653035888671875,9.785401344299316,0.043095629662275314,0.06703764945268631
1716734868117035800,8.663035888671875,9.80216121673584,0.035913024097681046,0.06464344263076782
1716734868127036000,8.673035888671874,9.809343338012695,0.043095629662275314,0.05027823522686958
1716734868137035800,8.683035888671874,9.792584419250488,0.028730420395731926,0.05506663769483566
1716734868147036000,8.693035888671876,9.799766540527344,0.033518824726343155,0.05746084079146385
1716734868157035800,8.703035888671875,9.816526412963867,0.028730420395731926,0.06224924325942993
1716734868167036000,8.713035888671875,9.80455493927002,0.028730420395731926,0.0694318488240242
1716734868177036000,8.7230361328125,9.794978141784668,0.021547814831137657,0.06224924325942993
1716734868187036000,8.733035888671875,9.797372817993164,0.043095629662275314,0.040701430290937424
1716734868197036000,8.7430361328125,9.799766540527344,0.033518824726343155,0.06224924325942993
1716734868207036000,8.753035888671874,9.80455493927002,0.026336219161748886,0.05746084079146385
1716734868217036000,8.7630361328125,9.792584419250488,0.043095629662275314,0.05506663769483566
1716734868227036000,8.773035888671876,9.792584419250488,0.033518824726343155,0.05746084079146385
1716734868237036000,8.7830361328125,9.811738014221191,0.05267243832349777,0.047884032130241394
1716734868247036000,8.793035888671875,9.806949615478516,0.038307227194309235,0.040701430290937424
1716734868257036000,8.8030361328125,9.785401344299316,0.033518824726343155,0.040701430290937424
1716734868267036000,8.813035888671875,9.794978141784668,0.031124621629714966,0.06224924325942993
1716734868277036000,8.8230361328125,9.80455493927002,0.035913024097681046,0.06224924325942993
1716734868287036000,8.833035888671875,9.797372817993164,0.035913024097681046,0.06703764945268631
1716734868297036000,8.8430361328125,9.787796020507812,0.038307227194309235,0.043095629662275314
1716734868307036000,8.853035888671876,9.790189743041992,0.023942016065120697,0.038307227194309235
1716734868317036000,8.8630361328125,9.80455493927002,0.033518824726343155,0.06464344263076782
1716734868327036000,8.873035888671875,9.797372817993164,0.028730420395731926,0.05506663769483566
1716734868337036000,8.8830361328125,9.787796020507812,0.033518824726343155,0.040701430290937424
1716734868347036000,8.893035888671875,9.794978141784668,0.033518824726343155,0.06224924325942993
1716734868357036000,8.9030361328125,9.790189743041992,0.021547814831137657,0.05985504388809204
1716734868367036000,8.913035888671875,9.814131736755371,0.023942016065120697,0.05027823522686958
1716734868377036000,8.9230361328125,9.794978141784668,0.035913024097681046,0.0454898327589035
1716734868387036000,8.933035888671874,9.799766540527344,0.009576806798577309,0.05985504388809204
1716734868397036000,8.9430361328125,9.806949615478516,0.021547814831137657,0.05506663769483566
1716734868407036000,8.953035888671875,9.797372817993164,0.0454898327589035,0.05985504388809204
1716734868417036000,8.9630361328125,9.792584419250488,0.031124621629714966,0.06464344263076782
1716734868427036000,8.973035888671875,9.783007621765137,0.031124621629714966,0.06224924325942993
1716734868437036000,8.9830361328125,9.809343338012695,0.023942016065120697,0.05746084079146385
1716734868447036000,8.993035888671875,9.80216121673584,0.026336219161748886,0.05746084079146385
1716734868457036000,9.0030361328125,9.790189743041992,0.040701430290937424,0.038307227194309235
1716734868467036000,9.013035888671874,9.783007621765137,0.047884032130241394,0.0454898327589035
1716734868477036000,9.0230361328125,9.80216121673584,0.043095629662275314,0.0454898327589035
1716734868487036000,9.033035888671876,9.799766540527344,0.031124621629714966,0.05985504388809204
1716734868497036000,9.0430361328125,9.794978141784668,0.0454898327589035,0.05746084079146385
1716734868507036000,9.053035888671875,9.80216121673584,0.0454898327589035,0.07661445438861847
1716734868517036000,9.0630361328125,9.790189743041992,0.016759412363171577,0.038307227194309235
1716734868527036000,9.073035888671875,9.799766540527344,0.019153613597154617,0.06703764945268631
1716734868537035800,9.083035888671875,9.809343338012695,0.038307227194309235,0.047884032130241394
1716734868547036000,9.093035888671874,9.799766540527344,0.0454898327589035,0.05027823522686958
1716734868557035800,9.103035888671876,9.809343338012695,0.026336219161748886,0.05985504388809204
1716734868567036000,9.113035888671876,9.790189743041992,0.026336219161748886,0.06464344263076782
1716734868577035800,9.123035888671875,9.794978141784668,0.038307227194309235,0.0694318488240242
1716734868587036000,9.133035888671875,9.797372817993164,0.033518824726343155,0.05985504388809204
1716734868597035800,9.143035888671875,9.80455493927002,0.035913024097681046,0.06224924325942993
1716734868607036000,9.153035888671875,9.80216121673584,0.038307227194309235,0.06703764945268631
1716734868617035800,9.163035888671875,9.787796020507812,0.033518824726343155,0.06224924325942993
1716734868627036000,9.173035888671874,9.787796020507812,0.019153613597154617,0.07661445438861847
1716734868637035800,9.183035888671874,9.794978141784668,0.05027823522686958,0.05746084079146385
1716734868647036000,9.193035888671876,9.799766540527344,0.031124621629714966,0.038307227194309235
1716734868657035800,9.203035888671875,9.792584419250488,0.033518824726343155,0.05027823522686958
1716734868667036000,9.213035888671875,9.809343338012695,0.028730420395731926,0.07422025501728058
1716734868677036000,9.2230361328125,9.490914344787598,0.06224924325942993,0.06464344263076782
1716734868687036000,9.233035888671875,9.993697166442871,0.05985504388809204,0.05267243832349777
1716734868697036000,9.2430361328125,9.751882553100586,0.016759412363171577,0.06464344263076782
1716734868707036000,9.253035888671874,9.749488830566406,0.021547814831137657,0.040701430290937424
1716734868717036000,9.2630361328125,9.6896333694458,0.026336219161748886,0.08379705995321274
1716734868727036000,9.273035888671876,9.873987197875977,0.028730420395731926,0.05985504388809204
1716734868737036000,9.2830361328125,9.840468406677246,0.047884032130241394,0.07422025501728058
1716734868747036000,9.293035888671875,9.74470043182373,0.038307227194309235,0.043095629662275314
1716734868757036000,9.3030361328125,9.725546836853027,0.038307227194309235,0.0454898327589035
1716734868767036000,9.313035888671875,9.823708534240723,0.026336219161748886,0.05267243832349777
1716734868777035800,9.323035888671875,9.83807373046875,0.043095629662275314,0.035913024097681046
1716734868787036000,9.333035888671875,9.785401344299316,0.040701430290937424,0.05027823522686958
1716734868797035800,9.343035888671874,9.739912033081055,0.016759412363171577,0.07182604819536209
1716734868807036000,9.353035888671876,9.799766540527344,0.028730420395731926,0.05985504388809204
1716734868817035800,9.363035888671876,9.830891609191895,0.035913024097681046,0.06224924325942993
1716734868827036000,9.373035888671875,9.787796020507812,0.023942016065120697,0.05027823522686958
1716734868837035800,9.383035888671875,9.754277229309082,0.033518824726343155,0.047884032130241394
1716734868847036000,9.393035888671875,9.806949615478516,0.05267243832349777,0.0454898327589035
1716734868857035800,9.403035888671875,9.83568000793457,0.033518824726343155,0.05267243832349777
1716734868867036000,9.413035888671875,9.792584419250488,0.043095629662275314,0.05267243832349777
1716734868877035800,9.423035888671874,9.749488830566406,0.016759412363171577,0.05746084079146385
1716734868887036000,9.433035888671874,9.799766540527344,0.023942016065120697,0.05985504388809204
1716734868897035800,9.443035888671876,9.833285331726074,0.033518824726343155,0.06464344263076782
1716734868907036000,9.453035888671875,9.783007621765137,0.035913024097681046,0.05985504388809204
1716734868917035800,9.463035888671875,9.766247749328613,0.05027823522686958,0.06703764945268631
1716734868927036000,9.473035888671875,9.806949615478516,0.038307227194309235,0.06703764945268631
1716734868937036000,9.4830361328125,9.816526412963867,0.028730420395731926,0.05985504388809204
1716734868947036000,9.493035888671875,9.790189743041992,0.019153613597154617,0.06464344263076782
1716734868957036000,9.5030361328125,9.763854026794434,0.028730420395731926,0.038307227194309235
1716734868967036000,9.513035888671874,9.794978141784668,0.023942016065120697,0.05027823522686958
1716734868977035800,9.523035888671876,9.830891609191895,0.028730420395731926,0.05027823522686958
1716734868987036000,9.533035888671876,9.80455493927002,0.031124621629714966,0.040701430290937424
1716734868997035800,9.543035888671875,9.773430824279785,0.035913024097681046,0.05746084079146385
1716734869007036000,9.553035888671875,9.787796020507812,0.043095629662275314,0.047884032130241394
1716734869017035800,9.563035888671875,9.818920135498047,0.0454898327589035,0.05506663769483566
1716734869027036000,9.573035888671875,9.806949615478516,0.038307227194309235,0.05027823522686958
1716734869037035800,9.583035888671875,9.787796020507812,0.026336219161748886,0.05027823522686958
1716734869047036000,9.593035888671874,9.775824546813965,0.028730420395731926,0.06703764945268631
1716734869057035800,9.603035888671876,9.809343338012695,0.033518824726343155,0.0454898327589035
1716734869067036000,9.613035888671876,9.806949615478516,0.021547814831137657,0.06224924325942993
1716734869077035800,9.623035888671875,9.785401344299316,0.028730420395731926,0.0454898327589035
1716734869087036000,9.633035888671875,9.792584419250488,0.026336219161748886,0.06224924325942993
1716734869097035800,9.643035888671875,9.797372817993164,0.031124621629714966,0.05746084079146385
1716734869107036000,9.653035888671875,9.809343338012695,0.023942016065120697,0.05267243832349777
1716734869117035800,9.663035888671875,9.785401344299316,0.026336219161748886,0.05267243832349777
1716734869127036000,9.673035888671874,9.785401344299316,0.016759412363171577,0.05506663769483566
1716734869137035800,9.683035888671874,9.80216121673584,0.023942016065120697,0.05267243832349777
1716734869147036000,9.693035888671876,9.806949615478516,0.035913024097681046,0.05267243832349777
1716734869157036000,9.7030361328125,9.790189743041992,0.038307227194309235,0.06464344263076782
1716734869167036000,9.713035888671875,9.792584419250488,0.05506663769483566,0.05985504388809204
1716734869177036000,9.7230361328125,9.797372817993164,0.0454898327589035,0.047884032130241394
1716734869187036000,9.733035888671875,9.806949615478516,0.031124621629714966,0.06224924325942993
1716734869197036000,9.7430361328125,9.799766540527344,0.023942016065120697,0.047884032130241394
1716734869207036000,9.753035888671874,9.787796020507812,0.031124621629714966,0.0694318488240242
1716734869217036000,9.7630361328125,9.794978141784668,0.047884032130241394,0.0694318488240242
1716734869227036000,9.773035888671876,9.797372817993164,0.035913024097681046,0.05746084079146385
1716734869237036000,9.7830361328125,9.80455493927002,0.035913024097681046,0.0694318488240242
1716734869247036000,9.793035888671875,9.778219223022461,0.035913024097681046,0.05027823522686958
1716734869257036000,9.8030361328125,9.799766540527344,0.038307227194309235,0.028730420395731926
1716734869267036000,9.813035888671875,9.806949615478516,0.043095629662275314,0.047884032130241394
1716734869277036000,9.8230361328125,9.792584419250488,0.0454898327589035,0.07422025501728058
1716734869287036000,9.833035888671875,9.783007621765137,0.028730420395731926,0.05746084079146385
1716734869297036000,9.8430361328125,9.797372817993164,0.033518824726343155,0.0454898327589035
1716734869307036000,9.853035888671876,9.799766540527344,0.033518824726343155,0.040701430290937424
1716734869317036000,9.8630361328125,9.799766540527344,0.035913024097681046,0.05506663769483566
1716734869327036000,9.873035888671875,9.787796020507812,0.035913024097681046,0.07661445438861847
1716734869337036000,9.8830361328125,9.80216121673584,0.035913024097681046,0.06224924325942993
1716734869347036000,9.893035888671875,9.790189743041992,0.035913024097681046,0.0454898327589035
1716734869357036000,9.9030361328125,9.792584419250488,0.019153613597154617,0.043095629662275314
1716734869367036000,9.913035888671875,9.790189743041992,0.038307227194309235,0.05027823522686958
1716734869377036000,9.9230361328125,9.797372817993164,0.033518824726343155,0.05985504388809204
1716734869387036000,9.933035888671874,9.809343338012695,0.040701430290937424,0.06224924325942993
1716734869397036000,9.9430361328125,9.794978141784668,0.047884032130241394,0.05985504388809204
1716734869407036000,9.953035888671875,9.794978141784668,0.028730420395731926,0.05746084079146385
1716734869417036000,9.9630361328125,9.799766540527344,0.038307227194309235,0.05985504388809204
1716734869427036000,9.973035888671875,9.792584419250488,0.016759412363171577,0.05027823522686958
1716734869437036000,9.9830361328125,9.787796020507812,0.038307227194309235,0.06224924325942993
1716734869447036000,9.993035888671875,9.787796020507812,0.035913024097681046,0.07661445438861847
1716734869457035800,10.003035888671874,9.790189743041992,0.038307227194309235,0.0694318488240242
1716734869467036000,10.013035888671874,9.787796020507812,0.021547814831137657,0.05746084079146385
1716734869477035800,10.023035888671876,9.790189743041992,0.026336219161748886,0.07182604819536209
1716734869487036000,10.033035888671876,9.806949615478516,0.0454898327589035,0.05746084079146385
1716734869497035800,10.043035888671875,9.80216121673584,0.031124621629714966,0.08140286058187485
1716734869507036000,10.053035888671875,9.792584419250488,0.033518824726343155,0.05985504388809204
1716734869517035800,10.063035888671875,9.799766540527344,0.040701430290937424,0.05267243832349777
1716734869527036000,10.073035888671875,9.80216121673584,0.035913024097681046,0.05985504388809204
1716734869537035800,10.083035888671875,9.806949615478516,0.028730420395731926,0.05267243832349777
1716734869547036000,10.093035888671874,9.814131736755371,0.023942016065120697,0.05027823522686958
1716734869557035800,10.103035888671876,9.794978141784668,0.033518824726343155,0.033518824726343155
1716734869567036000,10.113035888671876,9.797372817993164,0.033518824726343155,0.06703764945268631
1716734869577035800,10.123035888671875,9.799766540527344,0.040701430290937424,0.040701430290937424
1716734869587036000,10.133035888671875,9.80216121673584,0.021547814831137657,0.0694318488240242
1716734869597035800,10.143035888671875,9.799766540527344,0.021547814831137657,0.026336219161748886
1716734869607036000,10.153035888671875,9.799766540527344,0.038307227194309235,0.05027823522686958
1716734869617035800,10.163035888671875,9.78061294555664,0.035913024097681046,0.07182604819536209
1716734869627036000,10.173035888671874,9.790189743041992,0.033518824726343155,0.0694318488240242
1716734869637035800,10.183035888671874,9.80216121673584,0.026336219161748886,0.0694318488240242
1716734869647036000,10.193035888671876,9.799766540527344,0.035913024097681046,0.06224924325942993
1716734869657035800,10.203035888671875,9.80216121673584,0.031124621629714966,0.05506663769483566
1716734869667036000,10.213035888671875,9.790189743041992,0.014365210197865963,0.047884032130241394
1716734869677035800,10.223035888671875,9.799766540527344,0.011971008032560349,0.06224924325942993
1716734869687036000,10.233035888671875,9.797372817993164,0.028730420395731926,0.05267243832349777
1716734869697035800,10.243035888671875,9.799766540527344,0.035913024097681046,0.031124621629714966
1716734869707036000,10.253035888671874,9.792584419250488,0.031124621629714966,0.0454898327589035
1716734869717035800,10.263035888671874,9.792584419250488,0.035913024097681046,0.05746084079146385
1716734869727036000,10.273035888671876,9.797372817993164,0.05027823522686958,0.05985504388809204
1716734869737035800,10.283035888671876,9.80455493927002,0.038307227194309235,0.0694318488240242
1716734869747036000,10.293035888671875,9.797372817993164,0.047884032130241394,0.06464344263076782
1716734869757035800,10.303035888671875,9.80216121673584,0.031124621629714966,0.06703764945268631
1716734869767036000,10.313035888671875,9.785401344299316,0.031124621629714966,0.06224924325942993
1716734869777035800,10.323035888671875,9.814131736755371,0.028730420395731926,0.05267243832349777
1716734869787036000,10.333035888671875,9.794978141784668,0.031124621629714966,0.07422025501728058
1716734869797035800,10.343035888671874,9.794978141784668,0.016759412363171577,0.05506663769483566
1716734869807036000,10.353035888671876,9.787796020507812,0.033518824726343155,0.07422025501728058
1716734869817035800,10.363035888671876,9.790189743041992,0.035913024097681046,0.06464344263076782
1716734869827036000,10.373035888671875,9.792584419250488,0.033518824726343155,0.05267243832349777
1716734869837035800,10.383035888671875,9.840468406677246,0.043095629662275314,0.043095629662275314
1716734869847036000,10.393035888671875,10.012850761413574,0.043095629662275314,0.014365210197865963
1716734869857035800,10.403035888671875,9.885957717895508,0.023942016065120697,0.05027823522686958
1716734869867036000,10.413035888671875,9.811738014221191,0.023942016065120697,0.05267243832349777
1716734869877035800,10.423035888671874,9.794978141784668,0.023942016065120697,0.047884032130241394
1716734869887036000,10.433035888671874,9.873987197875977,0.0454898327589035,0.06703764945268631
1716734869897035800,10.443035888671876,9.866804122924805,0.021547814831137657,0.06224924325942993
1716734869907036000,10.453035888671875,9.80216121673584,0.031124621629714966,0.07182604819536209
1716734869917035800,10.463035888671875,9.749488830566406,0.047884032130241394,0.05985504388809204
1716734869927036000,10.473035888671875,9.826103210449219,0.047884032130241394,0.06464344263076782
1716734869937036000,10.4830361328125,9.821314811706543,0.026336219161748886,0.05027823522686958
1716734869947036000,10.493035888671875,9.76864242553711,0.019153613597154617,0.040701430290937424
1716734869957036000,10.5030361328125,9.751882553100586,0.026336219161748886,0.05506663769483566
1716734869967036000,10.513035888671874,9.816526412963867,0.021547814831137657,0.06464344263076782
1716734869977035800,10.523035888671876,9.826103210449219,0.026336219161748886,0.05746084079146385
1716734869987036000,10.533035888671876,9.78061294555664,0.038307227194309235,0.05985504388809204
1716734869997035800,10.543035888671875,9.74470043182373,0.047884032130241394,0.05746084079146385
1716734870007036000,10.553035888671875,9.809343338012695,0.043095629662275314,0.05267243832349777
1716734870017035800,10.563035888671875,9.826103210449219,0.047884032130241394,0.05985504388809204
1716734870027036000,10.573035888671875,9.778219223022461,0.043095629662275314,0.06703764945268631
1716734870037035800,10.583035888671875,9.76864242553711,0.031124621629714966,0.05746084079146385
1716734870047036000,10.593035888671874,9.816526412963867,0.014365210197865963,0.06464344263076782
1716734870057035800,10.603035888671876,9.821314811706543,0.038307227194309235,0.06224924325942993
1716734870067036000,10.613035888671876,9.80455493927002,0.033518824726343155,0.05267243832349777
1716734870077035800,10.623035888671875,9.76864242553711,0.038307227194309235,0.05506663769483566
1716734870087036000,10.633035888671875,9.787796020507812,0.05267243832349777,0.05746084079146385
1716734870097035800,10.643035888671875,9.826103210449219,0.033518824726343155,0.0454898327589035
1716734870107036000,10.653035888671875,9.797372817993164,0.028730420395731926,0.043095629662275314
1716734870117035800,10.663035888671875,9.771036148071289,0.019153613597154617,0.047884032130241394
1716734870127036000,10.673035888671874,9.794978141784668,0.028730420395731926,0.043095629662275314
1716734870137035800,10.683035888671874,9.816526412963867,0.038307227194309235,0.05746084079146385
1716734870147036000,10.693035888671876,9.809343338012695,0.047884032130241394,0.06703764945268631
1716734870157035800,10.703035888671875,9.792584419250488,0.043095629662275314,0.043095629662275314
1716734870167036000,10.713035888671875,9.783007621765137,0.0454898327589035,0.040701430290937424
1716734870177036000,10.7230361328125,9.811738014221191,0.035913024097681046,0.05985504388809204
1716734870187036000,10.733035888671875,9.799766540527344,0.038307227194309235,0.06703764945268631
1716734870197036000,10.7430361328125,9.80216121673584,0.021547814831137657,0.05746084079146385
1716734870207036000,10.753035888671874,9.790189743041992,0.028730420395731926,0.05985504388809204
1716734870217036000,10.7630361328125,9.814131736755371,0.05267243832349777,0.05027823522686958
1716734870227036000,10.773035888671876,9.785401344299316,0.035913024097681046,0.0454898327589035
1716734870237036000,10.7830361328125,9.778219223022461,0.031124621629714966,0.05267243832349777
1716734870247036000,10.793035888671875,9.799766540527344,0.035913024097681046,0.05506663769483566
1716734870257036000,10.8030361328125,9.809343338012695,0.023942016065120697,0.07182604819536209
1716734870267036000,10.813035888671875,9.80216121673584,0.033518824726343155,0.08140286058187485
1716734870277036000,10.8230361328125,9.790189743041992,0.031124621629714966,0.05506663769483566
1716734870287036000,10.833035888671875,9.778219223022461,0.014365210197865963,0.040701430290937424
1716734870297036000,10.8430361328125,9.806949615478516,0.031124621629714966,0.047884032130241394
1716734870307036000,10.853035888671876,9.799766540527344,0.031124621629714966,0.06224924325942993
1716734870317036000,10.8630361328125,9.785401344299316,0.033518824726343155,0.0454898327589035
1716734870327036000,10.873035888671875,9.80455493927002,0.031124621629714966,0.06224924325942993
1716734870337036000,10.8830361328125,9.816526412963867,0.021547814831137657,0.043095629662275314
1716734870347036000,10.893035888671875,9.787796020507812,0.033518824726343155,0.0454898327589035
1716734870357036000,10.9030361328125,9.787796020507812,0.014365210197865963,0.05985504388809204
1716734870367036000,10.913035888671875,9.806949615478516,0.031124621629714966,0.05267243832349777
1716734870377036000,10.9230361328125,9.80455493927002,0.035913024097681046,0.05985504388809204
1716734870387036000,10.933035888671874,9.80216121673584,0.035913024097681046,0.05746084079146385
1716734870397036000,10.9430361328125,9.797372817993164,0.033518824726343155,0.07422025501728058
1716734870407036000,10.953035888671875,9.80216121673584,0.028730420395731926,0.0454898327589035
1716734870417036000,10.9630361328125,9.797372817993164,0.038307227194309235,0.05985504388809204
1716734870427036000,10.973035888671875,9.809343338012695,0.023942016065120697,0.05267243832349777
1716734870437036000,10.9830361328125,9.794978141784668,0.019153613597154617,0.05985504388809204
1716734870447036000,10.993035888671875,9.778219223022461,0.026336219161748886,0.06703764945268631
1716734870457036000,11.0030361328125,9.797372817993164,0.028730420395731926,0.06464344263076782
1716734870467036000,11.013035888671874,9.787796020507812,0.0454898327589035,0.05746084079146385
1716734870477036000,11.0230361328125,9.806949615478516,0.0454898327589035,0.06464344263076782
1716734870487036000,11.033035888671876,9.799766540527344,0.040701430290937424,0.05027823522686958
1716734870497035800,11.043035888671875,9.799766540527344,0.021547814831137657,0.047884032130241394
1716734870507036000,11.053035888671875,9.80455493927002,0.0454898327589035,0.043095629662275314
1716734870517036000,11.0630361328125,9.790189743041992,0.033518824726343155,0.05506663769483566
1716734870527036000,11.073035888671875,9.794978141784668,0.026336219161748886,0.05267243832349777
1716734870537035800,11.083035888671875,9.783007621765137,0.035913024097681046,0.043095629662275314
1716734870547036000,11.093035888671874,9.797372817993164,0.05985504388809204,0.0454898327589035
1716734870557035800,11.103035888671876,9.790189743041992,0.038307227194309235,0.06224924325942993
1716734870567036000,11.113035888671876,9.787796020507812,0.026336219161748886,0.038307227194309235
1716734870577035800,11.123035888671875,9.794978141784668,0.031124621629714966,0.05506663769483566
1716734870587036000,11.133035888671875,9.80216121673584,0.023942016065120697,0.05985504388809204
1716734870597035800,11.143035888671875,9.80455493927002,0.033518824726343155,0.05267243832349777
1716734870607036000,11.153035888671875,9.792584419250488,0.028730420395731926,0.05267243832349777
1716734870617035800,11.163035888671875,9.785401344299316,0.028730420395731926,0.05506663769483566
1716734870627036000,11.173035888671874,9.806949615478516,0.043095629662275314,0.05746084079146385
1716734870637035800,11.183035888671874,9.785401344299316,0.019153613597154617,0.038307227194309235
1716734870647036000,11.193035888671876,9.809343338012695,0.031124621629714966,0.038307227194309235
1716734870657035800,11.203035888671875,9.794978141784668,0.033518824726343155,0.0694318488240242
1716734870667036000,11.213035888671875,9.792584419250488,0.028730420395731926,0.040701430290937424
1716734870677035800,11.223035888671875,9.797372817993164,0.047884032130241394,0.05267243832349777
1716734870687036000,11.233035888671875,9.787796020507812,0.040701430290937424,0.05267243832349777
1716734870697035800,11.243035888671875,9.787796020507812,0.040701430290937424,0.0694318488240242
1716734870707036000,11.253035888671874,9.787796020507812,0.033518824726343155,0.040701430290937424
1716734870717035800,11.263035888671874,9.783007621765137,0.033518824726343155,0.0454898327589035
1716734870727036000,11.273035888671876,9.794978141784668,0.035913024097681046,0.06703764945268631
1716734870737035800,11.283035888671876,9.797372817993164,0.038307227194309235,0.05985504388809204
1716734870747036000,11.293035888671875,9.799766540527344,0.023942016065120697,0.043095629662275314
1716734870757035800,11.303035888671875,9.809343338012695,0.043095629662275314,0.05746084079146385
1716734870767036000,11.313035888671875,9.80455493927002,0.028730420395731926,0.05985504388809204
1716734870777035800,11.323035888671875,9.790189743041992,0.043095629662275314,0.0454898327589035
1716734870787036000,11.333035888671875,9.787796020507812,0.026336219161748886,0.06703764945268631
1716734870797035800,11.343035888671874,9.792584419250488,0.038307227194309235,0.06464344263076782
1716734870807036000,11.353035888671876,9.794978141784668,0.035913024097681046,0.07182604819536209
1716734870817035800,11.363035888671876,9.806949615478516,0.0454898327589035,0.06703764945268631
1716734870827036000,11.373035888671875,9.794978141784668,0.035913024097681046,0.06224924325942993
1716734870837035800,11.383035888671875,9.80216121673584,0.043095629662275314,0.0454898327589035
1716734870847036000,11.393035888671875,9.792584419250488,0.023942016065120697,0.047884032130241394
1716734870857035800,11.403035888671875,9.790189743041992,0.026336219161748886,0.06224924325942993
1716734870867036000,11.413035888671875,9.790189743041992,0.047884032130241394,0.05746084079146385
1716734870877035800,11.423035888671874,9.792584419250488,0.028730420395731926,0.05746084079146385
1716734870887036000,11.433035888671874,9.787796020507812,0.05506663769483566,0.05267243832349777
1716734870897035800,11.443035888671876,9.806949615478516,0.021547814831137657,0.05506663769483566
1716734870907036000,11.453035888671875,9.809343338012695,0.026336219161748886,0.06224924325942993
1716734870917035800,11.463035888671875,9.816526412963867,0.040701430290937424,0.06703764945268631
1716734870927036000,11.473035888671875,9.792584419250488,0.038307227194309235,0.0454898327589035
1716734870937035800,11.483035888671875,9.794978141784668,0.0454898327589035,0.05506663769483566
1716734870947036000,11.493035888671875,9.799766540527344,0.040701430290937424,0.05985504388809204
1716734870957036000,11.5030361328125,9.792584419250488,0.028730420395731926,0.047884032130241394
1716734870967036000,11.513035888671874,9.790189743041992,0.038307227194309235,0.06703764945268631
1716734870977035800,11.523035888671876,9.799766540527344,0.019153613597154617,0.06464344263076782
1716734870987036000,11.533035888671876,9.809343338012695,0.035913024097681046,0.05027823522686958
1716734870997035800,11.543035888671875,9.818920135498047,0.016759412363171577,0.05985504388809204
1716734871007036000,11.553035888671875,9.78061294555664,0.033518824726343155,0.05506663769483566
1716734871017035800,11.563035888671875,9.323320388793945,0.05506663769483566,0.05985504388809204
1716734871027036000,11.573035888671875,9.725546836853027,0.05027823522686958,0.090979665517807
1716734871037035800,11.583035888671875,9.80455493927002,0.040701430290937424,0.06464344263076782
1716734871047036000,11.593035888671874,9.754277229309082,0.031124621629714966,0.05506663769483566
1716734871057035800,11.603035888671876,9.617807388305664,0.023942016065120697,0.05267243832349777
1716734871067036000,11.613035888671876,9.71357536315918,0.035913024097681046,0.090979665517807
1716734871077035800,11.623035888671875,9.814131736755371,0.040701430290937424,0.06224924325942993
1716734871087036000,11.633035888671875,9.823708534240723,0.0454898327589035,0.05985504388809204
1716734871097035800,11.643035888671875,9.718363761901855,0.019153613597154617,0.06703764945268631
1716734871107036000,11.653035888671875,9.790189743041992,0.021547814831137657,0.05506663769483566
1716734871117035800,11.663035888671875,9.842862129211426,0.047884032130241394,0.047884032130241394
1716734871127036000,11.673035888671874,9.80455493927002,0.023942016065120697,0.05746084079146385
1716734871137035800,11.683035888671874,9.74709415435791,0.023942016065120697,0.06464344263076782
1716734871147036000,11.693035888671876,9.783007621765137,0.038307227194309235,0.05027823522686958
1716734871157035800,11.703035888671875,9.850045204162598,0.033518824726343155,0.05985504388809204
1716734871167036000,11.713035888671875,9.809343338012695,0.035913024097681046,0.047884032130241394
1716734871177036000,11.7230361328125,9.742305755615234,0.038307227194309235,0.0694318488240242
1716734871187036000,11.733035888671875,9.773430824279785,0.035913024097681046,0.06464344263076782
1716734871197036000,11.7430361328125,9.842862129211426,0.028730420395731926,0.06703764945268631
1716734871207036000,11.753035888671874,9.811738014221191,0.028730420395731926,0.05746084079146385
1716734871217036000,11.7630361328125,9.754277229309082,0.016759412363171577,0.05746084079146385
1716734871227036000,11.773035888671876,9.775824546813965,0.038307227194309235,0.05746084079146385
1716734871237036000,11.7830361328125,9.828496932983398,0.033518824726343155,0.06703764945268631
1716734871247036000,11.793035888671875,9.83568000793457,0.026336219161748886,0.0694318488240242
1716734871257035800,11.803035888671875,9.766247749328613,0.033518824726343155,0.07182604819536209
1716734871267036000,11.813035888671875,9.766247749328613,0.047884032130241394,0.05027823522686958
1716734871277035800,11.823035888671875,9.830891609191895,0.038307227194309235,0.047884032130241394
1716734871287036000,11.833035888671875,9.826103210449219,0.026336219161748886,0.033518824726343155
1716734871297035800,11.843035888671874,9.775824546813965,0.023942016065120697,0.05985504388809204
1716734871307036000,11.853035888671876,9.778219223022461,0.033518824726343155,0.05267243832349777
1716734871317036000,11.8630361328125,9.811738014221191,0.05985504388809204,0.038307227194309235
1716734871327036000,11.873035888671875,9.826103210449219,0.0454898327589035,0.05746084079146385
1716734871337036000,11.8830361328125,9.783007621765137,0.0454898327589035,0.0694318488240242
1716734871347036000,11.893035888671875,9.775824546813965,0.023942016065120697,0.05506663769483566
1716734871357036000,11.9030361328125,9.818920135498047,0.0454898327589035,0.05267243832349777
1716734871367036000,11.913035888671875,9.821314811706543,0.021547814831137657,0.05027823522686958
1716734871377036000,11.9230361328125,9.778219223022461,0.033518824726343155,0.05985504388809204
1716734871387036000,11.933035888671874,9.76864242553711,0.035913024097681046,0.07182604819536209
1716734871397036000,11.9430361328125,9.797372817993164,0.043095629662275314,0.047884032130241394
1716734871407036000,11.953035888671875,9.806949615478516,0.033518824726343155,0.05267243832349777
1716734871417036000,11.9630361328125,9.787796020507812,0.026336219161748886,0.038307227194309235
1716734871427036000,11.973035888671875,9.76864242553711,0.043095629662275314,0.035913024097681046
1716734871437036000,11.9830361328125,9.80455493927002,0.035913024097681046,0.05985504388809204
1716734871447036000,11.993035888671875,9.80455493927002,0.038307227194309235,0.047884032130241394
1716734871457036000,12.0030361328125,9.790189743041992,0.033518824726343155,0.06703764945268631
1716734871467036000,12.013035888671874,9.771036148071289,0.016759412363171577,0.05267243832349777
1716734871477036000,12.0230361328125,9.80455493927002,0.033518824726343155,0.047884032130241394
1716734871487036000,12.033035888671876,9.80455493927002,0.023942016065120697,0.05746084079146385
1716734871497035800,12.043035888671875,9.790189743041992,0.023942016065120697,0.047884032130241394
1716734871507036000,12.053035888671875,9.785401344299316,0.05506663769483566,0.05985504388809204
1716734871517035800,12.063035888671875,9.775824546813965,0.043095629662275314,0.05027823522686958
1716734871527036000,12.073035888671875,9.799766540527344,0.035913024097681046,0.05746084079146385
1716734871537035800,12.083035888671875,9.794978141784668,0.026336219161748886,0.05267243832349777
1716734871547036000,12.093035888671874,9.778219223022461,0.031124621629714966,0.05027823522686958
1716734871557035800,12.103035888671876,9.792584419250488,0.035913024097681046,0.07182604819536209
1716734871567036000,12.113035888671876,9.814131736755371,0.033518824726343155,0.07182604819536209
1716734871577035800,12.123035888671875,9.792584419250488,0.038307227194309235,0.06224924325942993
1716734871587036000,12.133035888671875,9.778219223022461,0.033518824726343155,0.0454898327589035
1716734871597035800,12.143035888671875,9.792584419250488,0.033518824726343155,0.043095629662275314
1716734871607036000,12.153035888671875,9.799766540527344,0.026336219161748886,0.05267243832349777
1716734871617035800,12.163035888671875,9.80216121673584,0.021547814831137657,0.07182604819536209
1716734871627036000,12.173035888671874,9.785401344299316,0.05027823522686958,0.05027823522686958
1716734871637035800,12.183035888671874,9.790189743041992,0.035913024097681046,0.06224924325942993
1716734871647036000,12.193035888671876,9.814131736755371,0.035913024097681046,0.06464344263076782
1716734871657035800,12.203035888671875,9.806949615478516,0.035913024097681046,0.040701430290937424
1716734871667035400,12.213035400390625,9.790189743041992,0.038307227194309235,0.05985504388809204
1716734871677035500,12.223035400390625,9.790189743041992,0.040701430290937424,0.05267243832349777
1716734871687035600,12.23303564453125,9.799766540527344,0.033518824726343155,0.06703764945268631
1716734871697035500,12.243035400390625,9.80216121673584,0.033518824726343155,0.05746084079146385
1716734871707035600,12.25303564453125,9.783007621765137,0.033518824726343155,0.06464344263076782
1716734871717035500,12.263035400390624,9.794978141784668,0.031124621629714966,0.06703764945268631
1716734871727035400,12.273035400390626,9.811738014221191,0.021547814831137657,0.040701430290937424
1716734871737035500,12.283035400390625,9.783007621765137,0.026336219161748886,0.05985504388809204
1716734871747035400,12.293035400390625,9.792584419250488,0.040701430290937424,0.05985504388809204
1716734871757035500,12.303035400390625,9.783007621765137,0.047884032130241394,0.06464344263076782
1716734871767035400,12.313035400390625,9.78061294555664,0.026336219161748886,0.05746084079146385
1716734871777035500,12.323035400390625,9.792584419250488,0.026336219161748886,0.06464344263076782
1716734871787035400,12.333035400390624,9.797372817993164,0.035913024097681046,0.05746084079146385
1716734871797035500,12.343035400390624,9.783007621765137,0.05746084079146385,0.047884032130241394
1716734871807035400,12.353035400390626,9.80455493927002,0.031124621629714966,0.05506663769483566
1716734871817035500,12.363035400390626,9.797372817993164,0.040701430290937424,0.0454898327589035
1716734871827035400,12.373035400390625,9.792584419250488,0.033518824726343155,0.05027823522686958
1716734871837035500,12.383035400390625,9.790189743041992,0.028730420395731926,0.07422025501728058
1716734871847035400,12.393035400390625,9.787796020507812,0.05027823522686958,0.06464344263076782
1716734871857035500,12.403035400390625,9.797372817993164,0.033518824726343155,0.05985504388809204
1716734871867035400,12.413035400390624,9.787796020507812,0.026336219161748886,0.047884032130241394
1716734871877035500,12.423035400390624,9.792584419250488,0.0454898327589035,0.0454898327589035
1716734871887035400,12.433035400390626,9.80216121673584,0.035913024097681046,0.035913024097681046
1716734871897035500,12.443035400390626,9.797372817993164,0.05267243832349777,0.0694318488240242
1716734871907035400,12.453035400390625,9.80455493927002,0.031124621629714966,0.05985504388809204
1716734871917035500,12.463035400390625,9.794978141784668,0.014365210197865963,0.047884032130241394
1716734871927035600,12.47303564453125,9.792584419250488,0.035913024097681046,0.0694318488240242
1716734871937035500,12.483035400390625,9.794978141784668,0.028730420395731926,0.05267243832349777
1716734871947035600,12.49303564453125,9.787796020507812,0.031124621629714966,0.05027823522686958
1716734871957035500,12.503035400390624,9.78061294555664,0.038307227194309235,0.043095629662275314
1716734871967036000,12.513035888671874,9.778219223022461,0.033518824726343155,0.07182604819536209
1716734871977035800,12.523035888671876,9.794978141784668,0.05027823522686958,0.038307227194309235
1716734871987036000,12.533035888671876,9.787796020507812,0.040701430290937424,0.035913024097681046
1716734871997035800,12.543035888671875,9.797372817993164,0.023942016065120697,0.040701430290937424
1716734872007036000,12.553035888671875,9.797372817993164,0.040701430290937424,0.06703764945268631
1716734872017035800,12.563035888671875,9.787796020507812,0.033518824726343155,0.040701430290937424
1716734872027036000,12.573035888671875,9.785401344299316,0.026336219161748886,0.05267243832349777
1716734872037035800,12.583035888671875,9.787796020507812,0.031124621629714966,0.06464344263076782
1716734872047036000,12.593035888671874,9.792584419250488,0.033518824726343155,0.05267243832349777
1716734872057035800,12.603035888671876,9.778219223022461,0.028730420395731926,0.0454898327589035
1716734872067036000,12.613035888671876,9.80216121673584,0.05985504388809204,0.06224924325942993
1716734872077035800,12.623035888671875,9.797372817993164,0.0454898327589035,0.06464344263076782
1716734872087036000,12.633035888671875,9.799766540527344,0.031124621629714966,0.05267243832349777
1716734872097035800,12.643035888671875,9.787796020507812,0.031124621629714966,0.05267243832349777
1716734872107036000,12.653035888671875,9.806949615478516,0.043095629662275314,0.05985504388809204
1716734872117035800,12.663035888671875,9.792584419250488,0.028730420395731926,0.05027823522686958
1716734872127036000,12.673035888671874,9.799766540527344,0.05027823522686958,0.06703764945268631
1716734872137035800,12.683035888671874,9.794978141784668,0.038307227194309235,0.06224924325942993
1716734872147036000,12.693035888671876,9.797372817993164,0.038307227194309235,0.047884032130241394
1716734872157035800,12.703035888671875,9.785401344299316,0.028730420395731926,0.05267243832349777
1716734872167036000,12.713035888671875,9.80216121673584,0.033518824726343155,0.040701430290937424
1716734872177036000,12.7230361328125,10.144532203674316,0.031124621629714966,-0.002394201699644327
1716734872187036000,12.733035888671875,10.012850761413574,0.040701430290937424,0.043095629662275314
1716734872197036000,12.7430361328125,9.89314079284668,0.009576806798577309,0.05027823522686958
1716734872207036000,12.753035888671874,9.754277229309082,0.016759412363171577,0.07182604819536209
1716734872217036000,12.7630361328125,9.732728958129883,0.031124621629714966,0.05746084079146385
1716734872227036000,12.773035888671876,9.878775596618652,0.040701430290937424,0.06224924325942993
1716734872237035800,12.783035888671876,9.864410400390625,0.040701430290937424,0.05506663769483566
1716734872247036000,12.793035888671875,9.739912033081055,0.038307227194309235,0.0454898327589035
1716734872257035800,12.803035888671875,9.699210166931152,0.0454898327589035,0.05506663769483566
1716734872267036000,12.813035888671875,9.806949615478516,0.026336219161748886,0.06703764945268631
1716734872277035800,12.823035888671875,9.85962200164795,0.031124621629714966,0.05267243832349777
1716734872287036000,12.833035888671875,9.771036148071289,0.033518824726343155,0.05267243832349777
1716734872297035800,12.843035888671874,9.718363761901855,0.038307227194309235,0.05267243832349777
1716734872307036000,12.853035888671876,9.799766540527344,0.031124621629714966,0.06703764945268631
1716734872317035800,12.863035888671876,9.857227325439453,0.028730420395731926,0.05746084079146385
1716734872327036000,12.873035888671875,9.775824546813965,0.033518824726343155,0.06703764945268631
1716734872337035800,12.883035888671875,9.737517356872559,0.026336219161748886,0.047884032130241394
1716734872347036000,12.893035888671875,9.794978141784668,0.031124621629714966,0.05506663769483566
1716734872357035800,12.903035888671875,9.828496932983398,0.043095629662275314,0.05267243832349777
1716734872367036000,12.913035888671875,9.790189743041992,0.040701430290937424,0.033518824726343155
1716734872377035800,12.923035888671874,9.742305755615234,0.026336219161748886,0.05985504388809204
1716734872387036000,12.933035888671874,9.783007621765137,0.026336219161748886,0.05985504388809204
