time,seconds_elapsed,z,y,x
1716737723893404000,0.13740380859375,-0.08800506591796875,0.009325917810201645,0.012701496481895447
1716737723903403800,0.14740380859375,-0.08800411224365234,0.009360190480947495,0.012674015015363693
1716737723913404000,0.15740380859375,-0.08800506591796875,0.009449157863855362,0.01271505281329155
1716737723923403800,0.16740380859375,-0.08800506591796875,0.009487371891736984,0.012706853449344635
1716737723933404000,0.17740380859375,-0.08800506591796875,0.009453065693378448,0.012734435498714447
1716737723943403800,0.18740380859375,-0.08800506591796875,0.009598195552825928,0.012662898749113083
1716737723953404000,0.19740380859375,-0.08800506591796875,0.009506382048130035,0.012702889740467072
1716737723963403800,0.20740380859375,-0.08800506591796875,0.009483199566602707,0.012687787413597107
1716737723973404000,0.21740380859375,-0.08800506591796875,0.009579088538885117,0.01266700029373169
1716737723983403800,0.22740380859375,-0.08800506591796875,0.00959797203540802,0.012663103640079498
1716737723993404000,0.23740380859375,-0.08800506591796875,0.009574368596076965,0.012648310512304306
1716737724003403800,0.24740380859375,-0.08800506591796875,0.009605858474969864,0.012701824307441711
1716737724013404000,0.25740380859375,-0.08800983428955078,0.009489420801401138,0.013649825006723404
1716737724023403800,0.26740380859375,-0.08801460266113281,0.009272873401641846,0.01459956169128418
1716737724033404000,0.27740380859375,-0.08801841735839844,0.009005378931760788,0.015500172972679138
1716737724043403800,0.28740380859375,-0.08802127838134766,0.00874495878815651,0.016338791698217392
1716737724053404000,0.29740380859375,-0.08802413940429688,0.008622512221336365,0.016886867582798004
1716737724063403800,0.30740380859375,-0.08802604675292969,0.008368398994207382,0.017383206635713577
1716737724073404000,0.31740380859375,-0.08802413940429688,0.008271235972642899,0.01730368658900261
1716737724083403800,0.32740380859375,-0.08802413940429688,0.008198708295822144,0.017339304089546204
1716737724093404000,0.33740380859375,-0.08802413940429688,0.008232835680246353,0.01731199398636818
1716737724103404000,0.347404052734375,-0.08802604675292969,0.008108872920274734,0.017760075628757477
1716737724113404000,0.35740380859375,-0.0880279541015625,0.007997281849384308,0.018265604972839355
1716737724123404000,0.367404052734375,-0.0880270004272461,0.007905479520559311,0.018305599689483643
1716737724133404000,0.37740380859375,-0.08802604675292969,0.007708195596933365,0.018227659165859222
1716737724143404000,0.387404052734375,-0.0880270004272461,0.007465064525604248,0.01868138462305069
1716737724153404000,0.39740380859375,-0.08802604675292969,0.00730610266327858,0.018595267087221146
1716737724163404000,0.407404052734375,-0.0880279541015625,0.007156345993280411,0.019108954817056656
1716737724173404000,0.41740380859375,-0.0880279541015625,0.007071580737829208,0.019086945801973343
1716737724183404000,0.427404052734375,-0.0880289077758789,0.007092144340276718,0.019182883203029633
1716737724193404000,0.43740380859375,-0.08803176879882812,0.007184717804193497,0.019704625010490417
1716737724203404000,0.447404052734375,-0.08803176879882812,0.007219046354293823,0.01967710629105568
1716737724213404000,0.45740380859375,-0.08803272247314453,0.00742737203836441,0.019712388515472412
1716737724223404000,0.467404052734375,-0.08803462982177734,0.0076479315757751465,0.01980530470609665
1716737724233404000,0.47740380859375,-0.08803558349609375,0.007905185222625732,0.019790124148130417
1716737724243404000,0.487404052734375,-0.08803749084472656,0.008194155991077423,0.01982814073562622
1716737724253404000,0.49740380859375,-0.08803844451904297,0.008458167314529419,0.019751306623220444
1716737724263404000,0.507404052734375,-0.08803939819335938,0.008730776607990265,0.019712526351213455
1716737724273404000,0.51740380859375,-0.02100372314453125,0.001818198710680008,0.002995125949382782
1716737724283404000,0.527404052734375,-0.021005630493164062,-0.00012506172060966492,0.00543232262134552
1716737724293404000,0.53740380859375,-0.023400306701660156,-0.002527080476284027,0.010463163256645203
1716737724303404000,0.547404052734375,-0.018613815307617188,-0.004587341099977493,0.015219822525978088
1716737724313404000,0.55740380859375,-0.018616676330566406,-0.004010789096355438,0.017589997500181198
1716737724323404000,0.567404052734375,-0.02100849151611328,-0.0036760717630386353,0.02160375937819481
1716737724333404000,0.57740380859375,-0.023400306701660156,-0.0033798404037952423,0.013654954731464386
1716737724343404000,0.587404052734375,-0.023398399353027344,-0.0006673336029052734,0.013084683567285538
1716737724353404000,0.59740380859375,-0.025789260864257812,0.004310004413127899,0.007312603294849396
1716737724363404000,0.607404052734375,-0.025786399841308594,0.004543285816907883,0.004326365888118744
1716737724373404000,0.61740380859375,-0.020995140075683594,0.0046433210372924805,0.001188427209854126
1716737724383404000,0.627404052734375,-0.02577972412109375,0.004668522626161575,-0.006621640175580978
1716737724393404000,0.63740380859375,-0.02817058563232422,0.006758168339729309,-0.014099601656198502
1716737724403404000,0.647404052734375,-0.025775909423828125,0.00917832925915718,-0.01895388960838318
1716737724413404000,0.65740380859375,-0.023382186889648438,0.008880160748958588,-0.023356813937425613
1716737724423404000,0.667404052734375,-0.023385047912597656,0.008559048175811768,-0.022705618292093277
1716737724433404000,0.67740380859375,-0.02817535400390625,0.010648876428604126,-0.021977826952934265
1716737724443404000,0.687404052734375,-0.028179168701171875,0.010161269456148148,-0.01849520206451416
1716737724453404000,0.69740380859375,-0.023392677307128906,0.007239785045385361,-0.015104413032531738
1716737724463404000,0.707404052734375,-0.023395538330078125,0.002042870968580246,-0.012000087648630142
1716737724473404000,0.71740380859375,-0.03058147430419922,-0.0007404498755931854,-0.0038305632770061493
1716737724483404000,0.727404052734375,-0.028188705444335938,-0.0034200288355350494,-0.0031068064272403717
1716737724493404000,0.73740380859375,-0.021007537841796875,-0.006034184247255325,0.0021505318582057953
1716737724503404000,0.747404052734375,-0.01861286163330078,-0.008377742022275925,0.006988253444433212
1716737724513404000,0.75740380859375,-0.02340221405029297,-0.005956042557954788,0.004628226161003113
1716737724523404000,0.767404052734375,-0.02100849151611328,-0.005921948701143265,0.006995055824518204
1716737724533404000,0.77740380859375,-0.018613815307617188,-0.008346159011125565,0.004647437483072281
1716737724543404000,0.787404052734375,-0.01622295379638672,-0.007800959050655365,0.009358268231153488
1716737724553404000,0.79740380859375,-0.0210113525390625,-0.002978462725877762,0.006936691701412201
1716737724563404000,0.807404052734375,-0.023405075073242188,-0.0005458630621433258,0.004534181207418442
1716737724573404000,0.81740380859375,-0.021010398864746094,-0.0005664899945259094,-0.00035011768341064453
1716737724583404000,0.827404052734375,-0.016221046447753906,-0.0003217160701751709,-0.0007040202617645264
1716737724593404000,0.83740380859375,-0.018616676330566406,0.0025404058396816254,-0.003439847379922867
1716737724603404000,0.847404052734375,-0.021010398864746094,0.00010378286242485046,-0.005844984203577042
1716737724613404000,0.85740380859375,-0.018614768981933594,0.000025466084480285645,-0.005928359925746918
1716737724623404000,0.867404052734375,-0.018614768981933594,-0.0022729896008968353,-0.0059489719569683075
1716737724633404000,0.87740380859375,-0.01861572265625,-0.002245623618364334,-0.003520432859659195
1716737724643404000,0.887404052734375,-0.021010398864746094,-0.006944674998521805,-0.0034797005355358124
1716737724653404000,0.89740380859375,-0.018616676330566406,-0.006897997111082077,-0.003449670970439911
1716737724663404000,0.907404052734375,-0.021015167236328125,-0.008860521018505096,-0.0007271468639373779
1716737724673404000,0.91740380859375,-0.023408889770507812,-0.011284563690423965,0.004107732325792313
1716737724683404000,0.927404052734375,-0.023408889770507812,-0.008856575936079025,0.006474833935499191
1716737724693404000,0.93740380859375,-0.021015167236328125,-0.011274032294750214,0.008853964507579803
1716737724703404000,0.947404052734375,-0.018622398376464844,-0.010841410607099533,0.008720505982637405
1716737724713404000,0.95740380859375,-0.021017074584960938,-0.012827694416046143,0.006077732890844345
1716737724723404000,0.967404052734375,-0.02101898193359375,-0.00986410677433014,0.00822872668504715
1716737724733404000,0.97740380859375,-0.021019935607910156,-0.006686907261610031,0.005465000867843628
1716737724743404000,0.987404052734375,-0.02102184295654297,-0.006061520427465439,0.002715177834033966
1716737724753404000,0.99740380859375,-0.023415565490722656,-0.0031909868121147156,0.000017512589693069458
1716737724763404000,1.007404052734375,-0.023415565490722656,-0.0007585585117340088,0.000009305775165557861
1716737724773404000,1.01740380859375,-0.021022796630859375,0.0020368583500385284,0.0022165700793266296
1716737724783404000,1.027404052734375,-0.018627166748046875,0.0019519515335559845,-0.002593662589788437
1716737724793404000,1.03740380859375,-0.021022796630859375,0.0019792839884757996,-0.0025593899190425873
1716737724803404000,1.047404052734375,-0.021022796630859375,-0.00042593851685523987,-0.002516854554414749
1716737724813404000,1.05740380859375,-0.018630027770996094,0.004803616553544998,-0.00021798908710479736
1716737724823404000,1.067404052734375,-0.018630027770996094,0.0025055184960365295,-0.00023880228400230408
1716737724833404000,1.07740380859375,-0.018630027770996094,0.00487649068236351,0.004534445703029633
1716737724843404000,1.087404052734375,-0.021020889282226562,0.002019990235567093,0.0042531415820121765
1716737724853404000,1.09740380859375,-0.018625259399414062,-0.0004660263657569885,0.00429312139749527
1716737724863404000,1.107404052734375,-0.018627166748046875,-0.00043869391083717346,0.004327394068241119
1716737724873404000,1.11740380859375,-0.01862335205078125,-0.005360540002584457,0.006288886070251465
1716737724883404000,1.127404052734375,-0.018622398376464844,-0.005239356309175491,0.0059217773377895355
1716737724893404000,1.13740380859375,-0.021015167236328125,-0.0074588842689991,0.005523018538951874
1716737724903404000,1.147404052734375,-0.02101421356201172,-0.007213987410068512,0.0051690638065338135
1716737724913404000,1.15740380859375,-0.023407936096191406,-0.0048539601266384125,0.0028022155165672302
1716737724923404000,1.167404052734375,-0.023407936096191406,-0.006864864379167557,0.00004424154758453369
1716737724933403600,1.177403564453125,-0.02101421356201172,-0.004507426172494888,-0.0022417232394218445
1716737724943403500,1.187403564453125,-0.02101421356201172,-0.006929013878107071,-0.007064361125230789
1716737724953403600,1.197403564453125,-0.021015167236328125,-0.004496406763792038,-0.00946686789393425
1716737724963403500,1.207403564453125,-0.018619537353515625,-0.004585478454828262,-0.011902131140232086
1716737724973403600,1.217403564453125,-0.018622398376464844,-0.001802053302526474,-0.011584673076868057
1716737724983403500,1.227403564453125,-0.016228675842285156,-0.0018938034772872925,-0.011544723063707352
1716737724993403600,1.237403564453125,-0.013836860656738281,-0.0015878789126873016,-0.011149220168590546
1716737725003403500,1.247403564453125,-0.0162353515625,-0.0014202632009983063,-0.008349664509296417
1716737725013403600,1.257403564453125,-0.016234397888183594,-0.003899224102497101,-0.0059774406254291534
1716737725023403500,1.267403564453125,-0.018631935119628906,-0.003736734390258789,-0.005410648882389069
1716737725033403600,1.277403564453125,-0.0186309814453125,-0.006209228187799454,-0.0007055699825286865
1716737725043404800,1.28740478515625,-0.021025657653808594,-0.0063010044395923615,0.006516922265291214
1716737725053405000,1.297405029296875,-0.021028518676757812,-0.005943357944488525,0.006780996918678284
1716737725063404800,1.30740478515625,-0.02103137969970703,-0.007835999131202698,0.009267590939998627
1716737725073405000,1.317405029296875,-0.02103137969970703,-0.0030091963708400726,0.0068650878965854645
1716737725083404800,1.32740478515625,-0.018636703491210938,-0.002994135022163391,0.004447482526302338
1716737725093405000,1.337405029296875,-0.018637657165527344,-0.0025395452976226807,0.004228964447975159
1716737725103404800,1.34740478515625,-0.018637657165527344,-0.004963930696249008,0.004275638610124588
1716737725113405000,1.357405029296875,-0.018637657165527344,-0.002535611391067505,0.0018541142344474792
1716737725123404800,1.36740478515625,-0.01624298095703125,-0.000226486474275589,-0.0029560327529907227
1716737725133405000,1.377405029296875,-0.016243934631347656,-0.0020870231091976166,-0.008060209453105927
1716737725143404800,1.38740478515625,-0.016243934631347656,0.0003412999212741852,-0.01048174500465393
1716737725153405000,1.397405029296875,-0.016246795654296875,0.0006112456321716309,-0.012552797794342041
1716737725163404800,1.40740478515625,-0.013852119445800781,0.0006386041641235352,-0.012518476694822311
1716737725173405000,1.417405029296875,-0.0162506103515625,0.003171853721141815,-0.011966574937105179
1716737725183404800,1.42740478515625,-0.016252517700195312,0.0032604560256004333,-0.009069941937923431
1716737725193405000,1.437405029296875,-0.01625347137451172,0.0032880976796150208,-0.006641708314418793
1716737725203404800,1.44740478515625,-0.016257286071777344,0.0008018091320991516,-0.0034650713205337524
1716737725213405000,1.457405029296875,-0.016256332397460938,-0.0016774125397205353,0.003695763647556305
1716737725223404800,1.46740478515625,-0.01386260986328125,-0.004101797938346863,0.008530847728252411
1716737725233405200,1.4774052734375,-0.016256332397460938,-0.006455115973949432,0.008441857993602753
1716737725243405300,1.4874052734375,-0.03062152862548828,-0.008815225213766098,0.01320287212729454
1716737725253405000,1.497405029296875,-0.021045684814453125,-0.003937527537345886,0.010849468410015106
1716737725263404800,1.50740478515625,-0.006679534912109375,-0.0016969479620456696,0.008488565683364868
1716737725273405000,1.517405029296875,-0.006679534912109375,-0.004114486277103424,0.00847361609339714
1716737725283404800,1.52740478515625,-0.01864910125732422,0.000941794365644455,0.0033465251326560974
1716737725293405000,1.537405029296875,-0.01864910125732422,0.0009608566761016846,0.005736641585826874
1716737725303404800,1.54740478515625,-0.011465072631835938,0.003313489258289337,0.00526399165391922
1716737725313405000,1.557405029296875,-0.013858795166015625,0.0034052394330501556,0.0076182521879673
1716737725323404800,1.56740478515625,-0.01625347137451172,0.0057201087474823,0.005321510136127472
1716737725333405000,1.577405029296875,-0.013856887817382812,0.00806167721748352,0.0001030266284942627
1716737725343403500,1.587403564453125,-0.009068489074707031,0.0056374408304691315,-0.0022446438670158386
1716737725353403600,1.597403564453125,-0.011463165283203125,0.00800393894314766,0.00011555105447769165
1716737725363640800,1.607640869140625,-0.018645286560058594,0.005647994577884674,0.0001073889434337616
1716737725373641000,1.617640869140625,-0.016251564025878906,0.0008322559297084808,-0.0023210756480693817
1716737725383640800,1.627640869140625,-0.013854026794433594,0.00043771788477897644,-0.0024768300354480743
1716737725393641000,1.637640869140625,-0.018642425537109375,0.0003458783030509949,-0.000042710453271865845
1716737725403640800,1.647640869140625,-0.023431777954101562,0.000386115163564682,0.004837155342102051
1716737725413641000,1.657640869140625,-0.021038055419921875,0.00041344016790390015,0.0048714205622673035
1716737725423640800,1.667640869140625,-0.016249656677246094,-0.001949116587638855,0.0049247704446315765
1716737725433641000,1.677640869140625,-0.016249656677246094,-0.001976761966943741,0.004890739917755127
1716737725443640800,1.687640869140625,-0.01864337921142578,-0.004281837493181229,0.0025374144315719604
1716737725453641000,1.697640869140625,-0.01864337921142578,-0.006760943681001663,0.00012138858437538147
1716737725463640800,1.707640869140625,-0.01385498046875,-0.006771780550479889,0.00016384199261665344
1716737725473641000,1.717640869140625,-0.016248703002929688,-0.006880313158035278,-0.0022669844329357147
1716737725483640800,1.727640869140625,-0.016249656677246094,-0.001568969339132309,-0.0001461803913116455
1716737725493641000,1.737640869140625,-0.016251564025878906,0.0013538561761379242,-0.0003004893660545349
1716737725503640800,1.747640869140625,-0.018644332885742188,0.0036629997193813324,0.0020720288157463074
1716737725513641000,1.757640869140625,-0.018644332885742188,0.0012384690344333649,-0.0026695579290390015
1716737725523640800,1.767640869140625,-0.018644332885742188,0.0012727342545986176,-0.005091235041618347
1716737725533641000,1.777640869140625,-0.018644332885742188,0.0013560652732849121,-0.005169384181499481
1716737725543640800,1.787640869140625,-0.0162506103515625,0.0013902150094509125,-0.0028026029467582703
1716737725553641200,1.79764111328125,-0.0162506103515625,0.0038186758756637573,-0.0004358738660812378
1716737725563641300,1.807641357421875,-0.0162506103515625,0.0038460083305835724,-0.002795819193124771
1716737725573641200,1.81764111328125,-0.018645286560058594,0.00628705695271492,-0.0027658604085445404
1716737725583641300,1.827641357421875,-0.018645286560058594,0.00865798071026802,-0.0003867708146572113
1716737725593641200,1.83764111328125,-0.018644332885742188,0.008673075586557388,-0.0004101097583770752
1716737725603641300,1.847641357421875,-0.018644332885742188,0.006262294948101044,-0.002880912274122238
1716737725613641200,1.85764111328125,-0.01864337921142578,0.005729828029870987,-0.0003518536686897278
1716737725623641300,1.867641357421875,-0.01864147186279297,0.002749774605035782,-0.0001854225993156433
1716737725633641200,1.87764111328125,-0.018640518188476562,0.0023280493915081024,-0.00009442493319511414
1716737725643641000,1.88764111328125,-0.016244888305664062,0.0017846859991550446,0.00008290261030197144
1716737725653641200,1.89764111328125,-0.016244888305664062,0.0018187761306762695,0.0024497248232364655
1716737725663641000,1.90764111328125,-0.016244888305664062,-0.0005988180637359619,0.002434808760881424
1716737725673641200,1.91764111328125,-0.016242027282714844,-0.003490496426820755,-0.00003257766366004944
1716737725683641000,1.92764111328125,-0.016242027282714844,-0.001062147319316864,-0.000059995800256729126
1716737725693641200,1.93764111328125,-0.01624298095703125,0.006147816777229309,-0.00002567097544670105
1716737725703641000,1.94764111328125,-0.02103137969970703,0.006175149232149124,0.000008594244718551636
1716737725713641200,1.95764111328125,-0.01863574981689453,0.0060968585312366486,-0.00007473677396774292
1716737725723641000,1.96764111328125,-0.01863574981689453,0.003798544406890869,-0.0024897120893001556
1716737725733641200,1.97764111328125,-0.021030426025390625,0.006156995892524719,-0.004956375807523727
1716737725743641000,1.98764111328125,-0.021030426025390625,0.006190940737724304,-0.0025894157588481903
1716737725753641200,1.99764111328125,-0.02102947235107422,0.005668122321367264,0.00007813051342964172
1716737725763641000,2.00764111328125,-0.018634796142578125,0.0008631907403469086,0.0023955553770065308
1716737725773641200,2.01764111328125,-0.018634796142578125,-0.0014393702149391174,0.004750009626150131
1716737725783641000,2.02764111328125,-0.02102947235107422,-0.003876030445098877,0.007133230566978455
1716737725793641200,2.03764111328125,-0.021028518676757812,-0.003841906785964966,0.009500108659267426
1716737725803641000,2.04764111328125,-0.02102947235107422,-0.0038077570497989655,0.009472686797380447
1716737725813641200,2.05764111328125,-0.02102947235107422,-0.0014247111976146698,0.00951538234949112
1716737725823641000,2.06764111328125,-0.018631935119628906,-0.0014323890209197998,0.0090155228972435
1716737725833641200,2.07764111328125,-0.018629074096679688,-0.0014224424958229065,0.010805666446685791
1716737725843641000,2.08764111328125,-0.021020889282226562,-0.0013421885669231415,0.007852241396903992
1716737725853641200,2.09764111328125,-0.02101898193359375,-0.0012690424919128418,0.004960790276527405
1716737725863641000,2.10764111328125,-0.02101898193359375,-0.00368649885058403,0.0025515221059322357
1716737725873641200,2.11764111328125,-0.018624305725097656,-0.001258060336112976,0.00012978911399841309
1716737725883641000,2.12764111328125,-0.02101898193359375,-0.00128115713596344,0.00011457130312919617
1716737725893641200,2.13764111328125,-0.02101898193359375,-0.001315239816904068,-0.0022522471845149994
1716737725903641000,2.14764111328125,-0.02101898193359375,-0.001207057386636734,-0.002215292304754257
1716737725913641200,2.15764111328125,-0.02101898193359375,-0.0011731237173080444,-0.0022425316274166107
1716737725923641000,2.16764111328125,-0.02101898193359375,-0.0012157261371612549,-0.004647575318813324
1716737725933641200,2.17764111328125,-0.02101898193359375,-0.0011811591684818268,-0.0022811517119407654
1716737725943641000,2.18764111328125,-0.02101898193359375,-0.0012044049799442291,-0.002296213060617447
1716737725953641200,2.19764111328125,-0.018624305725097656,-0.0011576712131500244,-0.004660405218601227
1716737725963641000,2.20764111328125,-0.01623058319091797,-0.0012002699077129364,-0.007065445184707642
1716737725973641200,2.21764111328125,-0.018627166748046875,-0.005731794983148575,-0.006619282066822052
1716737725983641000,2.22764111328125,-0.018630027770996094,-0.007881533354520798,-0.0038364343345165253
1716737725993641200,2.23764111328125,-0.0186309814453125,-0.005521509796380997,-0.0014148727059364319
1716737726003641000,2.24764111328125,-0.016236305236816406,-0.0054873935878276825,0.0009520053863525391
1716737726013641200,2.25764111328125,-0.018632888793945312,-0.005084492266178131,0.00354018434882164
1716737726023641000,2.26764111328125,-0.01863574981689453,-0.0021379105746746063,0.0012875758111476898
1716737726033641200,2.27764111328125,-0.021030426025390625,-0.0020998306572437286,0.0012794993817806244
1716737726043641000,2.28764111328125,-0.01863574981689453,0.002715896815061569,0.0037079602479934692
1716737726053641200,2.29764111328125,-0.02103137969970703,0.0051443688571453094,0.001286286860704422
1716737726063641000,2.30764111328125,-0.021030426025390625,0.002733670175075531,-0.0011846311390399933
1716737726073641200,2.31764111328125,-0.021030426025390625,0.002692796289920807,-0.001095648854970932
1716737726083641000,2.32764111328125,-0.018636703491210938,0.002726912498474121,-0.0011229775846004486
1716737726093641200,2.33764111328125,-0.02103137969970703,0.00037126243114471436,-0.0011314265429973602
1716737726103641000,2.34764111328125,-0.018636703491210938,0.0027995482087135315,-0.0011588186025619507
1716737726113641200,2.35764111328125,-0.021030426025390625,0.007503047585487366,-0.0011806376278400421
1716737726123641000,2.36764111328125,-0.02102947235107422,0.011739492416381836,0.001352790743112564
1716737726133641200,2.37764111328125,-0.02102947235107422,0.004601903259754181,0.0012829825282096863
1716737726143641000,2.38764111328125,-0.02102947235107422,0.002173434942960739,0.001310456544160843
1716737726153641200,2.39764111328125,-0.04257678985595703,-0.0025808513164520264,0.0012831278145313263
1716737726163641000,2.40764111328125,-0.023423194885253906,-0.0026110373437404633,-0.001064397394657135
1716737726173641200,2.41764111328125,-0.01624011993408203,-0.002815108746290207,-0.0010805614292621613
1716737726183641000,2.42764111328125,-0.021027565002441406,-0.0027808398008346558,-0.008290644735097885
1716737726193641200,2.43764111328125,-0.028211593627929688,-0.0002850368618965149,-0.008192285895347595
1716737726203641000,2.44764111328125,-0.02102947235107422,-0.0002507716417312622,-0.005825560539960861
1716737726213641200,2.45764111328125,-0.01624011993408203,-0.0003356747329235077,-0.005847379565238953
1716737726223641000,2.46764111328125,-0.0234222412109375,-0.0027023740112781525,-0.003419008105993271
1716737726233641200,2.47764111328125,-0.028211593627929688,-0.002606309950351715,-0.003439866006374359
1716737726243641000,2.48764111328125,-0.023423194885253906,-0.00017783790826797485,-0.003467343747615814
1716737726253641200,2.49764111328125,-0.02102947235107422,0.002250589430332184,-0.003494884818792343
1716737726263641000,2.50764111328125,-0.02581787109375,0.0022890567779541016,-0.005897417664527893
1716737726273641200,2.51764111328125,-0.028214454650878906,0.0046525560319423676,-0.002994988113641739
1716737726283641000,2.52764111328125,-0.023426055908203125,0.004634782671928406,-0.00528499111533165
1716737726293641200,2.53764111328125,-0.02103424072265625,0.009243074804544449,-0.004724401980638504
1716737726303641000,2.54764111328125,-0.023428916931152344,0.008949216455221176,-0.0043198950588703156
1716737726313641200,2.55764111328125,-0.028217315673828125,0.006190907210111618,-0.0015660487115383148
1716737726323641300,2.567641357421875,-0.021035194396972656,0.005721155554056168,0.0010701529681682587
1716737726333641200,2.57764111328125,-0.018640518188476562,0.0057594142854213715,0.001061994582414627
1716737726343641300,2.587641357421875,-0.023428916931152344,0.0034568756818771362,-0.0037662386894226074
1716737726353641200,2.59764111328125,-0.028217315673828125,0.0010324940085411072,-0.001325353980064392
1716737726363641300,2.607641357421875,-0.02103424072265625,0.0009351745247840881,-0.0014046989381313324
1716737726373641200,2.61764111328125,-0.01863861083984375,0.00035746023058891296,-0.0035939589142799377
1716737726383641300,2.627641357421875,-0.021032333374023438,0.000196065753698349,-0.003599412739276886
1716737726393641200,2.63764111328125,-0.02342700958251953,-0.00021130964159965515,-0.0006758831441402435
1716737726403641300,2.647641357421875,-0.018637657165527344,0.0021404698491096497,0.0017073862254619598
1716737726413641200,2.65764111328125,-0.013850212097167969,-0.00022609159350395203,0.004135612398386002
1716737726423641300,2.667641357421875,-0.01863861083984375,-0.00021097809076309204,0.006506383419036865
1716737726433641200,2.67764111328125,-0.021033287048339844,-0.004971880465745926,0.006540555506944656
1716737726443641300,2.687641357421875,-0.021033287048339844,-0.0025458931922912598,0.004199549555778503
1716737726453641200,2.69764111328125,-0.021033287048339844,-0.0025309138000011444,0.004176273941993713
1716737726463641300,2.707641357421875,-0.025821685791015625,-0.0024538636207580566,0.004159439355134964
1716737726473641200,2.71764111328125,-0.028215408325195312,-0.002539079636335373,-0.003044743090867996
1716737726483641300,2.727641357421875,-0.02342700958251953,-0.0002556554973125458,-0.005395006388425827
1716737726493641200,2.73764111328125,-0.01863861083984375,-0.00022818893194198608,-0.005360890179872513
1716737726503641000,2.74764111328125,-0.021033287048339844,-0.00026909634470939636,-0.002877619117498398
1716737726513641200,2.75764111328125,-0.023430824279785156,0.0001340322196483612,-0.00268375501036644
1716737726523641000,2.76764111328125,-0.02103710174560547,0.00254729762673378,0.002100575715303421
1716737726533641200,2.77764111328125,-0.018642425537109375,0.00010666996240615845,0.002070322632789612
1716737726543641000,2.78764111328125,-0.018640518188476562,0.0024158284068107605,-0.0003455542027950287
1716737726553641200,2.79764111328125,-0.023428916931152344,-0.000020775943994522095,0.00203762948513031
1716737726563641000,2.80764111328125,-0.021035194396972656,0.000013627111911773682,-0.0003842003643512726
1716737726573641200,2.81764111328125,-0.018640518188476562,-0.000028934329748153687,-0.0003949776291847229
1716737726583641000,2.82764111328125,-0.021035194396972656,-0.004802357405424118,0.0019759424030780792
1716737726593641200,2.83764111328125,-0.025823593139648438,-0.004706446081399918,-0.00043897703289985657
1716737726603641000,2.84764111328125,-0.025823593139648438,-0.004691522568464279,0.0019319802522659302
1716737726613641200,2.85764111328125,-0.021035194396972656,0.0001311972737312317,0.0019044727087020874
1716737726623641000,2.86764111328125,-0.021036148071289062,0.00026266276836395264,0.004350598901510239
1716737726633641200,2.87764111328125,-0.02342987060546875,-0.004559885710477829,0.001983810216188431
1716737726643641000,2.88764111328125,-0.025824546813964844,-0.002146400511264801,-0.0004145912826061249
1716737726653641200,2.89764111328125,-0.02103710174560547,0.0007090568542480469,-0.003089003264904022
1716737726663641000,2.90764111328125,-0.023430824279785156,0.0030608326196670532,-0.003099929541349411
1716737726673641200,2.91764111328125,-0.025824546813964844,0.005476940423250198,-0.0007907561957836151
1716737726683641000,2.92764111328125,-0.023428916931152344,0.00537944957613945,-0.0008700042963027954
1716737726693641200,2.93764111328125,-0.018640518188476562,0.005342509597539902,-0.0007616691291332245
1716737726703641000,2.94764111328125,-0.018640518188476562,0.0028566457331180573,-0.0007218420505523682
1716737726713641200,2.95764111328125,-0.018640518188476562,0.005148168653249741,-0.0006394684314727783
1716737726723641000,2.96764111328125,-0.021033287048339844,0.004649624228477478,0.0018624290823936462
1716737726733641200,2.97764111328125,-0.018636703491210938,0.0016662292182445526,0.0018291063606739044
1716737726743641000,2.98764111328125,-0.01863574981689453,0.0016428902745246887,-0.0005800388753414154
1716737726753641200,2.99764111328125,-0.018636703491210938,0.0016511939465999603,-0.0005417913198471069
1716737726763641000,3.00764111328125,-0.01624298095703125,-0.003109842538833618,0.0018867440521717072
1716737726773641200,3.01764111328125,-0.01624298095703125,-0.0031329020857810974,0.0018714889883995056
1716737726783641000,3.02764111328125,-0.018636703491210938,-0.003117810934782028,0.0018481500446796417
1716737726793641200,3.03764111328125,-0.02103137969970703,-0.0031476840376853943,0.006682984530925751
1716737726803641000,3.04764111328125,-0.018637657165527344,-0.003077734261751175,0.006727997213602066
1716737726813641200,3.05764111328125,-0.01863574981689453,-0.0004937648773193359,0.00391170009970665
1716737726823641000,3.06764111328125,-0.01863574981689453,-0.0004664324223995209,0.0039459653198719025
1716737726833641200,3.07764111328125,-0.023424148559570312,-0.002845536917448044,0.003922626376152039
1716737726843641000,3.08764111328125,-0.023423194885253906,-0.0028324872255325317,0.003518536686897278
1716737726853641200,3.09764111328125,-0.025816917419433594,-0.00048102065920829773,0.003507860004901886
1716737726863641000,3.10764111328125,-0.02581787109375,-0.002847660332918167,0.0011477991938591003
1716737726873641200,3.11764111328125,-0.021027565002441406,-0.0026703961193561554,0.0006681568920612335
1716737726883641000,3.12764111328125,-0.025815963745117188,-0.002693645656108856,0.0006530880928039551
1716737726893641200,3.13764111328125,-0.023421287536621094,-0.00034167245030403137,-0.0017522312700748444
1716737726903641000,3.14764111328125,-0.02581501007080078,-0.000011965632438659668,-0.004478435963392258
1716737726913641200,3.15764111328125,-0.02581501007080078,0.004814840853214264,-0.004486743360757828
1716737726923641300,3.167641357421875,-0.025814056396484375,0.002380724996328354,-0.006972640752792358
1716737726933641200,3.17764111328125,-0.025814056396484375,0.0023958198726177216,-0.004601776599884033
1716737726943641300,3.187641357421875,-0.028209686279296875,0.00009059906005859375,-0.004560746252536774
1716737726953641200,3.19764111328125,-0.023420333862304688,-0.0023949816823005676,-0.004521224647760391
1716737726963641300,3.207641357421875,-0.021026611328125,-0.004887547343969345,-0.0020255744457244873
1716737726973641200,3.21764111328125,-0.018631935119628906,-0.0073114484548568726,0.0004149600863456726
1716737726983641300,3.227641357421875,-0.021027565002441406,-0.007241632789373398,0.0004601292312145233
1716737726993641200,3.23764111328125,-0.021027565002441406,-0.007214244455099106,0.0004943683743476868
1716737727003641300,3.247641357421875,-0.018632888793945312,-0.007180299609899521,0.002861347049474716
1716737727013641200,3.25764111328125,-0.021030426025390625,-0.006755746901035309,0.0029705315828323364
1716737727023641300,3.267641357421875,-0.018637657165527344,-0.0038655810058116913,0.0005495250225067139
1716737727033641200,3.27764111328125,-0.021032333374023438,-0.0014441907405853271,0.0029781386256217957
1716737727043641300,3.287641357421875,-0.021032333374023438,0.0009581670165061951,-0.0017718598246574402
1716737727053641200,3.29764111328125,-0.018639564514160156,0.0014731325209140778,0.0005914904177188873
1716737727063641000,3.30764111328125,-0.028217315673828125,0.0014816336333751678,0.0006297081708908081
1716737727073641200,3.31764111328125,-0.023428916931152344,0.0015775226056575775,0.0006089359521865845
1716737727083641000,3.32764111328125,-0.016246795654296875,0.001466602087020874,0.003047224134206772
1716737727093641200,3.33764111328125,-0.013852119445800781,-0.0009510256350040436,0.0006380416452884674
1716737727103641300,3.347641357421875,-0.021035194396972656,-0.0009233802556991577,0.000672072172164917
1716737727113641200,3.35764111328125,-0.018640518188476562,-0.000972505658864975,0.0007227696478366852
1716737727123641300,3.367641357421875,-0.016246795654296875,-0.0010615438222885132,0.0030759796500205994
1716737727133641200,3.37764111328125,-0.018637657165527344,-0.000807587057352066,0.00018557533621788025
1716737727143641000,3.38764111328125,-0.025821685791015625,-0.000788617879152298,-0.002212587743997574
1716737727153641200,3.39764111328125,-0.02342700958251953,-0.000754527747631073,0.0001542307436466217
1716737727163641000,3.40764111328125,-0.016243934631347656,-0.0008653663098812103,0.00019819289445877075
1716737727173641200,3.41764111328125,-0.018637657165527344,-0.0008926950395107269,0.00016393139958381653
1716737727183641000,3.42764111328125,-0.023426055908203125,-0.0008736401796340942,0.00015985220670700073
1716737727193641200,3.43764111328125,-0.021033287048339844,-0.0033662617206573486,-0.002132866531610489
1716737727203641000,3.44764111328125,-0.021032333374023438,-0.0033937692642211914,-0.0021670497953891754
1716737727213641200,3.45764111328125,-0.02103424072265625,-0.0006365254521369934,-0.002064775675535202
1716737727223641000,3.46764111328125,-0.02103710174560547,-0.0002954155206680298,0.0029110126197338104
1716737727233641200,3.47764111328125,-0.018642425537109375,0.0045081377029418945,0.0052818432450294495
1716737727243641000,3.48764111328125,-0.013854026794433594,0.0044655390083789825,0.002876807004213333
1716737727253641200,3.49764111328125,-0.016244888305664062,0.001892782747745514,0.002514023333787918
1716737727263641000,3.50764111328125,-0.01863861083984375,-0.0004246123135089874,0.00010321289300918579
1716737727273641200,3.51764111328125,-0.01863574981689453,0.0016936622560024261,-0.00033887848258018494
1716737727283641000,3.52764111328125,-0.018634796142578125,0.001654151827096939,0.001963287591934204
1716737727293641200,3.53764111328125,-0.02102947235107422,0.004005994647741318,0.0019523277878761292
1716737727303641000,3.54764111328125,-0.023424148559570312,0.006489023566246033,-0.0004007071256637573
1716737727313641200,3.55764111328125,-0.021030426025390625,0.006454698741436005,-0.00037319958209991455
1716737727323641000,3.56764111328125,-0.018636703491210938,0.00414980947971344,-0.0027266107499599457
1716737727333641200,3.57764111328125,-0.02102947235107422,0.0011790543794631958,-0.00270254909992218
1716737727343641000,3.58764111328125,-0.02341938018798828,0.0006749927997589111,-0.0003199763596057892
1716737727353641200,3.59764111328125,-0.021025657653808594,0.003159135580062866,-0.00045961886644363403
1716737727363641300,3.607641357421875,-0.0186309814453125,0.0030549466609954834,-0.002871442586183548
1716737727373641200,3.61764111328125,-0.02341938018798828,0.003024790436029434,-0.0028247088193893433
1716737727383641300,3.627641357421875,-0.025814056396484375,0.003045506775379181,-0.0003347359597682953
1716737727393641200,3.63764111328125,-0.02581501007080078,0.0030661635100841522,-0.0002387911081314087
1716737727403641000,3.64764111328125,-0.021027565002441406,0.003143053501844406,0.0021386854350566864
1716737727413641200,3.65764111328125,-0.023418426513671875,0.002528097480535507,0.0021710507571697235
1716737727423641000,3.66764111328125,-0.02581024169921875,0.002011597156524658,0.0021018534898757935
1716737727433641200,3.67764111328125,-0.023415565490722656,-0.0003567039966583252,0.0020361505448818207
1716737727443641000,3.68764111328125,-0.018627166748046875,-0.0004483647644519806,0.002075977623462677
1716737727453641200,3.69764111328125,-0.016229629516601562,-0.0032703764736652374,-0.0030214861035346985
1716737727463641000,3.70764111328125,-0.018624305725097656,-0.003138825297355652,-0.005363732576370239
1716737727473641200,3.71764111328125,-0.018624305725097656,-0.0031663887202739716,-0.003003675490617752
1716737727483641300,3.727641357421875,-0.01623058319091797,-0.0008149333298206329,-0.0006201490759849548
1716737727493641200,3.73764111328125,-0.01623058319091797,0.001594100147485733,-0.0030374713242053986
1716737727503641300,3.747641357421875,-0.018624305725097656,-0.0007658377289772034,0.001723453402519226
1716737727513641200,3.75764111328125,-0.018624305725097656,-0.0031900443136692047,0.004164241254329681
1716737727523641300,3.767641357421875,-0.01623058319091797,-0.000838451087474823,0.001759212464094162
1716737727533641200,3.77764111328125,-0.016229629516601562,-0.0009341873228549957,0.004174031317234039
1716737727543641300,3.787641357421875,-0.01623058319091797,-0.0009028688073158264,0.004227630794048309
1716737727553641200,3.79764111328125,-0.01862335205078125,0.001444600522518158,-0.0005907788872718811
1716737727563641300,3.807641357421875,-0.018622398376464844,-0.0007322467863559723,-0.005767226219177246
1716737727573641200,3.81764111328125,-0.02101612091064453,-0.0007679425179958344,-0.0010514631867408752
1716737727583641300,3.827641357421875,-0.02101612091064453,-0.0008020922541618347,0.0013701505959033966
1716737727593641200,3.83764111328125,-0.01862049102783203,-0.0032938718795776367,0.001291036605834961
1716737727603641300,3.847641357421875,-0.01862335205078125,-0.00278308242559433,-0.001153111457824707
1716737727613641200,3.85764111328125,-0.018622398376464844,-0.0028255321085453033,-0.0035583004355430603
1716737727623641300,3.867641357421875,-0.018622398376464844,-0.005185261368751526,-0.0035859644412994385
1716737727633641200,3.87764111328125,-0.021017074584960938,-0.002840239554643631,-0.00592944398522377
1716737727643641300,3.887641357421875,-0.023410797119140625,-0.002874385565519333,-0.0035078264772892
1716737727653641200,3.89764111328125,-0.023410797119140625,-0.00046107545495033264,-0.0011177249252796173
1716737727663641000,3.90764111328125,-0.02581024169921875,-0.0000973045825958252,0.0016593113541603088
1716737727673641200,3.91764111328125,-0.025809288024902344,-0.00013162940740585327,0.00647522509098053
1716737727683641000,3.92764111328125,-0.023415565490722656,-0.002443511039018631,0.008972138166427612
1716737727693641200,3.93764111328125,-0.023415565490722656,-0.004867758601903915,0.0066244639456272125
1716737727703641000,3.94764111328125,-0.023416519165039062,-0.004859711974859238,0.006663084030151367
1716737727713641200,3.95764111328125,-0.023415565490722656,-0.004883080720901489,0.0018596760928630829
1716737727723641000,3.96764111328125,-0.023415565490722656,-0.007262367755174637,0.004230629652738571
1716737727733641200,3.97764111328125,-0.02102184295654297,-0.009622447192668915,0.004203304648399353
1716737727743641000,3.98764111328125,-0.023416519165039062,-0.009614374488592148,0.001847628504037857
1716737727753641200,3.99764111328125,-0.021022796630859375,-0.009644560515880585,0.0018943138420581818
1716737727763641300,4.007641357421875,-0.021022796630859375,-0.006800152361392975,0.0016567260026931763
1716737727773641200,4.01764111328125,-0.021024703979492188,-0.006089579313993454,-0.0010714605450630188
1716737727783641000,4.02764111328125,-0.018630027770996094,-0.00845644623041153,-0.0010371953248977661
1716737727793641200,4.03764111328125,-0.018630027770996094,-0.008503153920173645,-0.0010671429336071014
1716737727803641000,4.04764111328125,-0.016234397888183594,-0.003857288509607315,-0.005864880979061127
1716737727813641200,4.05764111328125,-0.016237258911132812,-0.0032640062272548676,-0.0058123767375946045
1716737727823641000,4.06764111328125,-0.016241073608398438,-0.002828095108270645,-0.00814027339220047
1716737727833641200,4.07764111328125,-0.016244888305664062,-0.0021687261760234833,-0.005386747419834137
1716737727843641300,4.087641357421875,-0.016244888305664062,-0.004548009485006332,-0.0030158013105392456
1716737727853641200,4.09764111328125,-0.01624774932861328,-0.00413251668214798,-0.00037018582224845886
1716737727863641300,4.107641357421875,-0.01624774932861328,-0.001768268644809723,-0.00032361969351768494
1716737727873641200,4.11764111328125,-0.016248703002929688,0.003040708601474762,-0.00022771209478378296
1716737727883641300,4.127641357421875,-0.018642425537109375,0.0006740130484104156,-0.0001935325562953949
1716737727893641200,4.13764111328125,-0.018642425537109375,0.0007014013826847076,-0.0025535039603710175
1716737727903641000,4.14764111328125,-0.018645286560058594,0.0009825192391872406,-0.0022730380296707153
1716737727913641200,4.15764111328125,-0.021040916442871094,0.003397468477487564,0.00021699443459510803
1716737727923641000,4.16764111328125,-0.018646240234375,0.00341937318444252,0.00013197213411331177
1716737727933641200,4.17764111328125,-0.018646240234375,0.005851805210113525,0.00012375414371490479
1716737727943641000,4.18764111328125,-0.018645286560058594,0.008199300616979599,0.000093802809715271
1716737727953641200,4.19764111328125,-0.021040916442871094,0.010682802647352219,0.00013459473848342896
1716737727963641000,4.20764111328125,-0.021040916442871094,0.008258622139692307,-0.0022131018340587616
1716737727973641200,4.21764111328125,-0.021040916442871094,0.008212056010961533,0.00015100091695785522
1716737727983641000,4.22764111328125,-0.021038055419921875,0.005011331290006638,0.005013022571802139
1716737727993641200,4.23764111328125,-0.021035194396972656,-0.00033602863550186157,0.007327195256948471
1716737728003641000,4.24764111328125,-0.021035194396972656,-0.0027025267481803894,0.007361199706792831
1716737728013641200,4.25764111328125,-0.021035194396972656,-0.0026945099234580994,0.007399745285511017
1716737728023641000,4.26764111328125,-0.02103137969970703,-0.0053086429834365845,0.004451051354408264
1716737728033641200,4.27764111328125,-0.018637657165527344,-0.0028827376663684845,0.002110172063112259
1716737728043641000,4.28764111328125,-0.018637657165527344,-0.002862166613340378,0.002206087112426758
1716737728053641200,4.29764111328125,-0.021032333374023438,-0.0051796287298202515,0.0045837052166461945
1716737728063641000,4.30764111328125,-0.013848304748535156,-0.0025846511125564575,0.004118915647268295
1716737728073641200,4.31764111328125,0.0005178451538085938,-0.0026761703193187714,0.001764398068189621
1716737728083641000,4.32764111328125,-0.006665229797363281,-0.005048662424087524,-0.0007146410644054413
1716737728093641200,4.33764111328125,-0.025819778442382812,-0.005096267908811569,0.0018302500247955322
1716737728103641000,4.34764111328125,-0.018637657165527344,-0.002612762153148651,0.0018710382282733917
1716737728113641200,4.35764111328125,-0.004271507263183594,-0.00032281503081321716,0.00424763560295105
1716737728123641000,4.36764111328125,-0.009059906005859375,-0.00022701174020767212,0.0018327794969081879
1716737728133641200,4.37764111328125,-0.021032333374023438,-0.00020640715956687927,0.0019287578761577606
1716737728143641000,4.38764111328125,-0.021032333374023438,0.0022068433463573456,0.0019246824085712433
1716737728153641200,4.39764111328125,-0.011455535888671875,0.002102825790643692,0.0019069686532020569
1716737728163641000,4.40764111328125,-0.013846397399902344,0.002195272594690323,-0.0009888187050819397
1716737728173641200,4.41764111328125,-0.023424148559570312,-0.002523142844438553,-0.000943746417760849
1716737728183641000,4.42764111328125,-0.021027565002441406,-0.002383992075920105,-0.0014152340590953827
1716737728193641200,4.43764111328125,-0.01145172119140625,0.000018544495105743408,-0.003771122545003891
1716737728203641000,4.44764111328125,-0.016239166259765625,-0.000004556030035018921,-0.003786332905292511
1716737728213641200,4.45764111328125,-0.025815963745117188,0.000010270625352859497,-0.003809463232755661
1716737728223641000,4.46764111328125,-0.021027565002441406,-0.00007495284080505371,-0.0014368556439876556
1716737728233641200,4.47764111328125,-0.016242027282714844,0.002395268529653549,-0.0009918548166751862
1716737728243641000,4.48764111328125,-0.01863574981689453,0.000077810138463974,-0.0010084323585033417
1716737728253641200,4.49764111328125,-0.025818824768066406,-0.0022202692925930023,-0.001029323786497116
1716737728263641000,4.50764111328125,-0.023424148559570312,0.00012061372399330139,-0.005786169320344925
1716737728273641200,4.51764111328125,-0.01624298095703125,0.00015901774168014526,-0.003400273621082306
1716737728283641000,4.52764111328125,-0.01863574981689453,0.00011233985424041748,-0.0010361112654209137
1716737728293641200,4.53764111328125,-0.025818824768066406,0.00007556751370429993,-0.0009278655052185059
1716737728303641000,4.54764111328125,-0.025818824768066406,-0.002352803945541382,0.0014936961233615875
1716737728313641200,4.55764111328125,-0.01863574981689453,-0.0023759976029396057,-0.003309808671474457
1716737728323641300,4.567641357421875,-0.01863861083984375,-0.002195999026298523,-0.0052411966025829315
1716737728333641200,4.57764111328125,-0.02342700958251953,-0.004613596946001053,-0.00525612011551857
1716737728343641300,4.587641357421875,-0.02582550048828125,-0.004288174211978912,-0.0024707913398742676
1716737728353641200,4.59764111328125,-0.02103710174560547,-0.004322435706853867,-0.0024433135986328125
1716737728363641300,4.607641357421875,-0.018645286560058594,-0.0015086084604263306,-0.002172715961933136
1716737728373641200,4.61764111328125,-0.023436546325683594,-0.003613259643316269,0.0005402080714702606
1716737728383641300,4.627641357421875,-0.021045684814453125,0.011063192039728165,0.015139233320951462
1716737728393641200,4.63764111328125,-0.006680488586425781,-0.0010117515921592712,-0.0040321946144104
1716737728403641300,4.647641357421875,-0.006678581237792969,-0.015419386327266693,0.012716289609670639
1716737728413641200,4.65764111328125,-0.02822589874267578,-0.0010815337300300598,0.0007109604775905609
1716737728423641300,4.667641357421875,-0.025834083557128906,0.001463335007429123,-0.0016354024410247803
1716737728433641200,4.67764111328125,0.005291938781738281,0.004106387495994568,0.0028183162212371826
1716737728443641300,4.687641357421875,-0.021042823791503906,-0.005335398018360138,-0.009643346071243286
1716737728453641200,4.69764111328125,-0.028224945068359375,0.013784214854240417,-0.002433463931083679
1716737728463641300,4.707641357421875,-0.016254425048828125,-0.0009340494871139526,0.012248802930116653
1716737728473641200,4.71764111328125,-0.0066776275634765625,-0.005694977939128876,0.007494520395994186
1716737728483641300,4.727641357421875,-0.0066776275634765625,-0.0009983256459236145,0.007534459233283997
1716737728493641200,4.73764111328125,-0.0234375,0.0038792043924331665,0.002786938101053238
1716737728503641000,4.74764111328125,-0.02343463897705078,0.01821759343147278,0.01665641739964485
1716737728513641200,4.75764111328125,-0.013854026794433594,0.013083226978778839,0.01377507671713829
1716737728523641000,4.76764111328125,-0.013850212097167969,-0.0015428625047206879,-0.010632336139678955
1716737728533641200,4.77764111328125,-0.021030426025390625,0.010085240006446838,0.008234187960624695
1716737728543641000,4.78764111328125,-0.023424148559570312,0.014901116490364075,0.010662510991096497
1716737728553641200,4.79764111328125,-0.00666046142578125,0.016738589853048325,-0.006538592278957367
1716737728563641000,4.80764111328125,-0.016233444213867188,-0.007953140884637833,0.002818867564201355
1716737728573641200,4.81764111328125,-0.018625259399414062,-0.005885176360607147,0.0026082582771778107
1716737728583641000,4.82764111328125,-0.013835906982421875,0.013225864619016647,0.0049916841089725494
1716737728593641200,4.83764111328125,-0.01623058319091797,0.0012206807732582092,0.002624835819005966
1716737728603641000,4.84764111328125,-0.01623058319091797,-0.00832870602607727,0.014630146324634552
1716737728613641200,4.85764111328125,-0.018624305725097656,0.0035996995866298676,0.0026482976973056793
1716737728623641000,4.86764111328125,-0.009042739868164062,0.000871509313583374,0.009120553731918335
1716737728633641200,4.87764111328125,-0.006649017333984375,0.017658457159996033,0.009154640138149261
1716737728643641000,4.88764111328125,-0.018616676330566406,-0.004156813025474548,-0.008008606731891632
1716737728653641200,4.89764111328125,-0.02340412139892578,0.002989795058965683,0.008678462356328964
1716737728663641000,4.90764111328125,-0.011429786682128906,0.009847275912761688,0.0034986361861228943
1716737728673641200,4.91764111328125,-0.016218185424804688,-0.0021593905985355377,0.0058202557265758514
1716737728683641000,4.92764111328125,-0.009030342102050781,0.004604976624250412,0.0005802176892757416
1716737728693641200,4.93764111328125,-0.013818740844726562,-0.00014943629503250122,0.010129760950803757
1716737728703641000,4.94764111328125,-0.018607139587402344,-0.002586398273706436,-0.006640326231718063
1716737728713641200,4.95764111328125,-0.013819694519042969,0.009473923593759537,-0.006599545478820801
1716737728723641000,4.96764111328125,-0.009030342102050781,0.007101736962795258,-0.011473100632429123
1716737728733641200,4.97764111328125,-0.0018482208251953125,0.004665020853281021,-0.004301294684410095
1716737728743641000,4.98764111328125,-0.009030342102050781,-0.009734362363815308,-0.009062349796295166
1716737728753641200,4.99764111328125,-0.018607139587402344,0.009450741112232208,-0.009008843451738358
1716737728763641000,5.00764111328125,-0.004241943359375,-0.014476461336016655,0.007727447897195816
1716737728773641200,5.01764111328125,-0.023398399353027344,-0.004973985254764557,0.0012229271233081818
1716737728783641000,5.02764111328125,-0.013822555541992188,0.004553794860839844,0.02042711153626442
1716737728793641200,5.03764111328125,-0.018609046936035156,-0.004960682243108749,0.010395511984825134
1716737728803641000,5.04764111328125,-0.02100372314453125,-0.012105226516723633,0.0032048560678958893
1716737728813641200,5.05764111328125,-0.02100372314453125,0.01652643457055092,0.020065996795892715
1716737728823641000,5.06764111328125,-0.030577659606933594,0.0020922794938087463,0.0075880251824855804
1716737728833641200,5.07764111328125,-0.025788307189941406,-0.00028006359934806824,0.005108833312988281
1716737728843641300,5.087641357421875,-0.01620769500732422,-0.0003330819308757782,0.009186334908008575
1716737728853641200,5.09764111328125,-0.02099609375,-0.009959034621715546,0.011631164699792862
1716737728863641300,5.107641357421875,-0.009022712707519531,0.0093117356300354,-0.0007261894643306732
1716737728873641200,5.11764111328125,-0.023386001586914062,0.011727198958396912,-0.01066870242357254
1716737728883641300,5.127641357421875,-0.006627082824707031,0.014155730605125427,0.008457392454147339
1716737728893641200,5.13764111328125,-0.016202926635742188,0.016575735062360764,-0.010761942714452744
1716737728903641300,5.147641357421875,-0.013803482055664062,0.0011690929532051086,-0.030092008411884308
1716737728913641200,5.15764111328125,-0.016198158264160156,0.0054568760097026825,0.020655404776334763
1716737728923641300,5.167641357421875,-0.018591880798339844,0.0007024593651294708,-0.00810227170586586
1716737728933641200,5.17764111328125,-0.009015083312988281,0.005509898066520691,0.003864668309688568
1716737728943641300,5.187641357421875,-0.018591880798339844,0.0032007209956645966,-0.003296174108982086
1716737728953641200,5.19764111328125,-0.020987510681152344,0.005613874644041061,-0.0056943222880363464
1716737728963641300,5.207641357421875,-0.013805389404296875,-0.003942210227251053,-0.0055985599756240845
1716737728973641200,5.21764111328125,-0.013804435729980469,-0.001571420580148697,0.013540148735046387
1716737728983641300,5.227641357421875,-0.009016036987304688,0.0079585500061512,0.003933466970920563
1716737728993641200,5.23764111328125,-0.016199111938476562,-0.003985140472650528,0.003967735916376114
1716737729003641300,5.247641357421875,-0.006622314453125,0.0007608421146869659,-0.0032257959246635437
1716737729013641200,5.25764111328125,-0.22688865661621094,0.0007951483130455017,-0.0032533742487430573
1716737729023641300,5.267641357421875,0.13942527770996094,0.010329723358154297,-0.008052803575992584
1716737729033641200,5.27764111328125,-0.028167724609375,-0.008976120501756668,-0.003412216901779175
1716737729043641300,5.287641357421875,-0.05689811706542969,-0.011286649852991104,-0.008279018104076385
1716737729053641200,5.29764111328125,-0.06647586822509766,0.012806084007024765,0.008528213948011398
1716737729063641300,5.307641357421875,0.060416221618652344,0.015146620571613312,-0.0010167807340621948
1716737729073641200,5.31764111328125,0.03647613525390625,-0.011798892170190811,0.013499967753887177
1716737729083641300,5.327641357421875,-0.07126235961914062,-0.004539314657449722,0.003906384110450745
1716737729093641200,5.33764111328125,-0.06408119201660156,0.002732418477535248,-0.022388964891433716
1716737729103641300,5.347641357421875,0.041263580322265625,0.0003025643527507782,0.020634081214666367
1716737729113641200,5.35764111328125,0.04366016387939453,0.002588719129562378,-0.005739156156778336
1716737729123641300,5.367641357421875,-0.05450248718261719,-0.004555761814117432,-0.0009588412940502167
1716737729133641200,5.37764111328125,-0.06408023834228516,-0.004479363560676575,-0.0009751617908477783
1716737729143641300,5.387641357421875,0.017322540283203125,-0.0021194666624069214,0.006235022097826004
1716737729153641200,5.39764111328125,0.019718170166015625,-0.004549294710159302,-0.003414466977119446
1716737729163641300,5.407641357421875,-0.04731941223144531,0.00025420263409614563,0.0013505928218364716
1716737729173641200,5.41764111328125,-0.04971599578857422,0.009913064539432526,-0.010517563670873642
1716737729183641300,5.427641357421875,0.00774383544921875,-0.007040336728096008,0.021010104566812515
1716737729193641200,5.43764111328125,0.0269012451171875,0.002612397074699402,-0.005904335528612137
1716737729203641300,5.447641357421875,-0.04253101348876953,-0.0021609067916870117,0.006043337285518646
1716737729213641200,5.45764111328125,-0.04253101348876953,-0.0021335259079933167,0.00128917396068573
1716737729223641000,5.46764111328125,0.012536048889160156,0.014540832489728928,0.013238515704870224
1716737729233641200,5.47764111328125,0.017324447631835938,0.009648162871599197,-0.0011442862451076508
1716737729243641000,5.48764111328125,-0.04013633728027344,-0.0023584365844726562,0.003571506589651108
1716737729253641200,5.49764111328125,-0.05928993225097656,0.00006324425339698792,-0.008365396410226822
1716737729263641000,5.50764111328125,0.012536048889160156,-0.0046358369290828705,0.0012521818280220032
1716737729273641200,5.51764111328125,0.01493072509765625,-0.011796746402978897,0.003561556339263916
1716737729283641000,5.52764111328125,-0.02816486358642578,-0.01662188209593296,-0.003512907773256302
1716737729293641200,5.53764111328125,-0.06647300720214844,-0.01619773544371128,0.01068074256181717
1716737729303641000,5.54764111328125,-0.009013175964355469,-0.0012563318014144897,-0.0015951842069625854
1716737729313641200,5.55764111328125,0.010140419006347656,0.003547169268131256,0.015140887349843979
1716737729323641000,5.56764111328125,-0.02098369598388672,0.0037518665194511414,0.017089661210775375
1716737729333641200,5.57764111328125,-0.03295326232910156,-0.010579202324151993,-0.00209137424826622
1716737729343641000,5.58764111328125,-0.013799667358398438,-0.003047879785299301,-0.009609978646039963
1716737729353641200,5.59764111328125,-0.01619434356689453,0.004107147455215454,0.0023268871009349823
1716737729363641000,5.60764111328125,-0.03295326232910156,0.0017282776534557343,-0.014456048607826233
1716737729373641200,5.61764111328125,-0.032952308654785156,-0.0007508248090744019,-0.01447787880897522
1716737729383641000,5.62764111328125,-0.004221916198730469,-0.0008001923561096191,-0.009638652205467224
1716737729393641200,5.63764111328125,0.012536048889160156,0.008810952305793762,-0.012060366570949554
1716737729403641000,5.64764111328125,-0.0257720947265625,-0.01288709044456482,-0.03548825532197952
1716737729413641200,5.65764111328125,-0.03535652160644531,0.006483227014541626,0.0015216059982776642
1716737729423641000,5.66764111328125,-0.016205787658691406,0.0016272999346256256,0.004532311111688614
1716737729433641200,5.67764111328125,-0.004235267639160156,0.003991369158029556,-0.0002094469964504242
1716737729443641000,5.68764111328125,-0.03057384490966797,-0.005647722631692886,-0.004543006420135498
1716737729453641200,5.69764111328125,-0.016211509704589844,-0.010417584329843521,0.010279674082994461
1716737729463641000,5.70764111328125,-0.01621246337890625,-0.0032076574862003326,0.012708146125078201
1716737729473641200,5.71764111328125,0.01012420654296875,-0.0031799301505088806,0.00316532701253891
1716737729483641000,5.72764111328125,-0.0281829833984375,-0.012748554348945618,-0.01594981551170349
1716737729493641200,5.73764111328125,-0.025789260864257812,-0.0008008293807506561,0.003188665956258774
1716737729503641000,5.74764111328125,-0.023393630981445312,-0.0032991915941238403,0.017536312341690063
1716737729513641200,5.75764111328125,-0.025788307189941406,-0.005678143352270126,0.0031476058065891266
1716737729523641000,5.76764111328125,-0.0018453598022460938,-0.005701731890439987,-0.008838213980197906
1716737729533641200,5.77764111328125,-0.028183937072753906,0.0019728615880012512,-0.016066964715719223
1716737729543641000,5.78764111328125,-0.011424064636230469,0.001868758350610733,0.0030689015984535217
1716737729553641200,5.79764111328125,-0.004244804382324219,-0.009644277393817902,-0.0014571882784366608
1716737729563641000,5.80764111328125,-0.018610000610351562,-0.00005231425166130066,0.0009136386215686798
1716737729573641200,5.81764111328125,-0.018610000610351562,-0.014447560533881187,-0.01101084053516388
1716737729583641000,5.82764111328125,-0.016219139099121094,0.002627342939376831,0.0036073029041290283
1716737729593641200,5.83764111328125,-0.009036064147949219,0.01462608203291893,0.008429698646068573
1716737729603641000,5.84764111328125,-0.023400306701660156,0.007346317172050476,0.013138607144355774
1716737729613641200,5.85764111328125,-0.016218185424804688,-0.007110711187124252,0.005995985120534897
1716737729623641000,5.86764111328125,-0.009035110473632812,0.004937015473842621,-0.0035974644124507904
1716737729633641200,5.87764111328125,0.005330085754394531,0.007239773869514465,0.008413184434175491
1716737729643641000,5.88764111328125,-0.02100658416748047,-0.004635468125343323,0.00839262455701828
1716737729653641200,5.89764111328125,-0.011429786682128906,0.009687140583992004,0.010775987058877945
1716737729663641000,5.90764111328125,-0.023397445678710938,-0.0024512968957424164,-0.0016004666686058044
1716737729673641200,5.91764111328125,-0.0066356658935546875,-0.0026232264935970306,-0.011601556092500687
1716737729683641000,5.92764111328125,-0.013817787170410156,-0.016980290412902832,-0.0067747533321380615
1716737729693641200,5.93764111328125,-0.025789260864257812,0.007000196725130081,-0.013965688645839691
1716737729703641000,5.94764111328125,-0.009029388427734375,-0.0073499493300914764,0.0027703195810317993
1716737729713641200,5.95764111328125,-0.023398399353027344,-0.009469471871852875,0.007900606840848923
1716737729723641000,5.96764111328125,-0.006640434265136719,0.0006608180701732635,0.01264980435371399
1716737729733641200,5.97764111328125,-0.013821601867675781,0.0030150748789310455,-0.004201207309961319
1716737729743641000,5.98764111328125,-0.023398399353027344,-0.01624264568090439,0.01014624536037445
1716737729753641200,5.99764111328125,-0.021004676818847656,0.00286845862865448,0.0005586370825767517
1716737729763641000,6.00764111328125,-0.009033203125,0.014817547053098679,-0.0017505399882793427
1716737729773641200,6.01764111328125,-0.03058147430419922,-0.0019293911755084991,0.00548955425620079
1716737729783641000,6.02764111328125,-0.004246711730957031,0.0029440633952617645,-0.0040655843913555145
1716737729793641200,6.03764111328125,-0.013822555541992188,-0.0019935108721256256,-0.011195950210094452
1716737729803641000,6.04764111328125,-0.0114288330078125,0.009943503886461258,0.007984921336174011
1716737729813641200,6.05764111328125,-0.0066375732421875,-0.004886247217655182,-0.0017926469445228577
1716737729823641000,6.06764111328125,-0.013818740844726562,0.0021990500390529633,0.01967582106590271
1716737729833641200,6.07764111328125,-0.013815879821777344,-0.0026613138616085052,-0.009480457752943039
1716737729843641000,6.08764111328125,-0.016210556030273438,0.004468034952878952,0.009704675525426865
1716737729853641200,6.09764111328125,-0.018604278564453125,0.006900802254676819,-0.01185159757733345
1716737729863641000,6.10764111328125,-0.023389816284179688,0.003983180969953537,-0.01185901090502739
1716737729873641200,6.11764111328125,-0.00902557373046875,0.004021432250738144,-0.004684556275606155
1716737729883641000,6.12764111328125,-0.023390769958496094,-0.007941178977489471,0.002536330372095108
1716737729893641200,6.13764111328125,-0.011419296264648438,0.003989845514297485,0.012021481990814209
1716737729903641000,6.14764111328125,-0.02578449249267578,0.006422456353902817,0.00483056902885437
1716737729913641200,6.15764111328125,-0.004237174987792969,0.0017610862851142883,-0.0023190639913082123
1716737729923641000,6.16764111328125,-0.013813972473144531,0.0017378441989421844,-0.004728324711322784
1716737729933641200,6.17764111328125,0.0005521774291992188,0.01605665311217308,-0.007152792066335678
1716737729943641000,6.18764111328125,-0.0042362213134765625,0.006518319249153137,-0.004766922444105148
1716737729953641200,6.19764111328125,-0.01620769500732422,-0.0007042735815048218,-0.000070180743932724
1716737729963641000,6.20764111328125,-0.001842498779296875,0.00877392664551735,-0.0023628100752830505
1716737729973641200,6.21764111328125,-0.028177261352539062,0.008277222514152527,0.009815625846385956
1716737729983641000,6.22764111328125,-0.05930137634277344,0.005847584456205368,0.009742852300405502
1716737729993641200,6.23764111328125,-0.0018405914306640625,0.0010251924395561218,-0.002200894057750702
1716737730003641000,6.24764111328125,0.06280136108398438,-0.01804620772600174,0.01705539971590042
1716737730013641200,6.25764111328125,-0.059302330017089844,-0.0037112869322299957,0.00034279748797416687
1716737730023641000,6.26764111328125,-0.0712738037109375,0.003560476005077362,0.007566336542367935
1716737730033641200,6.27764111328125,-0.0042362213134765625,0.005969744175672531,-0.0163990817964077
1716737730043641000,6.28764111328125,0.019705772399902344,0.0034903623163700104,0.007521331310272217
1716737730053641200,6.29764111328125,-0.013811111450195312,0.0010562092065811157,0.017006538808345795
1716737730063641000,6.30764111328125,-0.04972267150878906,-0.015867048874497414,0.007043894380331039
1716737730073641200,6.31764111328125,0.005344390869140625,0.017679154872894287,0.007078129798173904
1716737730083641000,6.32764111328125,0.02210712432861328,-0.0017052553594112396,0.011354517191648483
1716737730093641200,6.33764111328125,-0.02098369598388672,-0.008989162743091583,0.012907899916172028
1716737730103641000,6.34764111328125,-0.042527198791503906,-0.013686548918485641,-0.006847333163022995
1716737730113641200,6.35764111328125,-0.0018253326416015625,-0.0036746039986610413,0.009416759014129639
1716737730123641000,6.36764111328125,0.019722938537597656,-0.020525779575109482,0.0022741034626960754
1716737730133641200,6.37764111328125,-0.020978927612304688,0.001379016786813736,0.00197640061378479
1716737730143641000,6.38764111328125,-0.03773784637451172,-0.010515440255403519,-0.02437630295753479
1716737730153641200,6.39764111328125,-0.011402130126953125,-0.0032945238053798676,-0.010019272565841675
1716737730163641000,6.40764111328125,0.002960205078125,0.0019268281757831573,0.004493318498134613
1716737730173641200,6.41764111328125,-0.020981788635253906,-0.007635075598955154,-0.009895138442516327
1716737730183641000,6.42764111328125,-0.03295326232910156,0.004367314279079437,0.006917901337146759
1716737730193641200,6.43764111328125,-0.013799667358398438,-0.00039377808570861816,0.0021637752652168274
1716737730203641000,6.44764111328125,0.01493072509765625,0.006748095154762268,0.00464688241481781
1716737730213641200,6.45764111328125,-0.016195297241210938,-0.007653713226318359,-0.02397545427083969
1716737730223641000,6.46764111328125,-0.049714088439941406,-0.012472052127122879,0.0024073272943496704
1716737730233641200,6.47764111328125,-0.02338123321533203,0.004734393209218979,-0.014047350734472275
1716737730243641000,6.48764111328125,0.0053501129150390625,0.0022932812571525574,0.002682209014892578
1716737730253641200,6.49764111328125,-0.020986557006835938,0.002331394702196121,0.0002799183130264282
1716737730263641000,6.50764111328125,-0.023380279541015625,0.000009644776582717896,0.0074269212782382965
1716737730273641200,6.51764111328125,-0.009016036987304688,0.004761446267366409,-0.0020417943596839905
1716737730283641000,6.52764111328125,0.000560760498046875,-0.00006949901580810547,0.007524140179157257
1716737730293641200,6.53764111328125,-0.030564308166503906,0.00229731947183609,-0.0020869001746177673
1716737730303641000,6.54764111328125,-0.016199111938476562,-0.004747074097394943,-0.004490826278924942
1716737730313641200,6.55764111328125,-0.013803482055664062,-0.009562794119119644,-0.011707700788974762
1716737730323641000,6.56764111328125,0.014926910400390625,0.0023656003177165985,0.0026466771960258484
1716737730333641200,6.57764111328125,-0.006622314453125,-0.012029774487018585,0.017058629542589188
1716737730343641000,6.58764111328125,-0.030564308166503906,0.026243343949317932,0.007509138435125351
1716737730353641200,6.59764111328125,-0.009016036987304688,0.002309665083885193,-0.011606160551309586
1716737730363641000,6.60764111328125,0.005349159240722656,0.007074631750583649,-0.011621136218309402
1716737730373641200,6.61764111328125,-0.018591880798339844,0.006624549627304077,-0.0065952204167842865
1716737730383641000,6.62764111328125,-0.020986557006835938,0.001925189048051834,0.0006283782422542572
1716737730393641200,6.63764111328125,-0.023380279541015625,-0.014876840636134148,0.0006175488233566284
1716737730403641000,6.64764111328125,0.0005617141723632812,-0.007717836648225784,-0.0017914734780788422
1716737730413641200,6.65764111328125,-0.023380279541015625,0.004206519573926926,-0.009004056453704834
1716737730423641000,6.66764111328125,-0.013803482055664062,0.0041763149201869965,0.010196246206760406
1716737730433641200,6.67764111328125,-0.018590927124023438,0.013706736266613007,0.005377583205699921
1716737730443641000,6.68764111328125,-0.011409759521484375,-0.0053576454520225525,0.014995291829109192
1716737730453641200,6.69764111328125,-0.016198158264160156,0.01142362505197525,-0.0018491074442863464
1716737730463641000,6.70764111328125,-0.01619434356689453,-0.005759257823228836,0.01222611591219902
1716737730473641200,6.71764111328125,-0.013795852661132812,0.013195008039474487,0.002190731465816498
1716737730483641000,6.72764111328125,0.0053615570068359375,0.005572054535150528,-0.012540839612483978
1716737730493641200,6.73764111328125,-0.009004592895507812,0.005603671073913574,0.004271849989891052
1716737730503641000,6.74764111328125,-0.006610870361328125,-0.015978286042809486,-0.007671739906072617
1716737730513641200,6.75764111328125,-0.004215240478515625,0.005591262131929398,0.011396940797567368
1716737730523641000,6.76764111328125,0.0005731582641601562,0.01751292496919632,-0.00770578533411026
1716737730533641200,6.77764111328125,-0.01618671417236328,0.00551171600818634,-0.014841709285974503
1716737730543641000,6.78764111328125,-0.004215240478515625,-0.004092399030923843,-0.024452783167362213
1716737730553641200,6.79764111328125,-0.0018215179443359375,-0.008861768990755081,-0.007697444409132004
1716737730563641000,6.80764111328125,0.0029659271240234375,0.0031301602721214294,0.006763424724340439
1716737730573641200,6.81764111328125,-0.01618671417236328,-0.008887171745300293,-0.0052378736436367035
1716737730583641000,6.82764111328125,-0.023369789123535156,0.007903892546892166,0.0043922774493694305
1716737730593641200,6.83764111328125,-0.0018224716186523438,0.0055370032787323,-0.005150258541107178
1716737730603641000,6.84764111328125,-0.01858234405517578,0.010402224957942963,-0.021926280111074448
1716737730613641200,6.85764111328125,-0.018583297729492188,-0.004157219082117081,0.007207375019788742
1716737730623641000,6.86764111328125,-0.0018253326416015625,-0.020827464759349823,-0.0047226957976818085
1716737730633641200,6.87764111328125,-0.011401176452636719,-0.011284999549388885,0.00967002660036087
1716737730643641000,6.88764111328125,-0.0066127777099609375,0.003095541149377823,0.002463884651660919
1716737730653641200,6.89764111328125,-0.020978927612304688,0.01749223843216896,0.007305793464183807
1716737730663641000,6.90764111328125,-0.0018262863159179688,0.003196820616722107,0.009745169430971146
1716737730673641200,6.91764111328125,-0.00421905517578125,-0.011208310723304749,-0.002317536622285843
1716737730683641000,6.92764111328125,0.0053577423095703125,-0.001661345362663269,-0.0022711120545864105
1716737730693641200,6.93764111328125,-0.00421905517578125,0.0035417452454566956,0.004601288586854935
1716737730703641000,6.94764111328125,-0.006613731384277344,0.008464287966489792,-0.007398650050163269
1716737730713641200,6.95764111328125,-0.00421905517578125,0.013267789036035538,-0.009816192090511322
1716737730723641000,6.96764111328125,0.0029630661010742188,0.015638388693332672,-0.005042601376771927
1716737730733641200,6.97764111328125,-0.02097797393798828,0.00560716912150383,-0.002429977059364319
1716737730743641000,6.98764111328125,-0.0066127777099609375,0.012366820126771927,0.01460130512714386
1716737730753641200,6.99764111328125,0.0029659271240234375,-0.012140903621912003,0.005006100982427597
1716737730763641000,7.00764111328125,-0.013792037963867188,0.021350540220737457,-0.009393349289894104
1716737730773641200,7.01764111328125,-0.006608009338378906,0.0017392896115779877,0.009778805077075958
1716737730783641000,7.02764111328125,-0.008998870849609375,0.0012103132903575897,0.002469666302204132
1716737730793641200,7.03764111328125,0.002971649169921875,0.010746225714683533,0.007347125560045242
1716737730803641000,7.04764111328125,-0.018571853637695312,-0.013764556497335434,-0.004842333495616913
1716737730813641200,7.05764111328125,-0.006600379943847656,-0.0018855035305023193,-0.0024080760776996613
1716737730823641000,7.06764111328125,0.0005826950073242188,0.0005362071096897125,-0.0191333144903183
1716737730833641200,7.07764111328125,-0.011388778686523438,-0.009083215147256851,-0.007173135876655579
1716737730843641000,7.08764111328125,-0.0018157958984375,0.017398878931999207,0.010076567530632019
1716737730853641200,7.09764111328125,-0.013787269592285156,-0.0017849281430244446,-0.011424563825130463
1716737730863641000,7.10764111328125,0.005367279052734375,0.01498958095908165,-0.011447902768850327
1716737730873641200,7.11764111328125,-0.0018167495727539062,-0.00924387201666832,-0.018306732177734375
1716737730883641000,7.12764111328125,-0.011396408081054688,-0.009373191744089127,-0.008120130747556686
1716737730893641200,7.13764111328125,0.0005702972412109375,-0.011687152087688446,-0.0337110236287117
1716737730903641000,7.14764111328125,0.03647613525390625,-0.0019296854734420776,-0.0183212012052536
1716737730913641200,7.15764111328125,-0.013806343078613281,-0.0017695464193820953,-0.012604199349880219
1716737730923641000,7.16764111328125,-0.040149688720703125,0.0031684190034866333,-0.006845001131296158
1716737730933641200,7.17764111328125,-0.0066356658935546875,0.00556148961186409,-0.01789296790957451
1716737730943641000,7.18764111328125,0.026880264282226562,0.012643866240978241,0.002004578709602356
1716737730953641200,7.19764111328125,-0.013823509216308594,0.007666129618883133,0.012284357100725174
1716737730963641000,7.20764111328125,-0.028189659118652344,0.012077361345291138,0.00797848030924797
1716737730973641200,7.21764111328125,-0.006640434265136719,-0.012367207556962967,0.032008860260248184
1716737730983641000,7.22764111328125,0.017303466796875,-0.005207262933254242,0.01956121250987053
1716737730993641200,7.23764111328125,-0.013817787170410156,-0.005295604467391968,0.004693362861871719
1716737731003641000,7.24764111328125,-0.03775596618652344,-0.010018758475780487,0.001763220876455307
1716737731013641200,7.25764111328125,-0.006630897521972656,-0.00014552101492881775,0.008460544049739838
1716737731023641000,7.26764111328125,0.022101402282714844,0.00017813965678215027,-0.023396076634526253
1716737731033641200,7.27764111328125,-0.018599510192871094,-0.014233563095331192,-0.00427260622382164
1716737731043641000,7.28764111328125,-0.04014778137207031,0.00010159984230995178,0.022110138088464737
1716737731053641200,7.29764111328125,0.0005550384521484375,0.00000951811671257019,0.0029967501759529114
1716737731063641000,7.30764111328125,0.0101318359375,0.000024434179067611694,-0.004209093749523163
1716737731073641200,7.31764111328125,-0.016204833984375,-0.007138751447200775,0.0029692314565181732
1716737731083641000,7.32764111328125,-0.03057098388671875,-0.004223093390464783,-0.0021926574409008026
1716737731093641200,7.33764111328125,-0.0186004638671875,0.008149072527885437,-0.0071679651737213135
1716737731103641000,7.34764111328125,0.010130882263183594,0.008106466382741928,-0.0023903921246528625
1716737731113641200,7.35764111328125,-0.020994186401367188,0.005689229816198349,0.004776939749717712
1716737731123641000,7.36764111328125,-0.018599510192871094,-0.003921575844287872,-0.007166821509599686
1716737731133641200,7.37764111328125,0.000553131103515625,0.003211516886949539,0.012037776410579681
1716737731143641000,7.38764111328125,0.010130882263183594,0.00803418830037117,0.016798701137304306
1716737731153641200,7.39764111328125,0.0005540847778320312,0.010443363338708878,0.004804421216249466
1716737731163641000,7.40764111328125,-0.0186004638671875,-0.006284404546022415,0.016828779131174088
1716737731173641200,7.41764111328125,-0.006626129150390625,0.0007864125072956085,0.0067344605922698975
1716737731183641000,7.42764111328125,-0.009016036987304688,0.000547211617231369,-0.0033926479518413544
1716737731193641200,7.43764111328125,-0.018593788146972656,0.005367252975702286,0.003843303769826889
1716737731203641000,7.44764111328125,-0.013805389404296875,-0.006576426327228546,0.006271783262491226
1716737731213641200,7.45764111328125,-0.01620006561279297,0.0054031312465667725,0.01588669791817665
1716737731223641000,7.46764111328125,-0.02337932586669922,-0.013859495520591736,-0.0038654208183288574
1716737731233641200,7.47764111328125,-0.004222869873046875,-0.011368665844202042,0.0028348304331302643
1716737731243641000,7.48764111328125,-0.025771141052246094,-0.004116039723157883,-0.004302803426980972
1716737731253641200,7.49764111328125,-0.006617546081542969,-0.018517060205340385,-0.001981019973754883
1716737731263641000,7.50764111328125,0.007747650146484375,0.005397576838731766,0.01234995573759079
1716737731273641200,7.51764111328125,-0.01858806610107422,-0.003856401890516281,-0.0046797506511211395
1716737731283641000,7.52764111328125,-0.025771141052246094,0.0013697966933250427,-0.033705249428749084
1716737731293641200,7.53764111328125,-0.01858806610107422,-0.005836140364408493,0.023740656673908234
1716737731303641000,7.54764111328125,-0.009014129638671875,0.006730929017066956,-0.002624012529850006
1716737731313641200,7.55764111328125,-0.0042247772216796875,0.0018532946705818176,-0.009847521781921387
1716737731323641000,7.56764111328125,-0.025774002075195312,-0.0028462298214435577,-0.005017951130867004
1716737731333641200,7.57764111328125,-0.025774002075195312,0.0044127777218818665,-0.012216873466968536
1716737731343641000,7.58764111328125,-0.009014129638671875,-0.0027507804334163666,-0.002644132822751999
1716737731353641200,7.59764111328125,-0.025774002075195312,0.0020104609429836273,-0.01704378053545952
1716737731363641000,7.60764111328125,-0.011408805847167969,-0.002820514142513275,0.006887465715408325
1716737731373641200,7.61764111328125,-0.01380157470703125,0.011504899710416794,0.004401516169309616
1716737731383641000,7.62764111328125,0.005351066589355469,-0.00522981584072113,0.01648760959506035
1716737731393641200,7.63764111328125,-0.011408805847167969,-0.012384850531816483,0.01173335686326027
1716737731403641000,7.64764111328125,-0.011408805847167969,-0.00008017942309379578,-0.007732998579740524
1716737731413641200,7.65764111328125,-0.004225730895996094,0.007055681198835373,-0.014945607632398605
1716737731423641000,7.66764111328125,-0.006618499755859375,-0.0026059597730636597,-0.0006022602319717407
1716737731433641200,7.67764111328125,-0.020984649658203125,-0.0025870762765407562,0.008970636874437332
1716737731443641000,7.68764111328125,-0.02098369598388672,-0.0026210620999336243,-0.012549921870231628
1716737731453641200,7.69764111328125,-0.02098369598388672,-0.014572765678167343,-0.0005831196904182434
1716737731463641000,7.70764111328125,-0.011406898498535156,0.0020910054445266724,0.013802576810121536
1716737731473641200,7.71764111328125,0.0005626678466796875,0.0046361833810806274,-0.007697708904743195
1716737731483641000,7.72764111328125,-0.016196250915527344,-0.002582203596830368,-0.010164424777030945
1716737731493641200,7.73764111328125,-0.009013175964355469,0.006941128522157669,0.018597714602947235
1716737731503641000,7.74764111328125,-0.013799667358398438,-0.0049824900925159454,0.008589301258325577
1716737731513641200,7.75764111328125,-0.013799667358398438,-0.0074111223220825195,-0.01771927997469902
1716737731523641000,7.76764111328125,-0.020981788635253906,-0.007496055215597153,0.006200846284627914
1716737731533641200,7.77764111328125,-0.004223823547363281,0.00011388957500457764,-0.0081360824406147
1716737731543641000,7.78764111328125,-0.009012222290039062,0.00009051337838172913,0.008608322590589523
1716737731553641200,7.79764111328125,-0.009012222290039062,-0.009458780288696289,0.008642498403787613
1716737731563641000,7.80764111328125,-0.011407852172851562,-0.006994623690843582,-0.0008892975747585297
1716737731573641200,7.81764111328125,-0.009014129638671875,0.012561377137899399,0.00620662048459053
1716737731583641000,7.82764111328125,-0.01619720458984375,0.007749564945697784,-0.005779296159744263
1716737731593641200,7.83764111328125,-0.02098560333251953,0.00047495216131210327,0.0014433935284614563
1716737731603641000,7.84764111328125,-0.018590927124023438,0.007679451256990433,0.01572350785136223
1716737731613641200,7.85764111328125,-0.013802528381347656,-0.0018891841173171997,0.006185177713632584
1716737731623641000,7.86764111328125,-0.011408805847167969,-0.0019124597311019897,-0.005800966173410416
1716737731633641200,7.87764111328125,-0.011408805847167969,0.0005583986639976501,-0.015394218266010284
1716737731643641000,7.88764111328125,-0.016196250915527344,0.005368303507566452,-0.008296355605125427
1716737731653641200,7.89764111328125,-0.028167724609375,-0.009284041821956635,0.01359424740076065
1716737731663641000,7.90764111328125,-0.0066204071044921875,0.002782728523015976,-0.01036832481622696
1716737731673641200,7.91764111328125,-0.013803482055664062,0.007541004568338394,0.008831936866044998
1716737731683641000,7.92764111328125,-0.013802528381347656,0.012282691895961761,0.001619391143321991
1716737731693641200,7.93764111328125,-0.018590927124023438,-0.0021251291036605835,0.008791159838438034
1716737731703641000,7.94764111328125,-0.011408805847167969,-0.009273592382669449,0.02312895655632019
1716737731713641200,7.95764111328125,-0.009012222290039062,0.0026190578937530518,-0.020331062376499176
1716737731723641000,7.96764111328125,-0.023377418518066406,-0.011711910367012024,0.001189209520816803
1716737731733641200,7.97764111328125,-0.02098369598388672,0.007411409169435501,-0.0035523809492588043
1716737731743641000,7.98764111328125,-0.016195297241210938,0.00024390220642089844,-0.005969922989606857
1716737731753641200,7.99764111328125,-0.02337646484375,0.00972886011004448,0.0060410089790821075
1716737731763641000,8.00764111328125,-0.013799667358398438,-0.01420510932803154,-0.0034972652792930603
1716737731773641200,8.01764111328125,-0.02098369598388672,-0.004658307880163193,0.006126128137111664
1716737731783641000,8.02764111328125,-0.018589019775390625,0.007401864975690842,-0.008198149502277374
1716737731793641200,8.03764111328125,-0.013800621032714844,-0.002147398889064789,0.008595336228609085
1716737731803641000,8.04764111328125,-0.013800621032714844,0.012239668518304825,-0.0034606605768203735
1716737731813641200,8.05764111328125,-0.016195297241210938,-0.006956521421670914,0.0061053745448589325
1716737731823641000,8.06764111328125,-0.023377418518066406,-0.011729955673217773,0.015658900141716003
1716737731833641200,8.07764111328125,-0.023377418518066406,0.005063887685537338,-0.015493355691432953
1716737731843641300,8.087641357421875,-0.004223823547363281,0.005091208964586258,0.006088726222515106
1716737731853641200,8.09764111328125,-0.028165817260742188,0.0003220401704311371,-0.0010980479419231415
1716737731863641300,8.107641357421874,-0.016195297241210938,0.005132175981998444,-0.017942383885383606
1716737731873641200,8.11764111328125,-0.013799667358398438,0.026708438992500305,0.010641548782587051
1716737731883641300,8.127641357421876,-0.013799667358398438,0.026659231632947922,0.010692212730646133
1716737731893641200,8.13764111328125,-0.018585205078125,0.009443391114473343,-0.0038352496922016144
1716737731903641000,8.14764111328125,0.026903152465820312,-0.007188864052295685,-0.010984938591718674
1716737731913641200,8.15764111328125,-0.016191482543945312,0.021512653678655624,0.0032460354268550873
1716737731923641000,8.16764111328125,-0.06646728515625,0.013885192573070526,0.005716037005186081
1716737731933641200,8.17764111328125,-0.02815723419189453,-0.010569285601377487,0.008060336112976074
1716737731943641000,8.18764111328125,0.02212047576904297,-0.0010281354188919067,-0.006377454847097397
1716737731953641200,8.19764111328125,0.0029668807983398438,-0.0010748840868473053,-0.01598425954580307
1716737731963641000,8.20764111328125,-0.04012870788574219,-0.003492269665002823,-0.011210955679416656
1716737731973641200,8.21764111328125,-0.023367881774902344,0.0012428201735019684,0.010368406772613525
1716737731983641000,8.22764111328125,0.014939308166503906,-0.0011748149991035461,-0.006405971944332123
1716737731993641200,8.23764111328125,-0.018579483032226562,-0.005954816937446594,-0.008761901408433914
1716737732003641000,8.24764111328125,-0.042525291442871094,-0.01074252650141716,0.006165016442537308
1716737732013641200,8.25764111328125,-0.011401176452636719,-0.0011342279613018036,0.008612722158432007
1716737732023641000,8.26764111328125,0.007752418518066406,0.0012257955968379974,-0.008119340986013412
1716737732033641200,8.27764111328125,-0.018583297729492188,-0.010730046778917313,0.003828294575214386
1716737732043641000,8.28764111328125,-0.02816009521484375,-0.008366044610738754,-0.0033076219260692596
1716737732053641200,8.29764111328125,-0.011402130126953125,0.0036939680576324463,-0.008054934442043304
1716737732063641000,8.30764111328125,-0.011402130126953125,-0.008319582790136337,-0.0032773874700069427
1716737732073641200,8.31764111328125,-0.013798713684082031,0.0017563216388225555,-0.005498550832271576
1716737732083641000,8.32764111328125,-0.025770187377929688,-0.012600738555192947,-0.02221955731511116
1716737732093641200,8.33764111328125,-0.013803482055664062,0.004513148218393326,0.011824540793895721
1716737732103641000,8.34764111328125,-0.013803482055664062,-0.02418300323188305,-0.00975075364112854
1716737732113642200,8.357642333984375,-0.01859569549560547,-0.009394027292728424,0.004904218018054962
1716737732123642400,8.367642333984374,-0.03775310516357422,0.0175454244017601,0.012277524918317795
1716737732133642200,8.377642333984374,-0.011419296264648438,0.0060496702790260315,-0.004604626446962357
1716737732143642400,8.387642333984376,-0.004235267639160156,0.013197973370552063,-0.009365450590848923
1716737732153642200,8.397642333984376,-0.01620769500732422,-0.008706718683242798,0.007691539824008942
1716737732163642400,8.407642333984375,-0.02817821502685547,0.0032465681433677673,0.010189902037382126
1716737732173642200,8.417642333984375,-0.009024620056152344,0.010382618755102158,-0.001811198890209198
1716737732183642400,8.427642333984375,-0.016204833984375,-0.0019172802567481995,-0.00912349671125412
1716737732193642200,8.437642333984375,-0.009021759033203125,-0.0067522041499614716,-0.009153693914413452
1716737732203642400,8.447642333984374,-0.02817821502685547,-0.004258647561073303,-0.0015109963715076447
1716737732213642200,8.457642333984374,-0.006630897521972656,-0.004301059991121292,-0.001521926373243332
1716737732223642400,8.467642333984376,-0.013813018798828125,0.007697269320487976,0.0056949518620967865
1716737732233642200,8.477642333984376,-0.018601417541503906,0.00046140700578689575,0.010514870285987854
1716737732243642400,8.487642333984375,-0.023390769958496094,0.0004985183477401733,-0.0156487338244915
1716737732253642200,8.497642333984375,-0.018602371215820312,-0.01144513487815857,0.008327614516019821
1716737732263642400,8.507642333984375,-0.020997047424316406,-0.006705880165100098,-0.0059869661927223206
1716737732273642200,8.517642333984375,-0.013813972473144531,-0.006684020161628723,0.0011106431484222412
1716737732283642400,8.527642333984375,-0.040152549743652344,0.0008768327534198761,0.010766319930553436
1716737732293642200,8.537642333984374,-0.030577659606933594,0.010542672127485275,0.003624711185693741
1716737732303642400,8.547642333984374,-0.009029388427734375,0.0010551847517490387,0.0036654919385910034
1716737732313642200,8.557642333984376,-0.018606185913085938,0.013041447848081589,-0.005934815853834152
1716737732323642400,8.567642333984375,-0.030577659606933594,-0.00608459860086441,0.013252943754196167
1716737732333642200,8.577642333984375,-0.02100086212158203,0.003513108938932419,-0.015381809324026108
1716737732343642400,8.587642333984375,0.0029430389404296875,0.0005723722279071808,-0.0034333355724811554
1716737732353642200,8.597642333984375,-0.025788307189941406,0.007824931293725967,-0.012965131551027298
1716737732363642400,8.607642333984375,-0.018604278564453125,0.005464904010295868,-0.012992486357688904
1716737732373642200,8.617642333984374,-0.023393630981445312,0.0003852173686027527,-0.0006978698074817657
1716737732383642400,8.627642333984374,-0.011423110961914062,0.014765527099370956,-0.0031154118478298187
1716737732393642200,8.637642333984376,-0.028182029724121094,-0.0211775079369545,-0.0150398388504982
1716737732403642400,8.647642333984376,-0.016214370727539062,0.009967360645532608,-0.004905760288238525
1716737732413641200,8.65764111328125,-0.02579212188720703,-0.0043896958231925964,0.009497858583927155
1716737732423641000,8.66764111328125,-0.01621532440185547,-0.0019570887088775635,0.016672156751155853
1716737732433641200,8.67764111328125,-0.023397445678710938,0.0004030279815196991,0.0047285296022892
1716737732443641000,8.68764111328125,-0.013819694519042969,-0.0020268335938453674,0.021415360271930695
1716737732453641200,8.69764111328125,-0.02100086212158203,0.0027348659932613373,0.008948411792516708
1716737732463641000,8.70764111328125,-0.018604278564453125,-0.004544984549283981,-0.003101971000432968
1716737732473641200,8.71764111328125,-0.016208648681640625,-0.002115987241268158,0.008380014449357986
1716737732483641000,8.72764111328125,-0.023387908935546875,0.007453322410583496,-0.0016968026757240295
1716737732493641200,8.73764111328125,-0.011414527893066406,0.0002100616693496704,-0.002165433019399643
1716737732503641000,8.74764111328125,-0.02099132537841797,-0.014127641916275024,0.007445547729730606
1716737732513641200,8.75764111328125,-0.006625175476074219,0.00048628076910972595,-0.004859991371631622
1716737732523641000,8.76764111328125,-0.013806343078613281,-0.001954253762960434,-0.0024960823357105255
1716737732533641200,8.77764111328125,-0.03296089172363281,0.005256015807390213,-0.007250476628541946
1716737732543641000,8.78764111328125,-0.020989418029785156,-0.006757404655218124,-0.00007880106568336487
1716737732553641200,8.79764111328125,-0.02817249298095703,0.01235949620604515,0.012000415474176407
1716737732563641000,8.80764111328125,-0.030564308166503906,0.007369261234998703,0.014016788452863693
1716737732573641200,8.81764111328125,-0.028165817260742188,0.009544890373945236,-0.007985446602106094
1716737732583641000,8.82764111328125,-0.02098369598388672,-0.002456061542034149,0.02079152688384056
1716737732593641200,8.83764111328125,-0.011406898498535156,0.0047485679388046265,-0.015206649899482727
1716737732603641300,8.847641357421875,-0.0257720947265625,0.009564287960529327,0.0015870369970798492
1716737732613641200,8.85764111328125,-0.01619243621826172,0.0067330002784729,0.0038146600127220154
1716737732623641300,8.867641357421874,-0.013792991638183594,-0.01303611695766449,-0.006010465323925018
1716737732633641200,8.87764111328125,-0.01858234405517578,-0.003489512950181961,0.0036130286753177643
1716737732643641000,8.88764111328125,-0.011401176452636719,0.010952450335025787,0.010779056698083878
1716737732653641200,8.89764111328125,-0.02576446533203125,0.0013482943177223206,-0.006014697253704071
1716737732663641000,8.90764111328125,-0.0137939453125,-0.00342763215303421,0.0036195889115333557
1716737732673641200,8.91764111328125,-0.025766372680664062,-0.015371322631835938,0.0012596622109413147
1716737732683641000,8.92764111328125,-0.02337169647216797,-0.020083069801330566,0.010820023715496063
1716737732693641200,8.93764111328125,-0.009006500244140625,0.003831367939710617,0.01078588142991066
1716737732703641000,8.94764111328125,-0.020977020263671875,-0.01050800085067749,-0.006039191037416458
1716737732713641200,8.95764111328125,-0.01858234405517578,-0.0030023977160453796,-0.008703839033842087
1716737732723641000,8.96764111328125,-0.025765419006347656,0.004131030291318893,-0.001470513641834259
1716737732733641200,8.97764111328125,-0.011400222778320312,-0.010199908167123795,0.0008962154388427734
1716737732743641000,8.98764111328125,-0.018585205078125,0.009560547769069672,0.0008253715932369232
1716737732753641200,8.99764111328125,-0.02337360382080078,-0.004776995629072189,-0.008717425167560577
1716737732763641000,9.00764111328125,-0.03534507751464844,-0.00481940433382988,-0.011122554540634155
1716737732773641200,9.01764111328125,-0.030556678771972656,0.01201646402478218,-0.0015620999038219452
1716737732783641000,9.02764111328125,-0.011404037475585938,-0.011898208409547806,0.008049041032791138
1716737732793641200,9.03764111328125,-0.035346031188964844,0.004950173199176788,-0.0062751322984695435
1716737732803641000,9.04764111328125,-0.023375511169433594,0.009759195148944855,0.003397572785615921
1716737732813641200,9.05764111328125,-0.0209808349609375,0.0049285367131233215,-0.0061903297901153564
1716737732823641000,9.06764111328125,-0.02816295623779297,-0.004676003009080887,-0.013406913727521896
1716737732833641200,9.07764111328125,-0.0209808349609375,-0.002324383705854416,-0.006235077977180481
1716737732843641300,9.087641357421875,-0.023377418518066406,0.00007484108209609985,-0.029596421867609024
1716737732853641200,9.09764111328125,-0.013803482055664062,-0.009544942528009415,0.004372946918010712
1716737732863641300,9.107641357421874,-0.016202926635742188,0.009821765124797821,-0.004587601870298386
1716737732873641200,9.11764111328125,-0.016202926635742188,0.005067601799964905,-0.009403541684150696
1716737732883641300,9.127641357421876,-0.02099323272705078,-0.01179688423871994,-0.0017767660319805145
1716737732893641200,9.13764111328125,-0.02099323272705078,-0.006981126964092255,-0.0017424263060092926
1716737732903641000,9.14764111328125,-0.030572891235351562,0.01229509711265564,-0.0012673623859882355
1716737732913641200,9.15764111328125,-0.013813018798828125,-0.006843511015176773,-0.0012905783951282501
1716737732923641000,9.16764111328125,-0.018602371215820312,0.01712598279118538,-0.010833274573087692
1716737732933641200,9.17764111328125,-0.03296852111816406,-0.014271844178438187,-0.012727126479148865
1716737732943641000,9.18764111328125,-0.016214370727539062,0.007333230227231979,0.004762299358844757
1716737732953641200,9.19764111328125,-0.03536701202392578,-0.002228453755378723,0.0023446567356586456
1716737732963641300,9.207641357421876,-0.032973289489746094,0.007318191230297089,0.011968206614255905
1716737732973641200,9.21764111328125,-0.018607139587402344,-0.011869899928569794,0.00960167869925499
1716737732983641300,9.227641357421875,-0.006636619567871094,0.004860647022724152,-0.002503659576177597
1716737732993641200,9.23764111328125,-0.018607139587402344,-0.002420388162136078,0.019145626574754715
1716737733003641300,9.247641357421875,-0.02099895477294922,0.007221482694149017,0.011427290737628937
1716737733013641200,9.25764111328125,-0.020997047424316406,-0.00008207559585571289,0.013446260243654251
1716737733023641300,9.267641357421875,-0.023387908935546875,0.011848747730255127,0.005891080945730209
1716737733033641200,9.27764111328125,-0.023383140563964844,-0.014707393944263458,0.007730711251497269
1716737733043641300,9.287641357421874,-0.01859283447265625,0.004564374685287476,-0.000018984079360961914
1716737733053641200,9.29764111328125,-0.02338123321533203,-0.0026032887399196625,0.004746247082948685
1716737733063641000,9.30764111328125,-0.01620006561279297,0.0021549202501773834,0.0023987218737602234
1716737733073641200,9.31764111328125,-0.02337932586669922,-0.0026478320360183716,0.006748899817466736
1716737733083641000,9.32764111328125,-0.025771141052246094,-0.0027688778936862946,0.020738836377859116
1716737733093641200,9.33764111328125,-0.013795852661132812,-0.005195159465074539,-0.011001024395227432
1716737733103641300,9.347641357421875,-0.025765419006347656,-0.0026386864483356476,-0.011457275599241257
1716737733113641200,9.35764111328125,-0.0137939453125,0.0068955086171627045,0.0005028955638408661
1716737733123641300,9.367641357421874,-0.013792991638183594,0.002141084522008896,0.017235059291124344
1716737733133641200,9.37764111328125,-0.018581390380859375,-0.014729157090187073,-0.004268798977136612
1716737733143641000,9.38764111328125,-0.011399269104003906,0.004394255578517914,-0.011404726654291153
1716737733153641200,9.39764111328125,-0.02576446533203125,0.004347603768110275,-0.013828892260789871
1716737733163641000,9.40764111328125,-0.10477638244628906,-0.0027281753718852997,0.008397851139307022
1716737733173641200,9.41764111328125,0.04845142364501953,0.0069253891706466675,-0.01077233999967575
1716737733183641000,9.42764111328125,-0.013797760009765625,-0.00519498810172081,-0.008325811475515366
1716737733193641200,9.43764111328125,-0.07844161987304688,-0.009836841374635696,0.003673795610666275
1716737733203641000,9.44764111328125,-0.08083534240722656,0.0020972341299057007,0.0061763860285282135
1716737733213641200,9.45764111328125,0.019721031188964844,-0.00513191893696785,-0.01061311736702919
1716737733223641000,9.46764111328125,0.007746696472167969,-0.007287297397851944,-0.003161124885082245
1716737733233641200,9.47764111328125,-0.056899070739746094,0.009810905903577805,-0.007681556046009064
1716737733243641000,9.48764111328125,-0.04732227325439453,-0.016499312594532967,0.006617836654186249
1716737733253641200,9.49764111328125,0.0005617141723632812,0.009809747338294983,0.006583403795957565
1716737733263641000,9.50764111328125,0.01013946533203125,-0.009322036057710648,0.02086355909705162
1716737733273641200,9.51764111328125,-0.03774452209472656,0.0074564553797245026,0.0017059370875358582
1716737733283641000,9.52764111328125,-0.059294700622558594,-0.011614598333835602,0.0018083751201629639
1716737733293641200,9.53764111328125,0.0005617141723632812,-0.011592671275138855,-0.007853463292121887
1716737733303641000,9.54764111328125,0.02929210662841797,-0.002043444663286209,-0.0054934062063694
1716737733313641200,9.55764111328125,-0.049716949462890625,-0.013995405286550522,0.00647353008389473
1716737733323641000,9.56764111328125,-0.04732227325439453,-0.023537876084446907,-0.010313387960195541
1716737733333641200,9.57764111328125,0.010135650634765625,0.0034068189561367035,-0.007890094071626663
1716737733343641000,9.58764111328125,0.022106170654296875,0.017787128686904907,0.004057575017213821
1716737733353641200,9.59764111328125,-0.04493522644042969,0.006319057196378708,0.001855846494436264
1716737733363641000,9.60764111328125,-0.047328948974609375,0.0015649236738681793,0.011405184864997864
1716737733373641200,9.61764111328125,-0.0066242218017578125,0.0014805607497692108,-0.010626010596752167
1716737733383641000,9.62764111328125,-0.011412620544433594,-0.008181240409612656,-0.0034651048481464386
1716737733393641200,9.63764111328125,-0.04253673553466797,-0.01295473799109459,-0.0010941550135612488
1716737733403641000,9.64764111328125,-0.030569076538085938,0.018596261739730835,0.006297413259744644
1716737733413641200,9.65764111328125,-0.009019851684570312,0.004190973937511444,0.0157826766371727
1716737733423641000,9.66764111328125,0.010133743286132812,-0.0221878532320261,0.0038008354604244232
1716737733433641200,9.67764111328125,-0.025778770446777344,0.013683080673217773,0.001395389437675476
1716737733443641000,9.68764111328125,-0.042537689208984375,-0.0031038112938404083,-0.0082155242562294
1716737733453641200,9.69764111328125,-0.009018898010253906,0.006500311195850372,-0.0009986571967601776
1716737733463641000,9.70764111328125,-0.011414527893066406,-0.010246623307466507,-0.0009411685168743134
1716737733473641200,9.71764111328125,-0.028173446655273438,-0.0030911751091480255,0.018178019672632217
1716737733483641000,9.72764111328125,-0.02577972412109375,-0.005522143095731735,-0.0008673593401908875
1716737733493641200,9.73764111328125,-0.013808250427246094,-0.005556482821702957,0.008736956864595413
1716737733503641000,9.74764111328125,-0.01859569549560547,0.0015286244451999664,0.020628713071346283
1716737733513641200,9.75764111328125,-0.035353660583496094,-0.0006728395819664001,-0.010999135673046112
1716737733523641000,9.76764111328125,-0.03535270690917969,0.0064250268042087555,-0.013415321707725525
1716737733533641200,9.77764111328125,-0.004227638244628906,-0.0008040666580200195,-0.0038686469197273254
1716737733543641000,9.78764111328125,-0.016199111938476562,-0.012747563421726227,0.008136536926031113
1716737733553641200,9.79764111328125,-0.032958984375,-0.00033309683203697205,-0.006404571235179901
1716737733563641000,9.80764111328125,-0.04493141174316406,0.009213767945766449,-0.006358008831739426
1716737733573641200,9.81764111328125,-0.02098846435546875,0.0019274204969406128,0.015171796083450317
1716737733583641000,9.82764111328125,-0.009016990661621094,0.00434928759932518,0.008023213595151901
1716737733593641200,9.83764111328125,-0.023382186889648438,0.004364393651485443,-0.003971129655838013
1716737733603641000,9.84764111328125,-0.03774833679199219,-0.005116775631904602,-0.006385825574398041
1716737733613641200,9.85764111328125,-0.02098846435546875,0.004475124180316925,0.0031676441431045532
1716737733623641000,9.86764111328125,-0.020989418029785156,0.0068393275141716,0.010396834462881088
1716737733633641200,9.87764111328125,-0.013805389404296875,-0.0003901273012161255,-0.013575073331594467
1716737733643641000,9.88764111328125,-0.02338123321533203,0.03309301286935806,-0.004070911556482315
1716737733653641000,9.897640869140625,-0.018591880798339844,0.011091895401477814,-0.02558114379644394
1716737733663641000,9.90764111328125,-0.0305633544921875,-0.008457280695438385,0.0010612159967422485
1716737733673641000,9.917640869140625,-0.0305633544921875,-0.01832134649157524,0.0014041028916835785
1716737733683641000,9.92764111328125,-0.025777816772460938,-0.008768513798713684,0.006639078259468079
1716737733693641000,9.937640869140624,-0.0066242218017578125,0.007960859686136246,-0.0028912052512168884
1716737733703641000,9.94764111328125,-0.0066242218017578125,-0.006446763873100281,-0.007690541446208954
1716737733713641000,9.957640869140626,-0.02577686309814453,0.0031027235090732574,0.0042461976408958435
1716737733723641000,9.96764111328125,-0.032959938049316406,0.0006713978946208954,0.0163256898522377
1716737733733641000,9.977640869140625,-0.013806343078613281,-0.008939586579799652,-0.0028005726635456085
1716737733743641000,9.98764111328125,-0.011412620544433594,-0.001855693757534027,-0.009881477802991867
1716737733753641000,9.997640869140625,-0.011412620544433594,0.0077486224472522736,0.002123706042766571
1716737733763641000,10.00764111328125,-0.028171539306640625,-0.0018640272319316864,-0.007525593042373657
1716737733773641000,10.017640869140624,-0.023382186889648438,-0.004300583153963089,0.0020402520895004272
1716737733783641000,10.02764111328125,-0.02577972412109375,-0.003995999693870544,-0.002452712506055832
1716737733793641000,10.037640869140626,-0.030569076538085938,-0.0064241923391819,-0.004819661378860474
1716737733803641000,10.04764111328125,-0.020992279052734375,0.0007286258041858673,-0.002379070967435837
1716737733813641000,10.057640869140625,-0.023386001586914062,0.005544532090425491,0.007231906056404114
1716737733823641000,10.06764111328125,-0.013810157775878906,-0.0016748793423175812,0.004945877939462662
1716737733833641000,10.077640869140625,-0.02099323272705078,0.012705150991678238,0.002528563141822815
1716737733843641000,10.08764111328125,-0.030570030212402344,0.0006915666162967682,0.007306195795536041
1716737733853641200,10.09764111328125,-0.009021759033203125,-0.013639561831951141,-0.004692196846008301
1716737733863641000,10.10764111328125,-0.004233360290527344,-0.003986004739999771,-0.004708770662546158
1716737733873641200,10.11764111328125,-0.023386001586914062,-0.004013318568468094,-0.0047430433332920074
1716737733883641000,10.12764111328125,-0.02817821502685547,0.013210773468017578,0.007428597658872604
1716737733893641200,10.13764111328125,-0.02099323272705078,0.005647189915180206,0.004755284637212753
1716737733903641000,10.14764111328125,-0.0090179443359375,-0.011497430503368378,-0.00751388818025589
1716737733913641200,10.15764111328125,-0.023383140563964844,-0.011534042656421661,0.011747799813747406
1716737733923641000,10.16764111328125,-0.03056621551513672,-0.00439385324716568,0.00455426424741745
1716737733933641200,10.17764111328125,-0.018594741821289062,0.005590952932834625,0.0019114948809146881
1716737733943641000,10.18764111328125,-0.011411666870117188,0.0010922513902187347,0.0038820914924144745
1716737733953641200,10.19764111328125,-0.02817058563232422,0.010638918727636337,-0.0008596703410148621
1716737733963641000,10.20764111328125,-0.02817058563232422,0.017843227833509445,0.0038439035415649414
1716737733973641200,10.21764111328125,-0.02098560333251953,0.0006782561540603638,0.00373072549700737
1716737733983641000,10.22764111328125,-0.016198158264160156,-0.0017076432704925537,0.013345781713724136
1716737733993641200,10.23764111328125,-0.016193389892578125,-0.004375189542770386,0.003246162086725235
1716737734003641000,10.24764111328125,-0.013794898986816406,0.012236911803483963,0.005050130188465118
1716737734013641200,10.25764111328125,-0.02816009521484375,0.002617485821247101,0.002645093947649002
1716737734023641000,10.26764111328125,-0.0066127777099609375,-0.0022008568048477173,-0.004490956664085388
1716737734033641200,10.27764111328125,-0.0161895751953125,0.019362028688192368,0.0026682429015636444
1716737734043641000,10.28764111328125,-0.018583297729492188,0.004962678998708725,-0.004486951977014542
1716737734053641200,10.29764111328125,-0.011397361755371094,-0.014743048697710037,0.014524880796670914
1716737734063641000,10.30764111328125,-0.004210472106933594,-0.007729753851890564,-0.005133908241987228
1716737734073641200,10.31764111328125,-0.01618194580078125,-0.002990689128637314,-0.00029462575912475586
1716737734083641000,10.32764111328125,-0.030547142028808594,-0.0006307624280452728,-0.0002671442925930023
1716737734093641200,10.33764111328125,-0.02097034454345703,-0.003010060638189316,-0.014655601233243942
1716737734103641000,10.34764111328125,-0.02097320556640625,0.016372941434383392,-0.01663781702518463
1716737734113641200,10.35764111328125,-0.01618480682373047,0.013943158090114594,-0.011922035366296768
1716737734123641000,10.36764111328125,-0.016185760498046875,0.001640070229768753,-0.01869206503033638
1716737734133641200,10.37764111328125,-0.020975112915039062,-0.017758389934897423,0.022363178431987762
1716737734143641000,10.38764111328125,-0.01858043670654297,-0.008149944245815277,-0.006313890218734741
1716737734153641200,10.39764111328125,-0.018586158752441406,-0.012541599571704865,0.00379929319024086
1716737734163641000,10.40764111328125,-0.01619243621826172,0.008959628641605377,-0.0058076828718185425
1716737734173641200,10.41764111328125,-0.013795852661132812,0.008917052298784256,0.0013641491532325745
1716737734183641000,10.42764111328125,-0.004220008850097656,0.011345688253641129,0.003730710595846176
1716737734193641200,10.43764111328125,-0.02576732635498047,0.004184983670711517,0.020405035465955734
1716737734203641000,10.44764111328125,-0.020979881286621094,-0.002965979278087616,-0.0010894350707530975
1716737734213641200,10.45764111328125,-0.006613731384277344,-0.003012530505657196,0.008457262068986893
1716737734223641000,10.46764111328125,-0.023372650146484375,0.006460081785917282,0.006045427173376083
1716737734233641200,10.47764111328125,-0.03294658660888672,0.015861008316278458,0.005601804703474045
1716737734243641000,10.48764111328125,-0.023365020751953125,0.005948185920715332,0.002858709543943405
1716737734253641200,10.49764111328125,-0.008999824523925781,-0.0012575946748256683,-0.00433899462223053
1716737734263641000,10.50764111328125,-0.018576622009277344,0.005814149975776672,0.0004932880401611328
1716737734273641200,10.51764111328125,-0.016182899475097656,-0.010979574173688889,-0.01145014539361
1716737734283641000,10.52764111328125,-0.07124900817871094,-0.006170559674501419,0.003010965883731842
1716737734293641200,10.53764111328125,0.014942169189453125,0.00583866611123085,-0.008968252688646317
1716737734303641000,10.54764111328125,0.0053653717041015625,-0.0037848539650440216,0.01015542447566986
1716737734313641200,10.55764111328125,-0.05209636688232422,0.008206762373447418,-0.00890229269862175
1716737734323641000,10.56764111328125,-0.056885719299316406,0.0010559633374214172,0.0126987025141716
1716737734333641200,10.57764111328125,0.0029697418212890625,-0.003836505115032196,-0.004078410565853119
1716737734343641000,10.58764111328125,0.014941215515136719,0.00331878662109375,-0.004112686961889267
1716737734353641200,10.59764111328125,-0.03294181823730469,0.01517893373966217,-0.001674603670835495
1716737734363641000,10.60764111328125,-0.04012489318847656,0.0008410662412643433,-0.004034459590911865
1716737734373641200,10.61764111328125,-0.0018177032470703125,0.0008173324167728424,0.007921814918518066
1716737734383641000,10.62764111328125,0.01733875274658203,-0.006870664656162262,0.017386779189109802
1716737734393641200,10.63764111328125,-0.03772735595703125,0.0027141161262989044,0.02700216695666313
1716737734403641000,10.64764111328125,-0.04490852355957031,-0.011592764407396317,0.00258607417345047
1716737734413641200,10.65764111328125,-0.004206657409667969,0.0075761787593364716,0.007350921630859375
1716737734423641000,10.66764111328125,-0.004202842712402344,0.00028445199131965637,0.0019641928374767303
1716737734433641200,10.67764111328125,-0.040116310119628906,-0.014072619378566742,-0.014756813645362854
1716737734443641000,10.68764111328125,-0.035327911376953125,-0.00652598962187767,0.006431542336940765
1716737734453641200,10.69764111328125,-0.011385917663574219,0.010203413665294647,-0.01985809952020645
1716737734463641000,10.70764111328125,0.0005855560302734375,-0.0017399191856384277,-0.005458880215883255
1716737734473641200,10.71764111328125,-0.04969310760498047,-0.008968841284513474,0.006481815129518509
1716737734483641000,10.72764111328125,-0.03293323516845703,-0.004142060875892639,-0.012680169194936752
1716737734493641200,10.73764111328125,-0.025751113891601562,0.0006121993064880371,-0.0006817542016506195
1716737734503641000,10.74764111328125,-0.0018138885498046875,-0.0014786943793296814,0.002188790589570999
1716737734513641200,10.75764111328125,-0.03772544860839844,0.003267299383878708,0.014148857444524765
1716737734523641000,10.76764111328125,-0.04490852355957031,-0.013477373868227005,-0.012210428714752197
1716737734533641200,10.77764111328125,-0.011392593383789062,0.00370696559548378,0.014234732836484909
1716737734543641000,10.78764111328125,-0.0042095184326171875,-0.013086620718240738,0.007079470902681351
1716737734553641200,10.79764111328125,-0.01857471466064453,-0.012682974338531494,0.0020235441625118256
1716737734563641000,10.80764111328125,-0.03772926330566406,0.006540495902299881,0.00685708224773407
1716737734573641200,10.81764111328125,-0.01618194580078125,-0.0006080307066440582,0.004435505717992783
1716737734583641000,10.82764111328125,0.0005788803100585938,-0.0007124319672584534,0.011600751429796219
1716737734593641200,10.83764111328125,-0.025757789611816406,0.018468722701072693,-0.012307200580835342
1716737734603641000,10.84764111328125,-0.030546188354492188,-0.0006658174097537994,-0.002734396606683731
1716737734613641200,10.85764111328125,-0.01617908477783203,-0.00801868736743927,-0.005453113466501236
1716737734623641000,10.86764111328125,-0.013784408569335938,0.006374098360538483,-0.01738998293876648
1716737734633641200,10.87764111328125,-0.020967483520507812,-0.005507748574018478,0.02095818519592285
1716737734643641000,10.88764111328125,-0.0257568359375,0.001689758151769638,-0.010189678519964218
1716737734653641200,10.89764111328125,-0.023362159729003906,-0.0006274506449699402,-0.007812250405550003
1716737734663641000,10.90764111328125,-0.006603240966796875,0.006531912833452225,-0.012615721672773361
1716737734673641200,10.91764111328125,-0.018573760986328125,-0.010155245661735535,-0.012651205062866211
1716737734683641000,10.92764111328125,-0.028154373168945312,0.009152568876743317,-0.00015167519450187683
1716737734693641200,10.93764111328125,-0.009000778198242188,-0.00040890276432037354,-0.004963617771863937
1716737734703641000,10.94764111328125,-0.008999824523925781,0.0018810294568538666,-0.00498121976852417
1716737734713641200,10.95764111328125,-0.03533649444580078,-0.0006046593189239502,-0.00494157150387764
1716737734723641000,10.96764111328125,-0.03055095672607422,-0.019750624895095825,-0.014018461108207703
1716737734733641200,10.97764111328125,-0.009006500244140625,-0.0027686282992362976,0.0032145194709300995
1716737734743641000,10.98764111328125,-0.0018243789672851562,0.006784934550523758,0.010382052510976791
1716737734753641200,10.99764111328125,-0.02337169647216797,-0.012403178960084915,-0.011138089001178741
1716737734763641000,11.00764111328125,-0.025770187377929688,-0.009707335382699966,-0.0059731826186180115
1716737734773641200,11.01764111328125,-0.02337932586669922,-0.00439801812171936,0.006367046386003494
1716737734783641000,11.02764111328125,-0.0066242218017578125,0.0033068135380744934,0.0017669424414634705
1716737734793641200,11.03764111328125,-0.023385047912597656,-0.008317463099956512,-0.0077843740582466125
1716737734803641000,11.04764111328125,-0.02099132537841797,0.006013408303260803,-0.000574260950088501
1716737734813641200,11.05764111328125,-0.013808250427246094,-0.0010924451053142548,0.00419757142663002
1716737734823641000,11.06764111328125,-0.013808250427246094,0.010904602706432343,-0.012627758085727692
1716737734833641200,11.07764111328125,-0.013808250427246094,0.003749500960111618,-0.0030167661607265472
1716737734843641000,11.08764111328125,-0.03296184539794922,0.01089761033654213,0.004193499684333801
1716737734853641200,11.09764111328125,-0.023385047912597656,0.006066344678401947,-0.01736486703157425
1716737734863641000,11.10764111328125,-0.025780677795410156,-0.0014101974666118622,0.018952567130327225
1716737734873641200,11.11764111328125,-0.028171539306640625,-0.013930179178714752,0.004645507782697678
1716737734883641000,11.12764111328125,-0.025778770446777344,-0.0018892176449298859,-0.002492085099220276
1716737734893641200,11.13764111328125,-0.03296184539794922,0.0028690844774246216,0.0023430287837982178
1716737734903641000,11.14764111328125,-0.0066242218017578125,-0.00434093177318573,-0.00008547678589820862
1716737734913641200,11.15764111328125,-0.01141357421875,0.010045018047094345,0.0024045556783676147
1716737734923641000,11.16764111328125,-0.028169631958007812,-0.004567209631204605,-0.009874239563941956
1716737734933641200,11.17764111328125,-0.030565261840820312,-0.009324006736278534,-0.009820956736803055
1716737734943641000,11.18764111328125,-0.013805389404296875,0.0025553368031978607,0.004584070295095444
1716737734953641200,11.19764111328125,-0.02098846435546875,-0.009462352842092514,-0.005022779107093811
1716737734963641000,11.20764111328125,-0.02099132537841797,0.0029092468321323395,-0.0023539699614048004
1716737734973641200,11.21764111328125,-0.009019851684570312,-0.009046658873558044,-0.02392512559890747
1716737734983641000,11.22764111328125,-0.009018898010253906,0.0004450604319572449,-0.007187452167272568
1716737734993641200,11.23764111328125,-0.018599510192871094,-0.006521791219711304,0.01728997752070427
1716737735003641000,11.24764111328125,-0.018599510192871094,-0.0041511766612529755,0.005304157733917236
1716737735013641200,11.25764111328125,-0.02578258514404297,-0.00646866112947464,-0.001895081251859665
1716737735023641000,11.26764111328125,-0.023390769958496094,0.022697586566209793,0.0077481940388679504
1716737735033641200,11.27764111328125,-0.01142120361328125,-0.0036180801689624786,0.0006615146994590759
1716737735043641000,11.28764111328125,-0.02818012237548828,0.003579620271921158,0.0006381683051586151
1716737735053641200,11.29764111328125,-0.01142120361328125,0.006007816642522812,0.005399320274591446
1716737735063641000,11.30764111328125,-0.013814926147460938,-0.0012046471238136292,-0.00652526319026947
1716737735073641200,11.31764111328125,-0.006633758544921875,-0.008366666734218597,-0.004035070538520813
1716737735083641000,11.32764111328125,-0.016210556030273438,-0.013146862387657166,0.01276271790266037
1716737735093641200,11.33764111328125,-0.013815879821777344,-0.00348653644323349,0.0031076855957508087
1716737735103641000,11.34764111328125,-0.01620960235595703,-0.010754071176052094,-0.004096817225217819
1716737735113641200,11.35764111328125,-0.030574798583984375,-0.0035522282123565674,0.003081623464822769
1716737735123641000,11.36764111328125,-0.011423110961914062,-0.007758423686027527,0.01486668735742569
1716737735133641200,11.37764111328125,-0.023392677307128906,0.028180446475744247,0.00043581798672676086
1716737735143641000,11.38764111328125,-0.011422157287597656,0.004185143858194351,0.0052556805312633514
1716737735153641200,11.39764111328125,-0.013813018798828125,-0.012818556278944016,0.0024727359414100647
1716737735163641000,11.40764111328125,-0.016205787658691406,0.004092570394277573,-0.012306556105613708
1716737735173641200,11.41764111328125,-0.013811111450195312,-0.010195888578891754,-0.005140524357557297
1716737735183641000,11.42764111328125,-0.016206741333007812,0.0018025003373622894,-0.012288887053728104
1716737735193641200,11.43764111328125,-0.009027481079101562,-0.0028014741837978363,0.007346481084823608
1716737735203641000,11.44764111328125,-0.018607139587402344,0.016810238361358643,-0.0043623186647892
1716737735213641200,11.45764111328125,-0.01621246337890625,0.013991735875606537,0.005386229604482651
1716737735223641000,11.46764111328125,-0.011425018310546875,-0.00274035707116127,0.003026295453310013
1716737735233641200,11.47764111328125,-0.016210556030273438,-0.000844951719045639,-0.009118057787418365
1716737735243641000,11.48764111328125,-0.01142120361328125,0.00869586318731308,-0.021161392331123352
1716737735253641200,11.49764111328125,-0.011422157287597656,0.003500077873468399,0.017675071954727173
1716737735263641000,11.50764111328125,-0.02099895477294922,0.008258286863565445,0.008144944906234741
1716737735273641200,11.51764111328125,-0.018601417541503906,-0.0066124871373176575,0.005639057606458664
1716737735283641000,11.52764111328125,-0.02099609375,-0.0017967037856578827,-0.0039035044610500336
1716737735293641200,11.53764111328125,-0.025785446166992188,-0.011235259473323822,0.020028863102197647
1716737735303641000,11.54764111328125,-0.023387908935546875,-0.013456128537654877,-0.013988904654979706
1716737735313641200,11.55764111328125,-0.1263408660888672,0.006119240075349808,0.00028542056679725647
1716737735323641000,11.56764111328125,0.03885936737060547,0.011292092502117157,0.00002195313572883606
1716737735333641200,11.57764111328125,-0.006630897521972656,0.0016260668635368347,0.0023752450942993164
1716737735343641000,11.58764111328125,-0.047332763671875,0.004151809960603714,0.0024272166192531586
1716737735353641200,11.59764111328125,-0.047332763671875,-0.0006664469838142395,-0.0023147612810134888
1716737735363641000,11.60764111328125,0.026886940002441406,0.006488777697086334,0.0000451989471912384
1716737735373641200,11.61764111328125,-0.0042362213134765625,0.011122394353151321,-0.014387045055627823
1716737735383641000,11.62764111328125,-0.052120208740234375,-0.01564757712185383,-0.011678602546453476
1716737735393641200,11.63764111328125,-0.020994186401367188,0.001065090298652649,-0.011708613485097885
1716737735403641000,11.64764111328125,0.019705772399902344,-0.008480075746774673,0.005104150623083115
1716737735413641200,11.65764111328125,-0.00662994384765625,-0.008514314889907837,0.002737484872341156
1716737735423641000,11.66764111328125,-0.044940948486328125,0.0037653595209121704,-0.004130560904741287
1716737735433641200,11.67764111328125,-0.03296947479248047,-0.010572496801614761,0.010268978774547577
1716737735443641000,11.68764111328125,0.014912605285644531,-0.01486082561314106,0.012655545026063919
1716737735453641200,11.69764111328125,-0.0018472671508789062,0.004262614995241165,-0.0016629286110401154
1716737735463641000,11.70764111328125,-0.044943809509277344,-0.007681075483560562,-0.004022862762212753
1716737735473641200,11.71764111328125,-0.028183937072753906,0.009093500673770905,0.0055305734276771545
1716737735483641000,11.72764111328125,0.010123252868652344,-0.00045583397150039673,0.012747302651405334
1716737735493641200,11.73764111328125,-0.0018482208251953125,-0.0005050189793109894,0.0008270107209682465
1716737735503641000,11.74764111328125,-0.03536701202392578,0.009105939418077469,0.010376401245594025
1716737735513641200,11.75764111328125,-0.03297233581542969,-0.005227971822023392,0.017612606287002563
1716737735523641000,11.76764111328125,0.005333900451660156,-0.0074879080057144165,0.005612626671791077
1716737735533641200,11.77764111328125,0.007729530334472656,-0.004958782345056534,-0.011637285351753235
1716737735543641000,11.78764111328125,-0.030577659606933594,-0.021760644391179085,-0.011648286134004593
1716737735553641200,11.79764111328125,-0.03297138214111328,0.021362334489822388,0.009933862835168839
1716737735563641000,11.80764111328125,0.014912605285644531,0.002223856747150421,-0.006848976016044617
1716737735573641200,11.81764111328125,-0.009029388427734375,-0.002594560384750366,0.0003802105784416199
1716737735583641000,11.82764111328125,-0.035366058349609375,-0.009749848395586014,0.009991288185119629
1716737735593641200,11.83764111328125,-0.01621246337890625,0.0094120092689991,-0.00433548167347908
