time,seconds_elapsed,z,y,x
1716737724153404000,0.39740380859375,9.80216121673584,0.031124621629714966,0.047884032130241394
1716737724163403800,0.40740380859375,9.797372817993164,0.0454898327589035,0.043095629662275314
1716737724173404000,0.41740380859375,9.778219223022461,0.05267243832349777,0.05267243832349777
1716737724183403800,0.42740380859375,9.80455493927002,0.05746084079146385,0.031124621629714966
1716737724193404000,0.43740380859375,9.790189743041992,0.05746084079146385,0.038307227194309235
1716737724203403800,0.44740380859375,9.806949615478516,0.07422025501728058,0.040701430290937424
1716737724213404000,0.45740380859375,9.794978141784668,0.05027823522686958,0.038307227194309235
1716737724223403800,0.46740380859375,9.794978141784668,0.05985504388809204,0.040701430290937424
1716737724233404000,0.47740380859375,9.785401344299316,0.06703764945268631,0.05267243832349777
1716737724243403800,0.48740380859375,9.797372817993164,0.06464344263076782,0.043095629662275314
1716737724253404000,0.49740380859375,9.80455493927002,0.05267243832349777,0.0454898327589035
1716737724263403800,0.50740380859375,9.80455493927002,0.05506663769483566,0.06224924325942993
1716737724273404000,0.51740380859375,9.814131736755371,0.05506663769483566,0.08858546614646912
1716737724283404000,0.527404052734375,9.792584419250488,0.0454898327589035,0.07422025501728058
1716737724293404000,0.53740380859375,9.783007621765137,0.043095629662275314,0.08619125932455063
1716737724303404000,0.547404052734375,9.811738014221191,0.033518824726343155,0.08619125932455063
1716737724313404000,0.55740380859375,9.794978141784668,0.05267243832349777,0.08619125932455063
1716737724323404000,0.567404052734375,9.78061294555664,0.05267243832349777,0.09576806426048279
1716737724333404000,0.57740380859375,9.773430824279785,0.05027823522686958,0.043095629662275314
1716737724343404000,0.587404052734375,9.785401344299316,0.05506663769483566,0.06464344263076782
1716737724353404200,0.597404052734375,9.78061294555664,0.07422025501728058,0.0454898327589035
1716737724363404000,0.607404052734375,9.787796020507812,0.05746084079146385,0.05267243832349777
1716737724373404200,0.617404052734375,9.809343338012695,0.05267243832349777,0.05027823522686958
1716737724383404000,0.627404052734375,9.76864242553711,0.05746084079146385,0.019153613597154617
1716737724393404200,0.637404052734375,9.773430824279785,0.0694318488240242,0.021547814831137657
1716737724403404000,0.647404052734375,9.799766540527344,0.06464344263076782,0.019153613597154617
1716737724413404200,0.657404052734375,9.799766540527344,0.05506663769483566,0.021547814831137657
1716737724423404000,0.667404052734375,9.790189743041992,0.05506663769483566,0.035913024097681046
1716737724433404200,0.677404052734375,9.763854026794434,0.07661445438861847,0.035913024097681046
1716737724443404000,0.687404052734375,9.78061294555664,0.05746084079146385,0.0454898327589035
1716737724453404200,0.697404052734375,9.80216121673584,0.05027823522686958,0.0454898327589035
1716737724463404000,0.707404052734375,9.785401344299316,0.040701430290937424,0.05267243832349777
1716737724473404200,0.717404052734375,9.756670951843262,0.040701430290937424,0.07422025501728058
1716737724483404000,0.727404052734375,9.794978141784668,0.040701430290937424,0.05506663769483566
1716737724493404200,0.737404052734375,9.818920135498047,0.040701430290937424,0.07182604819536209
1716737724503404000,0.747404052734375,9.80216121673584,0.033518824726343155,0.07661445438861847
1716737724513404200,0.757404052734375,9.771036148071289,0.05746084079146385,0.0454898327589035
1716737724523404000,0.767404052734375,9.794978141784668,0.047884032130241394,0.0694318488240242
1716737724533404200,0.777404052734375,9.80216121673584,0.040701430290937424,0.05027823522686958
1716737724543404000,0.787404052734375,9.80216121673584,0.05027823522686958,0.07661445438861847
1716737724553404200,0.797404052734375,9.773430824279785,0.06464344263076782,0.05506663769483566
1716737724563404000,0.807404052734375,9.783007621765137,0.06703764945268631,0.05027823522686958
1716737724573404200,0.817404052734375,9.799766540527344,0.05746084079146385,0.035913024097681046
1716737724583404000,0.827404052734375,9.809343338012695,0.05027823522686958,0.047884032130241394
1716737724593404200,0.837404052734375,9.778219223022461,0.06224924325942993,0.040701430290937424
1716737724603404000,0.847404052734375,9.783007621765137,0.047884032130241394,0.040701430290937424
1716737724613404200,0.857404052734375,9.80455493927002,0.05267243832349777,0.043095629662275314
1716737724623404000,0.867404052734375,9.792584419250488,0.0454898327589035,0.05027823522686958
1716737724633404200,0.877404052734375,9.794978141784668,0.05267243832349777,0.05746084079146385
1716737724643404000,0.887404052734375,9.775824546813965,0.031124621629714966,0.05027823522686958
1716737724653404200,0.897404052734375,9.797372817993164,0.0454898327589035,0.05027823522686958
1716737724663404000,0.907404052734375,9.785401344299316,0.038307227194309235,0.06703764945268631
1716737724673404200,0.917404052734375,9.78061294555664,0.033518824726343155,0.07661445438861847
1716737724683404000,0.927404052734375,9.792584419250488,0.05027823522686958,0.06464344263076782
1716737724693404200,0.937404052734375,9.80216121673584,0.031124621629714966,0.06703764945268631
1716737724703404000,0.947404052734375,9.797372817993164,0.040701430290937424,0.05985504388809204
1716737724713404200,0.957404052734375,9.785401344299316,0.031124621629714966,0.05267243832349777
1716737724723404000,0.967404052734375,9.790189743041992,0.05267243832349777,0.07182604819536209
1716737724733404200,0.977404052734375,9.794978141784668,0.05746084079146385,0.05267243832349777
1716737724743404000,0.987404052734375,9.785401344299316,0.0454898327589035,0.047884032130241394
1716737724753404200,0.997404052734375,9.78061294555664,0.05506663769483566,0.0454898327589035
1716737724763404000,1.007404052734375,9.785401344299316,0.05506663769483566,0.05027823522686958
1716737724773404200,1.017404052734375,9.797372817993164,0.05985504388809204,0.07182604819536209
1716737724783404000,1.027404052734375,9.799766540527344,0.047884032130241394,0.033518824726343155
1716737724793404200,1.037404052734375,9.78061294555664,0.0454898327589035,0.05027823522686958
1716737724803404000,1.047404052734375,9.785401344299316,0.040701430290937424,0.05027823522686958
1716737724813404200,1.057404052734375,9.80455493927002,0.06703764945268631,0.05985504388809204
1716737724823404000,1.067404052734375,9.790189743041992,0.043095629662275314,0.05267243832349777
1716737724833404200,1.077404052734375,9.790189743041992,0.05985504388809204,0.07661445438861847
1716737724843404000,1.087404052734375,9.785401344299316,0.040701430290937424,0.06224924325942993
1716737724853404200,1.097404052734375,9.799766540527344,0.040701430290937424,0.05985504388809204
1716737724863404000,1.107404052734375,9.787796020507812,0.05267243832349777,0.06464344263076782
1716737724873404200,1.117404052734375,9.797372817993164,0.028730420395731926,0.0694318488240242
1716737724883404000,1.127404052734375,9.797372817993164,0.047884032130241394,0.06464344263076782
1716737724893404200,1.137404052734375,9.785401344299316,0.031124621629714966,0.06224924325942993
1716737724903404000,1.147404052734375,9.787796020507812,0.035913024097681046,0.06464344263076782
1716737724913404200,1.157404052734375,9.783007621765137,0.05027823522686958,0.05267243832349777
1716737724923404000,1.167404052734375,9.792584419250488,0.035913024097681046,0.05027823522686958
1716737724933403600,1.177403564453125,9.80216121673584,0.05267243832349777,0.047884032130241394
1716737724943403500,1.187403564453125,9.794978141784668,0.035913024097681046,0.035913024097681046
1716737724953403600,1.197403564453125,9.794978141784668,0.047884032130241394,0.043095629662275314
1716737724963403500,1.207403564453125,9.797372817993164,0.038307227194309235,0.035913024097681046
1716737724973403600,1.217403564453125,9.794978141784668,0.05985504388809204,0.043095629662275314
1716737724983403500,1.227403564453125,9.799766540527344,0.05027823522686958,0.05027823522686958
1716737724993403600,1.237403564453125,9.80216121673584,0.043095629662275314,0.047884032130241394
1716737725003403800,1.24740380859375,9.783007621765137,0.047884032130241394,0.05746084079146385
1716737725013403600,1.257403564453125,9.797372817993164,0.035913024097681046,0.06224924325942993
1716737725023403800,1.26740380859375,9.787796020507812,0.047884032130241394,0.05267243832349777
1716737725033403600,1.277403564453125,9.794978141784668,0.033518824726343155,0.07422025501728058
1716737725043405000,1.287405029296875,9.785401344299316,0.038307227194309235,0.08619125932455063
1716737725053405000,1.297405029296875,9.792584419250488,0.038307227194309235,0.06224924325942993
1716737725063405000,1.307405029296875,9.792584419250488,0.033518824726343155,0.07182604819536209
1716737725073405000,1.317405029296875,9.790189743041992,0.06224924325942993,0.05506663769483566
1716737725083405000,1.327405029296875,9.80216121673584,0.0454898327589035,0.05027823522686958
1716737725093405000,1.337405029296875,9.792584419250488,0.047884032130241394,0.05746084079146385
1716737725103405000,1.347405029296875,9.792584419250488,0.035913024097681046,0.05985504388809204
1716737725113405000,1.357405029296875,9.787796020507812,0.05506663769483566,0.047884032130241394
1716737725123405000,1.367405029296875,9.799766540527344,0.05985504388809204,0.038307227194309235
1716737725133405000,1.377405029296875,9.799766540527344,0.035913024097681046,0.033518824726343155
1716737725143405000,1.387405029296875,9.794978141784668,0.05985504388809204,0.033518824726343155
1716737725153405000,1.397405029296875,9.794978141784668,0.047884032130241394,0.035913024097681046
1716737725163405000,1.407405029296875,9.80216121673584,0.05027823522686958,0.038307227194309235
1716737725173405000,1.417405029296875,9.787796020507812,0.05746084079146385,0.038307227194309235
1716737725183405000,1.427405029296875,9.790189743041992,0.05027823522686958,0.05027823522686958
1716737725193405000,1.437405029296875,9.790189743041992,0.05027823522686958,0.05746084079146385
1716737725203405000,1.447405029296875,9.790189743041992,0.040701430290937424,0.06224924325942993
1716737725213405000,1.457405029296875,9.790189743041992,0.038307227194309235,0.08140286058187485
1716737725223405000,1.467405029296875,9.80455493927002,0.033518824726343155,0.07661445438861847
1716737725233405400,1.477405517578125,9.790189743041992,0.023942016065120697,0.06703764945268631
1716737725243405300,1.4874052734375,9.718363761901855,0.031124621629714966,0.08379705995321274
1716737725253405000,1.497405029296875,9.823708534240723,0.05746084079146385,0.05985504388809204
1716737725263405000,1.507405029296875,9.866804122924805,0.047884032130241394,0.047884032130241394
1716737725273405000,1.517405029296875,9.809343338012695,0.028730420395731926,0.06224924325942993
1716737725283405000,1.527405029296875,9.739912033081055,0.06464344263076782,0.040701430290937424
1716737725293405000,1.537405029296875,9.794978141784668,0.05027823522686958,0.06703764945268631
1716737725303405000,1.547405029296875,9.823708534240723,0.05506663769483566,0.05506663769483566
1716737725313405000,1.557405029296875,9.785401344299316,0.05027823522686958,0.0694318488240242
1716737725323405000,1.567405029296875,9.790189743041992,0.06224924325942993,0.0454898327589035
1716737725333405000,1.577405029296875,9.80455493927002,0.06224924325942993,0.033518824726343155
1716737725343403800,1.58740380859375,9.821314811706543,0.038307227194309235,0.040701430290937424
1716737725353403600,1.597403564453125,9.787796020507812,0.06224924325942993,0.05985504388809204
1716737725363640800,1.607640869140625,9.76864242553711,0.038307227194309235,0.05027823522686958
1716737725373641000,1.617640869140625,9.799766540527344,0.028730420395731926,0.038307227194309235
1716737725383640800,1.627640869140625,9.811738014221191,0.047884032130241394,0.05506663769483566
1716737725393641000,1.637640869140625,9.778219223022461,0.047884032130241394,0.06224924325942993
1716737725403640800,1.647640869140625,9.771036148071289,0.043095629662275314,0.07661445438861847
1716737725413641000,1.657640869140625,9.797372817993164,0.047884032130241394,0.05746084079146385
1716737725423640800,1.667640869140625,9.811738014221191,0.038307227194309235,0.05506663769483566
1716737725433641000,1.677640869140625,9.790189743041992,0.0454898327589035,0.05985504388809204
1716737725443640800,1.687640869140625,9.78061294555664,0.035913024097681046,0.047884032130241394
1716737725453641000,1.697640869140625,9.794978141784668,0.033518824726343155,0.043095629662275314
1716737725463640800,1.707640869140625,9.818920135498047,0.033518824726343155,0.05985504388809204
1716737725473641000,1.717640869140625,9.785401344299316,0.035913024097681046,0.047884032130241394
1716737725483640800,1.727640869140625,9.794978141784668,0.05746084079146385,0.0694318488240242
1716737725493641000,1.737640869140625,9.792584419250488,0.05746084079146385,0.05506663769483566
1716737725503640800,1.747640869140625,9.785401344299316,0.05746084079146385,0.07182604819536209
1716737725513641000,1.757640869140625,9.787796020507812,0.038307227194309235,0.035913024097681046
1716737725523640800,1.767640869140625,9.792584419250488,0.043095629662275314,0.0454898327589035
1716737725533641000,1.777640869140625,9.787796020507812,0.047884032130241394,0.05267243832349777
1716737725543640800,1.787640869140625,9.806949615478516,0.040701430290937424,0.05985504388809204
1716737725553641200,1.79764111328125,9.792584419250488,0.05985504388809204,0.05985504388809204
1716737725563641300,1.807641357421875,9.790189743041992,0.05267243832349777,0.040701430290937424
1716737725573641200,1.81764111328125,9.787796020507812,0.05506663769483566,0.05267243832349777
1716737725583641300,1.827641357421875,9.787796020507812,0.05746084079146385,0.06703764945268631
1716737725593641200,1.83764111328125,9.794978141784668,0.05267243832349777,0.05746084079146385
1716737725603641300,1.847641357421875,9.787796020507812,0.038307227194309235,0.0454898327589035
1716737725613641200,1.85764111328125,9.792584419250488,0.05506663769483566,0.06464344263076782
1716737725623641300,1.867641357421875,9.794978141784668,0.043095629662275314,0.05985504388809204
1716737725633641200,1.87764111328125,9.792584419250488,0.043095629662275314,0.05506663769483566
1716737725643641000,1.88764111328125,9.80216121673584,0.0454898327589035,0.05746084079146385
1716737725653641200,1.89764111328125,9.790189743041992,0.043095629662275314,0.06224924325942993
1716737725663641000,1.90764111328125,9.790189743041992,0.040701430290937424,0.05267243832349777
1716737725673641200,1.91764111328125,9.792584419250488,0.035913024097681046,0.047884032130241394
1716737725683641000,1.92764111328125,9.790189743041992,0.05746084079146385,0.05506663769483566
1716737725693641200,1.93764111328125,9.799766540527344,0.07661445438861847,0.05267243832349777
1716737725703641000,1.94764111328125,9.771036148071289,0.05506663769483566,0.05506663769483566
1716737725713641200,1.95764111328125,9.797372817993164,0.05746084079146385,0.05027823522686958
1716737725723641000,1.96764111328125,9.797372817993164,0.038307227194309235,0.040701430290937424
1716737725733641200,1.97764111328125,9.785401344299316,0.05746084079146385,0.043095629662275314
1716737725743641000,1.98764111328125,9.785401344299316,0.05267243832349777,0.06224924325942993
1716737725753641200,1.99764111328125,9.792584419250488,0.047884032130241394,0.05985504388809204
1716737725763641000,2.00764111328125,9.80216121673584,0.033518824726343155,0.06224924325942993
1716737725773641200,2.01764111328125,9.790189743041992,0.031124621629714966,0.06703764945268631
1716737725783641000,2.02764111328125,9.785401344299316,0.035913024097681046,0.07661445438861847
1716737725793641200,2.03764111328125,9.790189743041992,0.0454898327589035,0.07182604819536209
1716737725803641000,2.04764111328125,9.794978141784668,0.047884032130241394,0.0694318488240242
1716737725813641200,2.05764111328125,9.785401344299316,0.05506663769483566,0.06464344263076782
1716737725823641000,2.06764111328125,9.797372817993164,0.047884032130241394,0.06464344263076782
1716737725833641200,2.07764111328125,9.792584419250488,0.05027823522686958,0.07182604819536209
1716737725843641000,2.08764111328125,9.785401344299316,0.05027823522686958,0.05746084079146385
1716737725853641200,2.09764111328125,9.794978141784668,0.0454898327589035,0.047884032130241394
1716737725863641000,2.10764111328125,9.790189743041992,0.031124621629714966,0.05506663769483566
1716737725873641200,2.11764111328125,9.797372817993164,0.05506663769483566,0.05027823522686958
1716737725883641000,2.12764111328125,9.778219223022461,0.05027823522686958,0.05985504388809204
1716737725893641200,2.13764111328125,9.790189743041992,0.040701430290937424,0.05027823522686958
1716737725903641000,2.14764111328125,9.792584419250488,0.040701430290937424,0.05506663769483566
1716737725913641200,2.15764111328125,9.794978141784668,0.040701430290937424,0.05027823522686958
1716737725923641000,2.16764111328125,9.785401344299316,0.0454898327589035,0.043095629662275314
1716737725933641200,2.17764111328125,9.790189743041992,0.0454898327589035,0.06703764945268631
1716737725943641000,2.18764111328125,9.785401344299316,0.05027823522686958,0.05746084079146385
1716737725953641200,2.19764111328125,9.797372817993164,0.047884032130241394,0.0454898327589035
1716737725963641000,2.20764111328125,9.806949615478516,0.0454898327589035,0.043095629662275314
1716737725973641200,2.21764111328125,9.785401344299316,0.026336219161748886,0.05506663769483566
1716737725983641000,2.22764111328125,9.794978141784668,0.033518824726343155,0.05985504388809204
1716737725993641200,2.23764111328125,9.787796020507812,0.05027823522686958,0.0694318488240242
1716737726003641000,2.24764111328125,9.80216121673584,0.0454898327589035,0.07182604819536209
1716737726013641200,2.25764111328125,9.787796020507812,0.038307227194309235,0.06464344263076782
1716737726023641000,2.26764111328125,9.790189743041992,0.05267243832349777,0.05267243832349777
1716737726033641200,2.27764111328125,9.783007621765137,0.047884032130241394,0.05746084079146385
1716737726043641000,2.28764111328125,9.797372817993164,0.06464344263076782,0.06703764945268631
1716737726053641200,2.29764111328125,9.783007621765137,0.05985504388809204,0.043095629662275314
1716737726063641000,2.30764111328125,9.794978141784668,0.035913024097681046,0.040701430290937424
1716737726073641200,2.31764111328125,9.787796020507812,0.043095629662275314,0.05985504388809204
1716737726083641000,2.32764111328125,9.80455493927002,0.043095629662275314,0.05985504388809204
1716737726093641200,2.33764111328125,9.778219223022461,0.033518824726343155,0.05506663769483566
1716737726103641000,2.34764111328125,9.799766540527344,0.05506663769483566,0.05027823522686958
1716737726113641200,2.35764111328125,9.785401344299316,0.06703764945268631,0.05027823522686958
1716737726123641000,2.36764111328125,9.785401344299316,0.07182604819536209,0.06224924325942993
1716737726133641200,2.37764111328125,9.790189743041992,0.026336219161748886,0.05746084079146385
1716737726143641000,2.38764111328125,9.794978141784668,0.035913024097681046,0.05506663769483566
1716737726153641200,2.39764111328125,9.687239646911621,0.028730420395731926,0.06224924325942993
1716737726163641000,2.40764111328125,9.85962200164795,0.0454898327589035,0.047884032130241394
1716737726173641200,2.41764111328125,9.828496932983398,0.0454898327589035,0.05267243832349777
1716737726183641000,2.42764111328125,9.76864242553711,0.043095629662275314,0.021547814831137657
1716737726193641200,2.43764111328125,9.759065628051758,0.05506663769483566,0.043095629662275314
1716737726203641000,2.44764111328125,9.816526412963867,0.040701430290937424,0.05985504388809204
1716737726213641200,2.45764111328125,9.814131736755371,0.05027823522686958,0.05027823522686958
1716737726223641000,2.46764111328125,9.756670951843262,0.035913024097681046,0.06703764945268631
1716737726233641200,2.47764111328125,9.763854026794434,0.040701430290937424,0.05746084079146385
1716737726243641000,2.48764111328125,9.809343338012695,0.05027823522686958,0.05746084079146385
1716737726253641200,2.49764111328125,9.80455493927002,0.05746084079146385,0.05267243832349777
1716737726263641000,2.50764111328125,9.763854026794434,0.05267243832349777,0.0454898327589035
1716737726273641200,2.51764111328125,9.775824546813965,0.05985504388809204,0.05746084079146385
1716737726283641000,2.52764111328125,9.80455493927002,0.05027823522686958,0.043095629662275314
1716737726293641200,2.53764111328125,9.797372817993164,0.0694318488240242,0.05506663769483566
1716737726303641000,2.54764111328125,9.778219223022461,0.05506663769483566,0.05506663769483566
1716737726313641200,2.55764111328125,9.76864242553711,0.0454898327589035,0.05746084079146385
1716737726323641300,2.567641357421875,9.814131736755371,0.05027823522686958,0.06464344263076782
1716737726333641200,2.57764111328125,9.80216121673584,0.047884032130241394,0.05746084079146385
1716737726343641300,2.587641357421875,9.771036148071289,0.038307227194309235,0.035913024097681046
1716737726353641200,2.59764111328125,9.766247749328613,0.038307227194309235,0.05985504388809204
1716737726363641300,2.607641357421875,9.814131736755371,0.0454898327589035,0.047884032130241394
1716737726373641200,2.61764111328125,9.806949615478516,0.05027823522686958,0.040701430290937424
1716737726383641300,2.627641357421875,9.78061294555664,0.043095629662275314,0.05027823522686958
1716737726393641200,2.63764111328125,9.78061294555664,0.047884032130241394,0.06224924325942993
1716737726403641300,2.647641357421875,9.806949615478516,0.05506663769483566,0.06464344263076782
1716737726413641200,2.65764111328125,9.811738014221191,0.040701430290937424,0.06224924325942993
1716737726423641300,2.667641357421875,9.773430824279785,0.05267243832349777,0.06464344263076782
1716737726433641200,2.67764111328125,9.775824546813965,0.026336219161748886,0.05746084079146385
1716737726443641300,2.687641357421875,9.785401344299316,0.05027823522686958,0.047884032130241394
1716737726453641200,2.69764111328125,9.785401344299316,0.043095629662275314,0.05746084079146385
1716737726463641300,2.707641357421875,9.771036148071289,0.0454898327589035,0.06224924325942993
1716737726473641200,2.71764111328125,9.778219223022461,0.043095629662275314,0.021547814831137657
1716737726483641300,2.727641357421875,9.80216121673584,0.06224924325942993,0.043095629662275314
1716737726493641200,2.73764111328125,9.814131736755371,0.05267243832349777,0.0454898327589035
1716737726503641000,2.74764111328125,9.785401344299316,0.047884032130241394,0.06224924325942993
1716737726513641200,2.75764111328125,9.778219223022461,0.05027823522686958,0.05267243832349777
1716737726523641000,2.76764111328125,9.794978141784668,0.05985504388809204,0.0694318488240242
1716737726533641200,2.77764111328125,9.80216121673584,0.033518824726343155,0.05985504388809204
1716737726543641000,2.78764111328125,9.790189743041992,0.05985504388809204,0.0454898327589035
1716737726553641200,2.79764111328125,9.773430824279785,0.038307227194309235,0.0694318488240242
1716737726563641000,2.80764111328125,9.80455493927002,0.047884032130241394,0.040701430290937424
1716737726573641200,2.81764111328125,9.799766540527344,0.05027823522686958,0.05027823522686958
1716737726583641000,2.82764111328125,9.785401344299316,0.026336219161748886,0.06464344263076782
1716737726593641200,2.83764111328125,9.766247749328613,0.0454898327589035,0.043095629662275314
1716737726603641000,2.84764111328125,9.787796020507812,0.047884032130241394,0.06224924325942993
1716737726613641200,2.85764111328125,9.809343338012695,0.06464344263076782,0.05985504388809204
1716737726623641000,2.86764111328125,9.785401344299316,0.0454898327589035,0.06224924325942993
1716737726633641200,2.87764111328125,9.783007621765137,0.028730420395731926,0.0454898327589035
1716737726643641000,2.88764111328125,9.78061294555664,0.05985504388809204,0.0454898327589035
1716737726653641200,2.89764111328125,9.806949615478516,0.05746084079146385,0.043095629662275314
1716737726663641000,2.90764111328125,9.783007621765137,0.05746084079146385,0.047884032130241394
1716737726673641200,2.91764111328125,9.775824546813965,0.05985504388809204,0.05746084079146385
1716737726683641000,2.92764111328125,9.794978141784668,0.047884032130241394,0.05506663769483566
1716737726693641200,2.93764111328125,9.806949615478516,0.05506663769483566,0.05506663769483566
1716737726703641000,2.94764111328125,9.787796020507812,0.038307227194309235,0.05746084079146385
1716737726713641200,2.95764111328125,9.787796020507812,0.05985504388809204,0.047884032130241394
1716737726723641000,2.96764111328125,9.785401344299316,0.05027823522686958,0.05985504388809204
1716737726733641200,2.97764111328125,9.80216121673584,0.0454898327589035,0.05027823522686958
1716737726743641000,2.98764111328125,9.792584419250488,0.0454898327589035,0.047884032130241394
1716737726753641200,2.99764111328125,9.787796020507812,0.05267243832349777,0.05027823522686958
1716737726763641000,3.00764111328125,9.799766540527344,0.028730420395731926,0.0694318488240242
1716737726773641200,3.01764111328125,9.794978141784668,0.047884032130241394,0.05267243832349777
1716737726783641000,3.02764111328125,9.778219223022461,0.05027823522686958,0.05506663769483566
1716737726793641200,3.03764111328125,9.785401344299316,0.040701430290937424,0.07661445438861847
1716737726803641000,3.04764111328125,9.797372817993164,0.040701430290937424,0.05506663769483566
1716737726813641200,3.05764111328125,9.792584419250488,0.05506663769483566,0.05027823522686958
1716737726823641000,3.06764111328125,9.792584419250488,0.047884032130241394,0.05985504388809204
1716737726833641200,3.07764111328125,9.763854026794434,0.033518824726343155,0.05506663769483566
1716737726843641000,3.08764111328125,9.785401344299316,0.05027823522686958,0.05506663769483566
1716737726853641200,3.09764111328125,9.775824546813965,0.05746084079146385,0.05985504388809204
1716737726863641000,3.10764111328125,9.787796020507812,0.038307227194309235,0.0454898327589035
1716737726873641200,3.11764111328125,9.80455493927002,0.047884032130241394,0.05027823522686958
1716737726883641000,3.12764111328125,9.771036148071289,0.040701430290937424,0.05027823522686958
1716737726893641200,3.13764111328125,9.794978141784668,0.05985504388809204,0.047884032130241394
1716737726903641000,3.14764111328125,9.78061294555664,0.05267243832349777,0.043095629662275314
1716737726913641200,3.15764111328125,9.783007621765137,0.06703764945268631,0.05027823522686958
1716737726923641300,3.167641357421875,9.78061294555664,0.043095629662275314,0.040701430290937424
1716737726933641200,3.17764111328125,9.78061294555664,0.05027823522686958,0.05506663769483566
1716737726943641300,3.187641357421875,9.775824546813965,0.040701430290937424,0.05027823522686958
1716737726953641200,3.19764111328125,9.80216121673584,0.038307227194309235,0.047884032130241394
1716737726963641300,3.207641357421875,9.80455493927002,0.033518824726343155,0.05746084079146385
1716737726973641200,3.21764111328125,9.797372817993164,0.035913024097681046,0.0694318488240242
1716737726983641300,3.227641357421875,9.78061294555664,0.040701430290937424,0.05985504388809204
1716737726993641200,3.23764111328125,9.792584419250488,0.0454898327589035,0.05506663769483566
1716737727003641300,3.247641357421875,9.797372817993164,0.035913024097681046,0.06464344263076782
1716737727013641200,3.25764111328125,9.785401344299316,0.0454898327589035,0.05267243832349777
1716737727023641300,3.267641357421875,9.797372817993164,0.05506663769483566,0.047884032130241394
1716737727033641200,3.27764111328125,9.778219223022461,0.05027823522686958,0.06464344263076782
1716737727043641300,3.287641357421875,9.790189743041992,0.05506663769483566,0.035913024097681046
1716737727053641200,3.29764111328125,9.797372817993164,0.05267243832349777,0.06464344263076782
1716737727063641000,3.30764111328125,9.74470043182373,0.043095629662275314,0.05267243832349777
1716737727073641200,3.31764111328125,9.806949615478516,0.0454898327589035,0.05027823522686958
1716737727083641000,3.32764111328125,9.826103210449219,0.05267243832349777,0.07182604819536209
1716737727093641200,3.33764111328125,9.806949615478516,0.040701430290937424,0.05027823522686958
1716737727103641300,3.347641357421875,9.763854026794434,0.043095629662275314,0.05027823522686958
1716737727113641200,3.35764111328125,9.799766540527344,0.047884032130241394,0.05027823522686958
1716737727123641300,3.367641357421875,9.80216121673584,0.0454898327589035,0.0694318488240242
1716737727133641200,3.37764111328125,9.78061294555664,0.040701430290937424,0.05027823522686958
1716737727143641000,3.38764111328125,9.759065628051758,0.040701430290937424,0.047884032130241394
1716737727153641200,3.39764111328125,9.797372817993164,0.05027823522686958,0.06703764945268631
1716737727163641000,3.40764111328125,9.818920135498047,0.05027823522686958,0.05267243832349777
1716737727173641200,3.41764111328125,9.778219223022461,0.047884032130241394,0.05985504388809204
1716737727183641000,3.42764111328125,9.773430824279785,0.047884032130241394,0.05746084079146385
1716737727193641200,3.43764111328125,9.80455493927002,0.038307227194309235,0.047884032130241394
1716737727203641000,3.44764111328125,9.794978141784668,0.040701430290937424,0.05027823522686958
1716737727213641200,3.45764111328125,9.794978141784668,0.05027823522686958,0.05027823522686958
1716737727223641000,3.46764111328125,9.792584419250488,0.05027823522686958,0.07900865375995636
1716737727233641200,3.47764111328125,9.797372817993164,0.06464344263076782,0.0694318488240242
1716737727243641000,3.48764111328125,9.811738014221191,0.05027823522686958,0.05027823522686958
1716737727253641200,3.49764111328125,9.787796020507812,0.043095629662275314,0.05746084079146385
1716737727263641000,3.50764111328125,9.787796020507812,0.033518824726343155,0.047884032130241394
1716737727273641200,3.51764111328125,9.790189743041992,0.05506663769483566,0.05985504388809204
1716737727283641000,3.52764111328125,9.797372817993164,0.047884032130241394,0.06703764945268631
1716737727293641200,3.53764111328125,9.78061294555664,0.05985504388809204,0.05267243832349777
1716737727303641000,3.54764111328125,9.773430824279785,0.05746084079146385,0.040701430290937424
1716737727313641200,3.55764111328125,9.794978141784668,0.05506663769483566,0.05985504388809204
1716737727323641000,3.56764111328125,9.799766540527344,0.040701430290937424,0.043095629662275314
1716737727333641200,3.57764111328125,9.775824546813965,0.035913024097681046,0.05746084079146385
1716737727343641000,3.58764111328125,9.78061294555664,0.0454898327589035,0.06464344263076782
1716737727353641200,3.59764111328125,9.80216121673584,0.05985504388809204,0.05985504388809204
1716737727363641300,3.607641357421875,9.80455493927002,0.047884032130241394,0.047884032130241394
1716737727373641200,3.61764111328125,9.771036148071289,0.05267243832349777,0.05267243832349777
1716737727383641300,3.627641357421875,9.778219223022461,0.05027823522686958,0.06224924325942993
1716737727393641200,3.63764111328125,9.790189743041992,0.05027823522686958,0.05027823522686958
1716737727403641000,3.64764111328125,9.806949615478516,0.05027823522686958,0.06703764945268631
1716737727413641200,3.65764111328125,9.778219223022461,0.0454898327589035,0.06224924325942993
1716737727423641000,3.66764111328125,9.778219223022461,0.047884032130241394,0.05506663769483566
1716737727433641200,3.67764111328125,9.792584419250488,0.035913024097681046,0.05267243832349777
1716737727443641000,3.68764111328125,9.806949615478516,0.0454898327589035,0.06224924325942993
1716737727453641200,3.69764111328125,9.799766540527344,0.040701430290937424,0.038307227194309235
1716737727463641000,3.70764111328125,9.785401344299316,0.047884032130241394,0.0454898327589035
1716737727473641200,3.71764111328125,9.790189743041992,0.040701430290937424,0.06224924325942993
1716737727483641300,3.727641357421875,9.80455493927002,0.05267243832349777,0.0694318488240242
1716737727493641200,3.73764111328125,9.797372817993164,0.05506663769483566,0.043095629662275314
1716737727503641300,3.747641357421875,9.778219223022461,0.035913024097681046,0.07900865375995636
1716737727513641200,3.75764111328125,9.794978141784668,0.040701430290937424,0.06464344263076782
1716737727523641300,3.767641357421875,9.806949615478516,0.05746084079146385,0.05267243832349777
1716737727533641200,3.77764111328125,9.790189743041992,0.047884032130241394,0.06464344263076782
1716737727543641300,3.787641357421875,9.790189743041992,0.05027823522686958,0.06224924325942993
1716737727553641200,3.79764111328125,9.78061294555664,0.05506663769483566,0.040701430290937424
1716737727563641300,3.807641357421875,9.794978141784668,0.040701430290937424,0.031124621629714966
1716737727573641200,3.81764111328125,9.785401344299316,0.0454898327589035,0.0694318488240242
1716737727583641300,3.827641357421875,9.790189743041992,0.05027823522686958,0.06464344263076782
1716737727593641200,3.83764111328125,9.799766540527344,0.033518824726343155,0.06224924325942993
1716737727603641300,3.847641357421875,9.787796020507812,0.043095629662275314,0.047884032130241394
1716737727613641200,3.85764111328125,9.794978141784668,0.040701430290937424,0.043095629662275314
1716737727623641300,3.867641357421875,9.794978141784668,0.038307227194309235,0.05027823522686958
1716737727633641200,3.87764111328125,9.785401344299316,0.05985504388809204,0.038307227194309235
1716737727643641300,3.887641357421875,9.778219223022461,0.043095629662275314,0.06464344263076782
1716737727653641200,3.89764111328125,9.787796020507812,0.05267243832349777,0.0694318488240242
1716737727663641000,3.90764111328125,9.771036148071289,0.05027823522686958,0.06703764945268631
1716737727673641200,3.91764111328125,9.790189743041992,0.0454898327589035,0.08140286058187485
1716737727683641000,3.92764111328125,9.797372817993164,0.038307227194309235,0.07422025501728058
1716737727693641200,3.93764111328125,9.785401344299316,0.028730420395731926,0.05267243832349777
1716737727703641000,3.94764111328125,9.783007621765137,0.040701430290937424,0.05985504388809204
1716737727713641200,3.95764111328125,9.792584419250488,0.043095629662275314,0.040701430290937424
1716737727723641000,3.96764111328125,9.790189743041992,0.031124621629714966,0.06703764945268631
1716737727733641200,3.97764111328125,9.799766540527344,0.031124621629714966,0.05746084079146385
1716737727743641000,3.98764111328125,9.783007621765137,0.043095629662275314,0.043095629662275314
1716737727753641200,3.99764111328125,9.794978141784668,0.040701430290937424,0.05985504388809204
1716737727763641300,4.007641357421875,9.787796020507812,0.05267243832349777,0.05267243832349777
1716737727773641200,4.01764111328125,9.794978141784668,0.035913024097681046,0.047884032130241394
1716737727783641000,4.02764111328125,9.799766540527344,0.026336219161748886,0.05027823522686958
1716737727793641200,4.03764111328125,9.794978141784668,0.038307227194309235,0.05027823522686958
1716737727803641000,4.04764111328125,9.80455493927002,0.05746084079146385,0.035913024097681046
1716737727813641200,4.05764111328125,9.797372817993164,0.043095629662275314,0.05506663769483566
1716737727823641000,4.06764111328125,9.790189743041992,0.043095629662275314,0.043095629662275314
1716737727833641200,4.07764111328125,9.792584419250488,0.0454898327589035,0.06464344263076782
1716737727843641300,4.087641357421875,9.790189743041992,0.033518824726343155,0.05746084079146385
1716737727853641200,4.09764111328125,9.790189743041992,0.0454898327589035,0.0694318488240242
1716737727863641300,4.107641357421875,9.799766540527344,0.047884032130241394,0.05267243832349777
1716737727873641200,4.11764111328125,9.790189743041992,0.06224924325942993,0.05267243832349777
1716737727883641300,4.127641357421875,9.787796020507812,0.033518824726343155,0.05027823522686958
1716737727893641200,4.13764111328125,9.792584419250488,0.05027823522686958,0.0454898327589035
1716737727903641000,4.14764111328125,9.787796020507812,0.0454898327589035,0.05267243832349777
1716737727913641200,4.15764111328125,9.78061294555664,0.05267243832349777,0.06224924325942993
1716737727923641000,4.16764111328125,9.799766540527344,0.043095629662275314,0.05746084079146385
1716737727933641200,4.17764111328125,9.797372817993164,0.06464344263076782,0.05506663769483566
1716737727943641000,4.18764111328125,9.794978141784668,0.05985504388809204,0.05027823522686958
1716737727953641200,4.19764111328125,9.785401344299316,0.06464344263076782,0.05506663769483566
1716737727963641000,4.20764111328125,9.790189743041992,0.0454898327589035,0.047884032130241394
1716737727973641200,4.21764111328125,9.787796020507812,0.05027823522686958,0.06464344263076782
1716737727983641000,4.22764111328125,9.794978141784668,0.035913024097681046,0.07900865375995636
1716737727993641200,4.23764111328125,9.794978141784668,0.028730420395731926,0.06703764945268631
1716737728003641000,4.24764111328125,9.794978141784668,0.035913024097681046,0.05746084079146385
1716737728013641200,4.25764111328125,9.787796020507812,0.043095629662275314,0.06224924325942993
1716737728023641000,4.26764111328125,9.794978141784668,0.028730420395731926,0.0454898327589035
1716737728033641200,4.27764111328125,9.80216121673584,0.05506663769483566,0.05027823522686958
1716737728043641000,4.28764111328125,9.797372817993164,0.047884032130241394,0.05746084079146385
1716737728053641200,4.29764111328125,9.778219223022461,0.035913024097681046,0.06464344263076782
1716737728063641000,4.30764111328125,9.830891609191895,0.05506663769483566,0.05506663769483566
1716737728073641200,4.31764111328125,9.87159252166748,0.040701430290937424,0.05267243832349777
1716737728083641000,4.32764111328125,9.775824546813965,0.035913024097681046,0.05027823522686958
1716737728093641200,4.33764111328125,9.703998565673828,0.0454898327589035,0.06703764945268631
1716737728103641000,4.34764111328125,9.823708534240723,0.05267243832349777,0.05746084079146385
1716737728113641200,4.35764111328125,9.85962200164795,0.05506663769483566,0.06703764945268631
1716737728123641000,4.36764111328125,9.783007621765137,0.047884032130241394,0.043095629662275314
1716737728133641200,4.37764111328125,9.74470043182373,0.043095629662275314,0.05506663769483566
1716737728143641000,4.38764111328125,9.794978141784668,0.05267243832349777,0.05506663769483566
1716737728153641200,4.39764111328125,9.83568000793457,0.05027823522686958,0.05746084079146385
1716737728163641000,4.40764111328125,9.790189743041992,0.043095629662275314,0.05027823522686958
1716737728173641200,4.41764111328125,9.74709415435791,0.028730420395731926,0.05267243832349777
1716737728183641000,4.42764111328125,9.794978141784668,0.040701430290937424,0.05985504388809204
1716737728193641200,4.43764111328125,9.833285331726074,0.05746084079146385,0.040701430290937424
1716737728203641000,4.44764111328125,9.78061294555664,0.040701430290937424,0.047884032130241394
1716737728213641200,4.45764111328125,9.74470043182373,0.05027823522686958,0.05506663769483566
1716737728223641000,4.46764111328125,9.809343338012695,0.0454898327589035,0.05985504388809204
1716737728233641200,4.47764111328125,9.818920135498047,0.05985504388809204,0.05267243832349777
1716737728243641000,4.48764111328125,9.785401344299316,0.040701430290937424,0.05985504388809204
1716737728253641200,4.49764111328125,9.759065628051758,0.038307227194309235,0.05985504388809204
1716737728263641000,4.50764111328125,9.797372817993164,0.05746084079146385,0.035913024097681046
1716737728273641200,4.51764111328125,9.828496932983398,0.040701430290937424,0.05985504388809204
1716737728283641000,4.52764111328125,9.787796020507812,0.043095629662275314,0.06224924325942993
1716737728293641200,4.53764111328125,9.756670951843262,0.05027823522686958,0.05985504388809204
1716737728303641000,4.54764111328125,9.790189743041992,0.035913024097681046,0.06464344263076782
1716737728313641200,4.55764111328125,9.816526412963867,0.038307227194309235,0.035913024097681046
1716737728323641300,4.567641357421875,9.792584419250488,0.043095629662275314,0.038307227194309235
1716737728333641200,4.57764111328125,9.766247749328613,0.028730420395731926,0.05506663769483566
1716737728343641300,4.587641357421875,9.773430824279785,0.040701430290937424,0.06464344263076782
1716737728353641200,4.59764111328125,9.80455493927002,0.043095629662275314,0.047884032130241394
1716737728363641300,4.607641357421875,9.799766540527344,0.05746084079146385,0.05506663769483566
1716737728373641200,4.61764111328125,9.763854026794434,0.033518824726343155,0.05985504388809204
1716737728383641300,4.627641357421875,9.785401344299316,0.05027823522686958,0.06464344263076782
1716737728393641200,4.63764111328125,9.799766540527344,0.038307227194309235,0.0454898327589035
1716737728403641300,4.647641357421875,9.799766540527344,0.023942016065120697,0.06224924325942993
1716737728413641200,4.65764111328125,9.778219223022461,0.038307227194309235,0.05027823522686958
1716737728423641300,4.667641357421875,9.78061294555664,0.040701430290937424,0.047884032130241394
1716737728433641200,4.67764111328125,9.811738014221191,0.043095629662275314,0.05267243832349777
1716737728443641300,4.687641357421875,9.785401344299316,0.033518824726343155,0.040701430290937424
1716737728453641200,4.69764111328125,9.778219223022461,0.05267243832349777,0.047884032130241394
1716737728463641300,4.707641357421875,9.790189743041992,0.038307227194309235,0.06224924325942993
1716737728473641200,4.71764111328125,9.799766540527344,0.033518824726343155,0.05746084079146385
1716737728483641300,4.727641357421875,9.799766540527344,0.038307227194309235,0.05746084079146385
1716737728493641200,4.73764111328125,9.783007621765137,0.043095629662275314,0.05267243832349777
1716737728503641000,4.74764111328125,9.783007621765137,0.05746084079146385,0.06703764945268631
1716737728513641200,4.75764111328125,9.792584419250488,0.05267243832349777,0.06464344263076782
1716737728523641000,4.76764111328125,9.792584419250488,0.038307227194309235,0.040701430290937424
1716737728533641200,4.77764111328125,9.785401344299316,0.05027823522686958,0.05985504388809204
1716737728543641000,4.78764111328125,9.783007621765137,0.05506663769483566,0.06224924325942993
1716737728553641200,4.79764111328125,9.799766540527344,0.05746084079146385,0.0454898327589035
1716737728563641000,4.80764111328125,9.790189743041992,0.033518824726343155,0.05506663769483566
1716737728573641200,4.81764111328125,9.787796020507812,0.035913024097681046,0.05506663769483566
1716737728583641000,4.82764111328125,9.792584419250488,0.05506663769483566,0.05746084079146385
1716737728593641200,4.83764111328125,9.790189743041992,0.043095629662275314,0.05506663769483566
1716737728603641000,4.84764111328125,9.790189743041992,0.033518824726343155,0.06703764945268631
1716737728613641200,4.85764111328125,9.787796020507812,0.0454898327589035,0.05506663769483566
1716737728623641000,4.86764111328125,9.797372817993164,0.043095629662275314,0.06224924325942993
1716737728633641200,4.87764111328125,9.799766540527344,0.05985504388809204,0.06224924325942993
1716737728643641000,4.88764111328125,9.787796020507812,0.038307227194309235,0.0454898327589035
1716737728653641200,4.89764111328125,9.783007621765137,0.0454898327589035,0.06224924325942993
1716737728663641000,4.90764111328125,9.794978141784668,0.05267243832349777,0.05746084079146385
1716737728673641200,4.91764111328125,9.790189743041992,0.040701430290937424,0.05985504388809204
1716737728683641000,4.92764111328125,9.797372817993164,0.047884032130241394,0.05506663769483566
1716737728693641200,4.93764111328125,9.792584419250488,0.043095629662275314,0.06464344263076782
1716737728703641000,4.94764111328125,9.787796020507812,0.040701430290937424,0.047884032130241394
1716737728713641200,4.95764111328125,9.792584419250488,0.05267243832349777,0.047884032130241394
1716737728723641000,4.96764111328125,9.797372817993164,0.05027823522686958,0.043095629662275314
1716737728733641200,4.97764111328125,9.80455493927002,0.047884032130241394,0.05027823522686958
1716737728743641000,4.98764111328125,9.797372817993164,0.033518824726343155,0.0454898327589035
1716737728753641200,4.99764111328125,9.787796020507812,0.05267243832349777,0.0454898327589035
1716737728763641000,5.00764111328125,9.80216121673584,0.028730420395731926,0.06224924325942993
1716737728773641200,5.01764111328125,9.783007621765137,0.038307227194309235,0.05506663769483566
1716737728783641000,5.02764111328125,9.792584419250488,0.047884032130241394,0.07422025501728058
1716737728793641200,5.03764111328125,9.787796020507812,0.038307227194309235,0.06464344263076782
1716737728803641000,5.04764111328125,9.785401344299316,0.031124621629714966,0.05746084079146385
1716737728813641200,5.05764111328125,9.785401344299316,0.05985504388809204,0.07422025501728058
1716737728823641000,5.06764111328125,9.775824546813965,0.0454898327589035,0.06224924325942993
1716737728833641200,5.07764111328125,9.78061294555664,0.043095629662275314,0.05985504388809204
1716737728843641300,5.087641357421875,9.790189743041992,0.043095629662275314,0.06464344263076782
1716737728853641200,5.09764111328125,9.785401344299316,0.033518824726343155,0.06703764945268631
1716737728863641300,5.107641357421875,9.797372817993164,0.05267243832349777,0.05506663769483566
1716737728873641200,5.11764111328125,9.783007621765137,0.05506663769483566,0.0454898327589035
1716737728883641300,5.127641357421875,9.799766540527344,0.05746084079146385,0.06464344263076782
1716737728893641200,5.13764111328125,9.790189743041992,0.05985504388809204,0.0454898327589035
1716737728903641300,5.147641357421875,9.792584419250488,0.0454898327589035,0.026336219161748886
1716737728913641200,5.15764111328125,9.790189743041992,0.05027823522686958,0.07661445438861847
1716737728923641300,5.167641357421875,9.787796020507812,0.0454898327589035,0.047884032130241394
1716737728933641200,5.17764111328125,9.797372817993164,0.05027823522686958,0.05985504388809204
1716737728943641300,5.187641357421875,9.787796020507812,0.047884032130241394,0.05267243832349777
1716737728953641200,5.19764111328125,9.785401344299316,0.05027823522686958,0.05027823522686958
1716737728963641300,5.207641357421875,9.792584419250488,0.040701430290937424,0.05027823522686958
1716737728973641200,5.21764111328125,9.792584419250488,0.043095629662275314,0.0694318488240242
1716737728983641300,5.227641357421875,9.797372817993164,0.05267243832349777,0.05985504388809204
1716737728993641200,5.23764111328125,9.790189743041992,0.040701430290937424,0.05985504388809204
1716737729003641300,5.247641357421875,9.799766540527344,0.0454898327589035,0.05267243832349777
1716737729013641200,5.25764111328125,9.579500198364258,0.0454898327589035,0.05267243832349777
1716737729023641300,5.267641357421875,9.945813179016113,0.05506663769483566,0.047884032130241394
1716737729033641200,5.27764111328125,9.778219223022461,0.035913024097681046,0.05267243832349777
1716737729043641300,5.287641357421875,9.749488830566406,0.033518824726343155,0.047884032130241394
1716737729053641200,5.29764111328125,9.739912033081055,0.05746084079146385,0.06464344263076782
1716737729063641300,5.307641357421875,9.866804122924805,0.05985504388809204,0.05506663769483566
1716737729073641200,5.31764111328125,9.842862129211426,0.033518824726343155,0.0694318488240242
1716737729083641300,5.327641357421875,9.735123634338379,0.040701430290937424,0.05985504388809204
1716737729093641200,5.33764111328125,9.742305755615234,0.047884032130241394,0.033518824726343155
1716737729103641300,5.347641357421875,9.847650527954102,0.0454898327589035,0.07661445438861847
1716737729113641200,5.35764111328125,9.850045204162598,0.047884032130241394,0.05027823522686958
1716737729123641300,5.367641357421875,9.751882553100586,0.040701430290937424,0.05506663769483566
1716737729133641200,5.37764111328125,9.742305755615234,0.040701430290937424,0.05506663769483566
1716737729143641300,5.387641357421875,9.823708534240723,0.043095629662275314,0.06224924325942993
1716737729153641200,5.39764111328125,9.826103210449219,0.040701430290937424,0.05267243832349777
1716737729163641300,5.407641357421875,9.759065628051758,0.0454898327589035,0.05746084079146385
1716737729173641200,5.41764111328125,9.756670951843262,0.05506663769483566,0.0454898327589035
1716737729183641300,5.427641357421875,9.814131736755371,0.038307227194309235,0.07661445438861847
1716737729193641200,5.43764111328125,9.833285331726074,0.047884032130241394,0.05027823522686958
1716737729203641300,5.447641357421875,9.763854026794434,0.043095629662275314,0.06224924325942993
1716737729213641200,5.45764111328125,9.763854026794434,0.043095629662275314,0.05746084079146385
1716737729223641000,5.46764111328125,9.818920135498047,0.05985504388809204,0.0694318488240242
1716737729233641200,5.47764111328125,9.823708534240723,0.05506663769483566,0.05506663769483566
1716737729243641000,5.48764111328125,9.766247749328613,0.043095629662275314,0.05985504388809204
1716737729253641200,5.49764111328125,9.74709415435791,0.0454898327589035,0.047884032130241394
1716737729263641000,5.50764111328125,9.818920135498047,0.040701430290937424,0.05746084079146385
1716737729273641200,5.51764111328125,9.821314811706543,0.033518824726343155,0.05985504388809204
1716737729283641000,5.52764111328125,9.778219223022461,0.028730420395731926,0.05267243832349777
1716737729293641200,5.53764111328125,9.739912033081055,0.028730420395731926,0.06703764945268631
1716737729303641000,5.54764111328125,9.797372817993164,0.043095629662275314,0.05506663769483566
1716737729313641200,5.55764111328125,9.816526412963867,0.047884032130241394,0.07182604819536209
1716737729323641000,5.56764111328125,9.785401344299316,0.047884032130241394,0.07422025501728058
1716737729333641200,5.57764111328125,9.773430824279785,0.033518824726343155,0.05506663769483566
1716737729343641000,5.58764111328125,9.792584419250488,0.040701430290937424,0.047884032130241394
1716737729353641200,5.59764111328125,9.790189743041992,0.047884032130241394,0.05985504388809204
1716737729363641000,5.60764111328125,9.773430824279785,0.0454898327589035,0.043095629662275314
1716737729373641200,5.61764111328125,9.773430824279785,0.043095629662275314,0.043095629662275314
1716737729383641000,5.62764111328125,9.80216121673584,0.043095629662275314,0.047884032130241394
1716737729393641200,5.63764111328125,9.818920135498047,0.05267243832349777,0.0454898327589035
1716737729403641000,5.64764111328125,9.78061294555664,0.031124621629714966,0.021547814831137657
1716737729413641200,5.65764111328125,9.771036148071289,0.05027823522686958,0.05746084079146385
1716737729423641000,5.66764111328125,9.790189743041992,0.0454898327589035,0.05985504388809204
1716737729433641200,5.67764111328125,9.80216121673584,0.047884032130241394,0.05506663769483566
1716737729443641000,5.68764111328125,9.775824546813965,0.038307227194309235,0.05027823522686958
1716737729453641200,5.69764111328125,9.790189743041992,0.033518824726343155,0.06464344263076782
1716737729463641000,5.70764111328125,9.790189743041992,0.040701430290937424,0.06703764945268631
1716737729473641200,5.71764111328125,9.816526412963867,0.040701430290937424,0.05746084079146385
1716737729483641000,5.72764111328125,9.778219223022461,0.031124621629714966,0.038307227194309235
1716737729493641200,5.73764111328125,9.78061294555664,0.043095629662275314,0.05746084079146385
1716737729503641000,5.74764111328125,9.783007621765137,0.040701430290937424,0.07182604819536209
1716737729513641200,5.75764111328125,9.78061294555664,0.038307227194309235,0.05746084079146385
1716737729523641000,5.76764111328125,9.80455493927002,0.038307227194309235,0.0454898327589035
1716737729533641200,5.77764111328125,9.778219223022461,0.0454898327589035,0.038307227194309235
1716737729543641000,5.78764111328125,9.794978141784668,0.0454898327589035,0.05746084079146385
1716737729553641200,5.79764111328125,9.80216121673584,0.033518824726343155,0.05267243832349777
1716737729563641000,5.80764111328125,9.787796020507812,0.043095629662275314,0.05506663769483566
1716737729573641200,5.81764111328125,9.787796020507812,0.028730420395731926,0.043095629662275314
1716737729583641000,5.82764111328125,9.790189743041992,0.0454898327589035,0.05746084079146385
1716737729593641200,5.83764111328125,9.797372817993164,0.05746084079146385,0.06224924325942993
1716737729603641000,5.84764111328125,9.783007621765137,0.05027823522686958,0.06703764945268631
1716737729613641200,5.85764111328125,9.790189743041992,0.035913024097681046,0.05985504388809204
1716737729623641000,5.86764111328125,9.797372817993164,0.047884032130241394,0.05027823522686958
1716737729633641200,5.87764111328125,9.811738014221191,0.05027823522686958,0.06224924325942993
1716737729643641000,5.88764111328125,9.785401344299316,0.038307227194309235,0.06224924325942993
1716737729653641200,5.89764111328125,9.794978141784668,0.05267243832349777,0.06464344263076782
1716737729663641000,5.90764111328125,9.783007621765137,0.040701430290937424,0.05267243832349777
1716737729673641200,5.91764111328125,9.799766540527344,0.040701430290937424,0.043095629662275314
1716737729683641000,5.92764111328125,9.792584419250488,0.026336219161748886,0.047884032130241394
1716737729693641200,5.93764111328125,9.78061294555664,0.05027823522686958,0.040701430290937424
1716737729703641000,5.94764111328125,9.797372817993164,0.035913024097681046,0.05746084079146385
1716737729713641200,5.95764111328125,9.783007621765137,0.033518824726343155,0.06224924325942993
1716737729723641000,5.96764111328125,9.799766540527344,0.043095629662275314,0.06703764945268631
1716737729733641200,5.97764111328125,9.792584419250488,0.0454898327589035,0.05027823522686958
1716737729743641000,5.98764111328125,9.783007621765137,0.026336219161748886,0.06464344263076782
1716737729753641200,5.99764111328125,9.785401344299316,0.0454898327589035,0.05506663769483566
1716737729763641000,6.00764111328125,9.797372817993164,0.05746084079146385,0.05267243832349777
1716737729773641200,6.01764111328125,9.775824546813965,0.040701430290937424,0.05985504388809204
1716737729783641000,6.02764111328125,9.80216121673584,0.0454898327589035,0.05027823522686958
1716737729793641200,6.03764111328125,9.792584419250488,0.040701430290937424,0.043095629662275314
1716737729803641000,6.04764111328125,9.794978141784668,0.05267243832349777,0.06224924325942993
1716737729813641200,6.05764111328125,9.799766540527344,0.038307227194309235,0.05267243832349777
1716737729823641000,6.06764111328125,9.792584419250488,0.0454898327589035,0.07422025501728058
1716737729833641200,6.07764111328125,9.792584419250488,0.040701430290937424,0.0454898327589035
1716737729843641000,6.08764111328125,9.790189743041992,0.047884032130241394,0.06464344263076782
1716737729853641200,6.09764111328125,9.787796020507812,0.05027823522686958,0.043095629662275314
1716737729863641000,6.10764111328125,9.783007621765137,0.047884032130241394,0.043095629662275314
1716737729873641200,6.11764111328125,9.797372817993164,0.047884032130241394,0.05027823522686958
1716737729883641000,6.12764111328125,9.783007621765137,0.035913024097681046,0.05746084079146385
1716737729893641200,6.13764111328125,9.794978141784668,0.047884032130241394,0.06703764945268631
1716737729903641000,6.14764111328125,9.78061294555664,0.05027823522686958,0.05985504388809204
1716737729913641200,6.15764111328125,9.80216121673584,0.0454898327589035,0.05267243832349777
1716737729923641000,6.16764111328125,9.792584419250488,0.0454898327589035,0.05027823522686958
1716737729933641200,6.17764111328125,9.806949615478516,0.05985504388809204,0.047884032130241394
1716737729943641000,6.18764111328125,9.80216121673584,0.05027823522686958,0.05027823522686958
1716737729953641200,6.19764111328125,9.790189743041992,0.043095629662275314,0.05506663769483566
1716737729963641000,6.20764111328125,9.80455493927002,0.05267243832349777,0.05267243832349777
1716737729973641200,6.21764111328125,9.778219223022461,0.05267243832349777,0.06464344263076782
1716737729983641000,6.22764111328125,9.74709415435791,0.05027823522686958,0.06464344263076782
1716737729993641200,6.23764111328125,9.80455493927002,0.0454898327589035,0.05267243832349777
1716737730003641000,6.24764111328125,9.8691987991333,0.026336219161748886,0.07182604819536209
1716737730013641200,6.25764111328125,9.74709415435791,0.040701430290937424,0.05506663769483566
1716737730023641000,6.26764111328125,9.735123634338379,0.047884032130241394,0.06224924325942993
1716737730033641200,6.27764111328125,9.80216121673584,0.05027823522686958,0.038307227194309235
1716737730043641000,6.28764111328125,9.826103210449219,0.047884032130241394,0.06224924325942993
1716737730053641200,6.29764111328125,9.792584419250488,0.0454898327589035,0.07182604819536209
1716737730063641000,6.30764111328125,9.756670951843262,0.028730420395731926,0.06224924325942993
1716737730073641200,6.31764111328125,9.811738014221191,0.06224924325942993,0.06224924325942993
1716737730083641000,6.32764111328125,9.828496932983398,0.043095629662275314,0.06703764945268631
1716737730093641200,6.33764111328125,9.785401344299316,0.035913024097681046,0.0694318488240242
1716737730103641000,6.34764111328125,9.763854026794434,0.031124621629714966,0.05027823522686958
1716737730113641200,6.35764111328125,9.80455493927002,0.040701430290937424,0.06703764945268631
1716737730123641000,6.36764111328125,9.826103210449219,0.023942016065120697,0.05985504388809204
1716737730133641200,6.37764111328125,9.785401344299316,0.0454898327589035,0.05985504388809204
1716737730143641000,6.38764111328125,9.76864242553711,0.033518824726343155,0.033518824726343155
1716737730153641200,6.39764111328125,9.794978141784668,0.040701430290937424,0.047884032130241394
1716737730163641000,6.40764111328125,9.809343338012695,0.0454898327589035,0.06224924325942993
1716737730173641200,6.41764111328125,9.785401344299316,0.035913024097681046,0.047884032130241394
1716737730183641000,6.42764111328125,9.773430824279785,0.047884032130241394,0.06464344263076782
1716737730193641200,6.43764111328125,9.792584419250488,0.043095629662275314,0.05985504388809204
1716737730203641000,6.44764111328125,9.821314811706543,0.05027823522686958,0.06224924325942993
1716737730213641200,6.45764111328125,9.790189743041992,0.035913024097681046,0.033518824726343155
1716737730223641000,6.46764111328125,9.756670951843262,0.031124621629714966,0.05985504388809204
1716737730233641200,6.47764111328125,9.783007621765137,0.047884032130241394,0.043095629662275314
1716737730243641000,6.48764111328125,9.811738014221191,0.0454898327589035,0.05985504388809204
1716737730253641200,6.49764111328125,9.785401344299316,0.0454898327589035,0.05746084079146385
1716737730263641000,6.50764111328125,9.783007621765137,0.043095629662275314,0.06464344263076782
1716737730273641200,6.51764111328125,9.797372817993164,0.047884032130241394,0.05506663769483566
1716737730283641000,6.52764111328125,9.806949615478516,0.043095629662275314,0.06464344263076782
1716737730293641200,6.53764111328125,9.775824546813965,0.0454898327589035,0.05506663769483566
1716737730303641000,6.54764111328125,9.790189743041992,0.038307227194309235,0.05267243832349777
1716737730313641200,6.55764111328125,9.792584419250488,0.033518824726343155,0.0454898327589035
1716737730323641000,6.56764111328125,9.821314811706543,0.0454898327589035,0.05985504388809204
1716737730333641200,6.57764111328125,9.799766540527344,0.031124621629714966,0.07422025501728058
1716737730343641000,6.58764111328125,9.775824546813965,0.0694318488240242,0.06464344263076782
1716737730353641200,6.59764111328125,9.797372817993164,0.0454898327589035,0.0454898327589035
1716737730363641000,6.60764111328125,9.811738014221191,0.05027823522686958,0.0454898327589035
1716737730373641200,6.61764111328125,9.787796020507812,0.05027823522686958,0.05027823522686958
1716737730383641000,6.62764111328125,9.785401344299316,0.0454898327589035,0.05746084079146385
1716737730393641200,6.63764111328125,9.783007621765137,0.028730420395731926,0.05746084079146385
1716737730403641000,6.64764111328125,9.806949615478516,0.035913024097681046,0.05506663769483566
1716737730413641200,6.65764111328125,9.783007621765137,0.047884032130241394,0.047884032130241394
1716737730423641000,6.66764111328125,9.792584419250488,0.047884032130241394,0.06703764945268631
1716737730433641200,6.67764111328125,9.787796020507812,0.05746084079146385,0.06224924325942993
1716737730443641000,6.68764111328125,9.794978141784668,0.038307227194309235,0.07182604819536209
1716737730453641200,6.69764111328125,9.790189743041992,0.05506663769483566,0.05506663769483566
1716737730463641000,6.70764111328125,9.790189743041992,0.038307227194309235,0.0694318488240242
1716737730473641200,6.71764111328125,9.792584419250488,0.05746084079146385,0.05985504388809204
1716737730483641000,6.72764111328125,9.811738014221191,0.05027823522686958,0.0454898327589035
1716737730493641200,6.73764111328125,9.797372817993164,0.05027823522686958,0.06224924325942993
1716737730503641000,6.74764111328125,9.799766540527344,0.028730420395731926,0.05027823522686958
1716737730513641200,6.75764111328125,9.80216121673584,0.05027823522686958,0.0694318488240242
1716737730523641000,6.76764111328125,9.806949615478516,0.06224924325942993,0.05027823522686958
1716737730533641200,6.77764111328125,9.790189743041992,0.05027823522686958,0.043095629662275314
1716737730543641000,6.78764111328125,9.80216121673584,0.040701430290937424,0.033518824726343155
1716737730553641200,6.79764111328125,9.80455493927002,0.035913024097681046,0.05027823522686958
1716737730563641000,6.80764111328125,9.809343338012695,0.047884032130241394,0.06464344263076782
1716737730573641200,6.81764111328125,9.790189743041992,0.035913024097681046,0.05267243832349777
1716737730583641000,6.82764111328125,9.783007621765137,0.05267243832349777,0.06224924325942993
1716737730593641200,6.83764111328125,9.80455493927002,0.05027823522686958,0.05267243832349777
1716737730603641000,6.84764111328125,9.787796020507812,0.05506663769483566,0.035913024097681046
1716737730613641200,6.85764111328125,9.787796020507812,0.040701430290937424,0.06464344263076782
1716737730623641000,6.86764111328125,9.80455493927002,0.023942016065120697,0.05267243832349777
1716737730633641200,6.87764111328125,9.794978141784668,0.033518824726343155,0.06703764945268631
1716737730643641000,6.88764111328125,9.799766540527344,0.047884032130241394,0.05985504388809204
1716737730653641200,6.89764111328125,9.785401344299316,0.06224924325942993,0.06464344263076782
1716737730663641000,6.90764111328125,9.80455493927002,0.047884032130241394,0.06703764945268631
1716737730673641200,6.91764111328125,9.80216121673584,0.033518824726343155,0.05506663769483566
1716737730683641000,6.92764111328125,9.811738014221191,0.043095629662275314,0.05506663769483566
1716737730693641200,6.93764111328125,9.80216121673584,0.047884032130241394,0.06224924325942993
1716737730703641000,6.94764111328125,9.799766540527344,0.05267243832349777,0.05027823522686958
1716737730713641200,6.95764111328125,9.80216121673584,0.05746084079146385,0.047884032130241394
1716737730723641000,6.96764111328125,9.809343338012695,0.05985504388809204,0.05267243832349777
1716737730733641200,6.97764111328125,9.785401344299316,0.05027823522686958,0.05506663769483566
1716737730743641000,6.98764111328125,9.799766540527344,0.05746084079146385,0.07182604819536209
1716737730753641200,6.99764111328125,9.809343338012695,0.033518824726343155,0.06224924325942993
1716737730763641000,7.00764111328125,9.792584419250488,0.06703764945268631,0.047884032130241394
1716737730773641200,7.01764111328125,9.799766540527344,0.047884032130241394,0.06703764945268631
1716737730783641000,7.02764111328125,9.797372817993164,0.047884032130241394,0.05985504388809204
1716737730793641200,7.03764111328125,9.809343338012695,0.05746084079146385,0.06464344263076782
1716737730803641000,7.04764111328125,9.787796020507812,0.033518824726343155,0.05267243832349777
1716737730813641200,7.05764111328125,9.799766540527344,0.0454898327589035,0.05506663769483566
1716737730823641000,7.06764111328125,9.806949615478516,0.047884032130241394,0.038307227194309235
1716737730833641200,7.07764111328125,9.794978141784668,0.038307227194309235,0.05027823522686958
1716737730843641000,7.08764111328125,9.80455493927002,0.06464344263076782,0.06703764945268631
1716737730853641200,7.09764111328125,9.792584419250488,0.0454898327589035,0.0454898327589035
1716737730863641000,7.10764111328125,9.811738014221191,0.06224924325942993,0.0454898327589035
1716737730873641200,7.11764111328125,9.80455493927002,0.038307227194309235,0.038307227194309235
1716737730883641000,7.12764111328125,9.794978141784668,0.038307227194309235,0.047884032130241394
1716737730893641200,7.13764111328125,9.806949615478516,0.035913024097681046,0.021547814831137657
1716737730903641000,7.14764111328125,9.842862129211426,0.0454898327589035,0.035913024097681046
1716737730913641200,7.15764111328125,9.792584419250488,0.0454898327589035,0.040701430290937424
1716737730923641000,7.16764111328125,9.766247749328613,0.05027823522686958,0.0454898327589035
1716737730933641200,7.17764111328125,9.799766540527344,0.05267243832349777,0.033518824726343155
1716737730943641000,7.18764111328125,9.833285331726074,0.05985504388809204,0.05267243832349777
1716737730953641200,7.19764111328125,9.792584419250488,0.05506663769483566,0.06224924325942993
1716737730963641000,7.20764111328125,9.778219223022461,0.05985504388809204,0.05746084079146385
1716737730973641200,7.21764111328125,9.799766540527344,0.035913024097681046,0.08140286058187485
1716737730983641000,7.22764111328125,9.823708534240723,0.043095629662275314,0.0694318488240242
1716737730993641200,7.23764111328125,9.792584419250488,0.043095629662275314,0.05506663769483566
1716737731003641000,7.24764111328125,9.76864242553711,0.038307227194309235,0.05267243832349777
1716737731013641200,7.25764111328125,9.799766540527344,0.047884032130241394,0.05985504388809204
1716737731023641000,7.26764111328125,9.828496932983398,0.047884032130241394,0.028730420395731926
1716737731033641200,7.27764111328125,9.787796020507812,0.033518824726343155,0.047884032130241394
1716737731043641000,7.28764111328125,9.766247749328613,0.047884032130241394,0.07422025501728058
1716737731053641200,7.29764111328125,9.806949615478516,0.047884032130241394,0.05506663769483566
1716737731063641000,7.30764111328125,9.816526412963867,0.047884032130241394,0.047884032130241394
1716737731073641200,7.31764111328125,9.790189743041992,0.040701430290937424,0.05506663769483566
1716737731083641000,7.32764111328125,9.775824546813965,0.043095629662275314,0.05027823522686958
1716737731093641200,7.33764111328125,9.787796020507812,0.05506663769483566,0.0454898327589035
1716737731103641000,7.34764111328125,9.816526412963867,0.05506663769483566,0.05027823522686958
1716737731113641200,7.35764111328125,9.785401344299316,0.05267243832349777,0.05746084079146385
1716737731123641000,7.36764111328125,9.787796020507812,0.043095629662275314,0.0454898327589035
1716737731133641200,7.37764111328125,9.806949615478516,0.05027823522686958,0.06464344263076782
1716737731143641000,7.38764111328125,9.816526412963867,0.05506663769483566,0.0694318488240242
1716737731153641200,7.39764111328125,9.806949615478516,0.05746084079146385,0.05746084079146385
1716737731163641000,7.40764111328125,9.787796020507812,0.040701430290937424,0.0694318488240242
1716737731173641200,7.41764111328125,9.799766540527344,0.047884032130241394,0.05985504388809204
1716737731183641000,7.42764111328125,9.797372817993164,0.047884032130241394,0.05027823522686958
1716737731193641200,7.43764111328125,9.787796020507812,0.05267243832349777,0.05746084079146385
1716737731203641000,7.44764111328125,9.792584419250488,0.040701430290937424,0.05985504388809204
1716737731213641200,7.45764111328125,9.790189743041992,0.05267243832349777,0.0694318488240242
1716737731223641000,7.46764111328125,9.783007621765137,0.033518824726343155,0.05027823522686958
1716737731233641200,7.47764111328125,9.80216121673584,0.035913024097681046,0.05746084079146385
1716737731243641000,7.48764111328125,9.78061294555664,0.043095629662275314,0.05027823522686958
1716737731253641200,7.49764111328125,9.799766540527344,0.028730420395731926,0.05267243832349777
1716737731263641000,7.50764111328125,9.814131736755371,0.05267243832349777,0.06703764945268631
1716737731273641200,7.51764111328125,9.787796020507812,0.043095629662275314,0.05027823522686958
1716737731283641000,7.52764111328125,9.78061294555664,0.047884032130241394,0.021547814831137657
1716737731293641200,7.53764111328125,9.787796020507812,0.040701430290937424,0.07900865375995636
1716737731303641000,7.54764111328125,9.797372817993164,0.05267243832349777,0.05267243832349777
1716737731313641200,7.55764111328125,9.80216121673584,0.047884032130241394,0.0454898327589035
1716737731323641000,7.56764111328125,9.78061294555664,0.043095629662275314,0.05027823522686958
1716737731333641200,7.57764111328125,9.78061294555664,0.05027823522686958,0.043095629662275314
1716737731343641000,7.58764111328125,9.797372817993164,0.043095629662275314,0.05267243832349777
1716737731353641200,7.59764111328125,9.78061294555664,0.047884032130241394,0.038307227194309235
1716737731363641000,7.60764111328125,9.794978141784668,0.043095629662275314,0.06224924325942993
1716737731373641200,7.61764111328125,9.792584419250488,0.05746084079146385,0.05985504388809204
1716737731383641000,7.62764111328125,9.811738014221191,0.040701430290937424,0.07182604819536209
1716737731393641200,7.63764111328125,9.794978141784668,0.033518824726343155,0.06703764945268631
1716737731403641000,7.64764111328125,9.794978141784668,0.0454898327589035,0.047884032130241394
1716737731413641200,7.65764111328125,9.80216121673584,0.05267243832349777,0.040701430290937424
1716737731423641000,7.66764111328125,9.799766540527344,0.043095629662275314,0.05506663769483566
1716737731433641200,7.67764111328125,9.785401344299316,0.043095629662275314,0.06464344263076782
1716737731443641000,7.68764111328125,9.785401344299316,0.043095629662275314,0.043095629662275314
1716737731453641200,7.69764111328125,9.785401344299316,0.031124621629714966,0.05506663769483566
1716737731463641000,7.70764111328125,9.794978141784668,0.047884032130241394,0.0694318488240242
1716737731473641200,7.71764111328125,9.806949615478516,0.05027823522686958,0.047884032130241394
1716737731483641000,7.72764111328125,9.790189743041992,0.043095629662275314,0.0454898327589035
1716737731493641200,7.73764111328125,9.797372817993164,0.05267243832349777,0.07422025501728058
1716737731503641000,7.74764111328125,9.792584419250488,0.040701430290937424,0.06464344263076782
1716737731513641200,7.75764111328125,9.792584419250488,0.038307227194309235,0.038307227194309235
1716737731523641000,7.76764111328125,9.785401344299316,0.038307227194309235,0.06224924325942993
1716737731533641200,7.77764111328125,9.80216121673584,0.0454898327589035,0.047884032130241394
1716737731543641000,7.78764111328125,9.797372817993164,0.0454898327589035,0.06464344263076782
1716737731553641200,7.79764111328125,9.797372817993164,0.035913024097681046,0.06464344263076782
1716737731563641000,7.80764111328125,9.794978141784668,0.038307227194309235,0.05506663769483566
1716737731573641200,7.81764111328125,9.797372817993164,0.05746084079146385,0.06224924325942993
1716737731583641000,7.82764111328125,9.790189743041992,0.05267243832349777,0.05027823522686958
1716737731593641200,7.83764111328125,9.785401344299316,0.0454898327589035,0.05746084079146385
1716737731603641000,7.84764111328125,9.787796020507812,0.05267243832349777,0.07182604819536209
1716737731613641200,7.85764111328125,9.792584419250488,0.043095629662275314,0.06224924325942993
1716737731623641000,7.86764111328125,9.794978141784668,0.043095629662275314,0.05027823522686958
1716737731633641200,7.87764111328125,9.794978141784668,0.0454898327589035,0.040701430290937424
1716737731643641000,7.88764111328125,9.790189743041992,0.05027823522686958,0.047884032130241394
1716737731653641200,7.89764111328125,9.778219223022461,0.035913024097681046,0.0694318488240242
1716737731663641000,7.90764111328125,9.799766540527344,0.047884032130241394,0.0454898327589035
1716737731673641200,7.91764111328125,9.792584419250488,0.05267243832349777,0.06464344263076782
1716737731683641000,7.92764111328125,9.792584419250488,0.05746084079146385,0.05746084079146385
1716737731693641200,7.93764111328125,9.787796020507812,0.043095629662275314,0.06464344263076782
1716737731703641000,7.94764111328125,9.794978141784668,0.035913024097681046,0.07900865375995636
1716737731713641200,7.95764111328125,9.797372817993164,0.047884032130241394,0.035913024097681046
1716737731723641000,7.96764111328125,9.783007621765137,0.033518824726343155,0.05746084079146385
1716737731733641200,7.97764111328125,9.785401344299316,0.05267243832349777,0.05267243832349777
1716737731743641000,7.98764111328125,9.790189743041992,0.0454898327589035,0.05027823522686958
1716737731753641200,7.99764111328125,9.783007621765137,0.05506663769483566,0.06224924325942993
1716737731763641000,8.00764111328125,9.792584419250488,0.031124621629714966,0.05267243832349777
1716737731773641200,8.01764111328125,9.785401344299316,0.040701430290937424,0.06224924325942993
1716737731783641000,8.02764111328125,9.787796020507812,0.05267243832349777,0.047884032130241394
1716737731793641200,8.03764111328125,9.792584419250488,0.043095629662275314,0.06464344263076782
1716737731803641000,8.04764111328125,9.792584419250488,0.05746084079146385,0.05267243832349777
1716737731813641200,8.05764111328125,9.790189743041992,0.038307227194309235,0.06224924325942993
1716737731823641000,8.06764111328125,9.783007621765137,0.033518824726343155,0.07182604819536209
1716737731833641200,8.07764111328125,9.783007621765137,0.05027823522686958,0.040701430290937424
1716737731843641300,8.087641357421875,9.80216121673584,0.05027823522686958,0.06224924325942993
1716737731853641200,8.09764111328125,9.778219223022461,0.0454898327589035,0.05506663769483566
1716737731863641300,8.107641357421874,9.790189743041992,0.05027823522686958,0.038307227194309235
1716737731873641200,8.11764111328125,9.792584419250488,0.07182604819536209,0.06703764945268631
1716737731883641300,8.127641357421876,9.799766540527344,0.0454898327589035,0.06703764945268631
1716737731893641200,8.13764111328125,9.787796020507812,0.05506663769483566,0.05267243832349777
1716737731903641000,8.14764111328125,9.833285331726074,0.038307227194309235,0.0454898327589035
1716737731913641200,8.15764111328125,9.790189743041992,0.06703764945268631,0.05985504388809204
1716737731923641000,8.16764111328125,9.739912033081055,0.05985504388809204,0.06224924325942993
1716737731933641200,8.17764111328125,9.778219223022461,0.035913024097681046,0.06464344263076782
1716737731943641000,8.18764111328125,9.828496932983398,0.0454898327589035,0.05027823522686958
1716737731953641200,8.19764111328125,9.809343338012695,0.0454898327589035,0.040701430290937424
1716737731963641000,8.20764111328125,9.766247749328613,0.043095629662275314,0.0454898327589035
1716737731973641200,8.21764111328125,9.783007621765137,0.047884032130241394,0.06703764945268631
1716737731983641000,8.22764111328125,9.821314811706543,0.0454898327589035,0.05027823522686958
1716737731993641200,8.23764111328125,9.787796020507812,0.040701430290937424,0.047884032130241394
1716737732003641000,8.24764111328125,9.763854026794434,0.035913024097681046,0.06224924325942993
1716737732013641200,8.25764111328125,9.794978141784668,0.0454898327589035,0.06464344263076782
1716737732023641000,8.26764111328125,9.814131736755371,0.047884032130241394,0.047884032130241394
1716737732033641200,8.27764111328125,9.787796020507812,0.035913024097681046,0.05985504388809204
1716737732043641000,8.28764111328125,9.778219223022461,0.038307227194309235,0.05267243832349777
1716737732053641200,8.29764111328125,9.794978141784668,0.05027823522686958,0.047884032130241394
1716737732063641000,8.30764111328125,9.794978141784668,0.038307227194309235,0.05267243832349777
1716737732073641200,8.31764111328125,9.792584419250488,0.047884032130241394,0.05027823522686958
1716737732083641000,8.32764111328125,9.78061294555664,0.033518824726343155,0.033518824726343155
1716737732093641200,8.33764111328125,9.792584419250488,0.05027823522686958,0.06703764945268631
1716737732103641000,8.34764111328125,9.792584419250488,0.021547814831137657,0.0454898327589035
1716737732113642200,8.357642333984375,9.787796020507812,0.035913024097681046,0.05985504388809204
1716737732123642400,8.367642333984374,9.76864242553711,0.06224924325942993,0.06703764945268631
1716737732133642200,8.377642333984374,9.794978141784668,0.05027823522686958,0.05027823522686958
1716737732143642400,8.387642333984376,9.80216121673584,0.05746084079146385,0.0454898327589035
1716737732153642200,8.397642333984376,9.790189743041992,0.035913024097681046,0.06224924325942993
1716737732163642400,8.407642333984375,9.778219223022461,0.047884032130241394,0.06464344263076782
1716737732173642200,8.417642333984375,9.797372817993164,0.05506663769483566,0.05267243832349777
1716737732183642400,8.427642333984375,9.790189743041992,0.043095629662275314,0.0454898327589035
1716737732193642200,8.437642333984375,9.797372817993164,0.038307227194309235,0.0454898327589035
1716737732203642400,8.447642333984374,9.778219223022461,0.040701430290937424,0.05267243832349777
1716737732213642200,8.457642333984374,9.799766540527344,0.040701430290937424,0.05267243832349777
1716737732223642400,8.467642333984376,9.792584419250488,0.05267243832349777,0.05985504388809204
1716737732233642200,8.477642333984376,9.787796020507812,0.0454898327589035,0.06464344263076782
1716737732243642400,8.487642333984375,9.783007621765137,0.0454898327589035,0.038307227194309235
1716737732253642200,8.497642333984375,9.787796020507812,0.033518824726343155,0.06224924325942993
1716737732263642400,8.507642333984375,9.785401344299316,0.038307227194309235,0.047884032130241394
1716737732273642200,8.517642333984375,9.792584419250488,0.038307227194309235,0.05506663769483566
1716737732283642400,8.527642333984375,9.766247749328613,0.0454898327589035,0.06464344263076782
1716737732293642200,8.537642333984374,9.775824546813965,0.05506663769483566,0.05746084079146385
1716737732303642400,8.547642333984374,9.797372817993164,0.0454898327589035,0.05746084079146385
1716737732313642200,8.557642333984376,9.787796020507812,0.05746084079146385,0.047884032130241394
1716737732323642400,8.567642333984375,9.775824546813965,0.038307227194309235,0.06703764945268631
1716737732333642200,8.577642333984375,9.785401344299316,0.047884032130241394,0.038307227194309235
1716737732343642400,8.587642333984375,9.809343338012695,0.0454898327589035,0.05027823522686958
1716737732353642200,8.597642333984375,9.78061294555664,0.05267243832349777,0.040701430290937424
1716737732363642400,8.607642333984375,9.787796020507812,0.05027823522686958,0.040701430290937424
1716737732373642200,8.617642333984374,9.783007621765137,0.0454898327589035,0.05267243832349777
1716737732383642400,8.627642333984374,9.794978141784668,0.05985504388809204,0.05027823522686958
1716737732393642200,8.637642333984376,9.778219223022461,0.023942016065120697,0.038307227194309235
1716737732403642400,8.647642333984376,9.790189743041992,0.05506663769483566,0.047884032130241394
1716737732413641200,8.65764111328125,9.78061294555664,0.040701430290937424,0.06224924325942993
1716737732423641000,8.66764111328125,9.790189743041992,0.043095629662275314,0.0694318488240242
1716737732433641200,8.67764111328125,9.783007621765137,0.0454898327589035,0.05746084079146385
1716737732443641000,8.68764111328125,9.792584419250488,0.043095629662275314,0.07422025501728058
1716737732453641200,8.69764111328125,9.785401344299316,0.047884032130241394,0.06224924325942993
1716737732463641000,8.70764111328125,9.787796020507812,0.040701430290937424,0.05027823522686958
1716737732473641200,8.71764111328125,9.790189743041992,0.043095629662275314,0.06224924325942993
1716737732483641000,8.72764111328125,9.783007621765137,0.05267243832349777,0.05267243832349777
1716737732493641200,8.73764111328125,9.794978141784668,0.0454898327589035,0.05267243832349777
1716737732503641000,8.74764111328125,9.785401344299316,0.031124621629714966,0.06224924325942993
1716737732513641200,8.75764111328125,9.799766540527344,0.0454898327589035,0.05027823522686958
1716737732523641000,8.76764111328125,9.792584419250488,0.043095629662275314,0.05267243832349777
1716737732533641200,8.77764111328125,9.773430824279785,0.05027823522686958,0.047884032130241394
1716737732543641000,8.78764111328125,9.785401344299316,0.038307227194309235,0.05506663769483566
1716737732553641200,8.79764111328125,9.778219223022461,0.05746084079146385,0.06703764945268631
1716737732563641000,8.80764111328125,9.775824546813965,0.05267243832349777,0.0694318488240242
1716737732573641200,8.81764111328125,9.778219223022461,0.05506663769483566,0.047884032130241394
1716737732583641000,8.82764111328125,9.785401344299316,0.043095629662275314,0.07661445438861847
1716737732593641200,8.83764111328125,9.794978141784668,0.05027823522686958,0.040701430290937424
1716737732603641300,8.847641357421875,9.78061294555664,0.05506663769483566,0.05746084079146385
1716737732613641200,8.85764111328125,9.790189743041992,0.05267243832349777,0.05985504388809204
1716737732623641300,8.867641357421874,9.792584419250488,0.033518824726343155,0.05027823522686958
1716737732633641200,8.87764111328125,9.787796020507812,0.043095629662275314,0.05985504388809204
1716737732643641000,8.88764111328125,9.794978141784668,0.05746084079146385,0.06703764945268631
1716737732653641200,8.89764111328125,9.78061294555664,0.047884032130241394,0.05027823522686958
1716737732663641000,8.90764111328125,9.792584419250488,0.043095629662275314,0.05985504388809204
1716737732673641200,8.91764111328125,9.78061294555664,0.031124621629714966,0.05746084079146385
1716737732683641000,8.92764111328125,9.783007621765137,0.026336219161748886,0.06703764945268631
1716737732693641200,8.93764111328125,9.797372817993164,0.05027823522686958,0.06703764945268631
1716737732703641000,8.94764111328125,9.785401344299316,0.035913024097681046,0.05027823522686958
1716737732713641200,8.95764111328125,9.787796020507812,0.043095629662275314,0.047884032130241394
1716737732723641000,8.96764111328125,9.78061294555664,0.05027823522686958,0.05506663769483566
1716737732733641200,8.97764111328125,9.794978141784668,0.035913024097681046,0.05746084079146385
1716737732743641000,8.98764111328125,9.787796020507812,0.05506663769483566,0.05746084079146385
1716737732753641200,8.99764111328125,9.783007621765137,0.040701430290937424,0.047884032130241394
1716737732763641000,9.00764111328125,9.771036148071289,0.040701430290937424,0.0454898327589035
1716737732773641200,9.01764111328125,9.775824546813965,0.05746084079146385,0.05506663769483566
1716737732783641000,9.02764111328125,9.794978141784668,0.033518824726343155,0.06464344263076782
1716737732793641200,9.03764111328125,9.771036148071289,0.05027823522686958,0.05027823522686958
1716737732803641000,9.04764111328125,9.783007621765137,0.05506663769483566,0.05985504388809204
1716737732813641200,9.05764111328125,9.785401344299316,0.05027823522686958,0.05027823522686958
1716737732823641000,9.06764111328125,9.778219223022461,0.040701430290937424,0.043095629662275314
1716737732833641200,9.07764111328125,9.785401344299316,0.043095629662275314,0.05027823522686958
1716737732843641300,9.087641357421875,9.783007621765137,0.0454898327589035,0.026336219161748886
1716737732853641200,9.09764111328125,9.792584419250488,0.035913024097681046,0.05985504388809204
1716737732863641300,9.107641357421874,9.790189743041992,0.05506663769483566,0.05027823522686958
1716737732873641200,9.11764111328125,9.790189743041992,0.05027823522686958,0.0454898327589035
1716737732883641300,9.127641357421876,9.785401344299316,0.033518824726343155,0.05267243832349777
1716737732893641200,9.13764111328125,9.785401344299316,0.038307227194309235,0.05267243832349777
1716737732903641000,9.14764111328125,9.775824546813965,0.05746084079146385,0.05267243832349777
1716737732913641200,9.15764111328125,9.792584419250488,0.038307227194309235,0.05267243832349777
1716737732923641000,9.16764111328125,9.787796020507812,0.06224924325942993,0.043095629662275314
1716737732933641200,9.17764111328125,9.773430824279785,0.031124621629714966,0.040701430290937424
1716737732943641000,9.18764111328125,9.790189743041992,0.05267243832349777,0.05746084079146385
1716737732953641200,9.19764111328125,9.771036148071289,0.043095629662275314,0.05506663769483566
1716737732963641300,9.207641357421876,9.773430824279785,0.05267243832349777,0.06464344263076782
1716737732973641200,9.21764111328125,9.787796020507812,0.033518824726343155,0.06224924325942993
1716737732983641300,9.227641357421875,9.799766540527344,0.05027823522686958,0.05027823522686958
1716737732993641200,9.23764111328125,9.787796020507812,0.043095629662275314,0.07182604819536209
1716737733003641300,9.247641357421875,9.785401344299316,0.05267243832349777,0.06464344263076782
1716737733013641200,9.25764111328125,9.785401344299316,0.0454898327589035,0.06703764945268631
1716737733023641300,9.267641357421875,9.783007621765137,0.05746084079146385,0.05985504388809204
1716737733033641200,9.27764111328125,9.783007621765137,0.031124621629714966,0.06224924325942993
1716737733043641300,9.287641357421874,9.787796020507812,0.05027823522686958,0.05506663769483566
1716737733053641200,9.29764111328125,9.783007621765137,0.043095629662275314,0.05985504388809204
1716737733063641000,9.30764111328125,9.790189743041992,0.047884032130241394,0.05746084079146385
1716737733073641200,9.31764111328125,9.783007621765137,0.043095629662275314,0.06224924325942993
1716737733083641000,9.32764111328125,9.78061294555664,0.043095629662275314,0.07661445438861847
1716737733093641200,9.33764111328125,9.792584419250488,0.040701430290937424,0.0454898327589035
1716737733103641300,9.347641357421875,9.78061294555664,0.043095629662275314,0.0454898327589035
1716737733113641200,9.35764111328125,9.792584419250488,0.05267243832349777,0.05746084079146385
1716737733123641300,9.367641357421874,9.792584419250488,0.047884032130241394,0.07422025501728058
1716737733133641200,9.37764111328125,9.787796020507812,0.031124621629714966,0.05267243832349777
1716737733143641000,9.38764111328125,9.794978141784668,0.05027823522686958,0.0454898327589035
1716737733153641200,9.39764111328125,9.78061294555664,0.05027823522686958,0.043095629662275314
1716737733163641000,9.40764111328125,9.701604843139648,0.043095629662275314,0.06464344263076782
1716737733173641200,9.41764111328125,9.854833602905273,0.05267243832349777,0.0454898327589035
1716737733183641000,9.42764111328125,9.792584419250488,0.040701430290937424,0.047884032130241394
1716737733193641200,9.43764111328125,9.727940559387207,0.035913024097681046,0.05985504388809204
1716737733203641000,9.44764111328125,9.725546836853027,0.047884032130241394,0.06224924325942993
1716737733213641200,9.45764111328125,9.826103210449219,0.040701430290937424,0.0454898327589035
1716737733223641000,9.46764111328125,9.814131736755371,0.038307227194309235,0.05267243832349777
1716737733233641200,9.47764111328125,9.749488830566406,0.05506663769483566,0.047884032130241394
1716737733243641000,9.48764111328125,9.759065628051758,0.028730420395731926,0.06224924325942993
1716737733253641200,9.49764111328125,9.806949615478516,0.05506663769483566,0.06224924325942993
1716737733263641000,9.50764111328125,9.816526412963867,0.035913024097681046,0.07661445438861847
1716737733273641200,9.51764111328125,9.76864242553711,0.05267243832349777,0.05746084079146385
1716737733283641000,9.52764111328125,9.74709415435791,0.033518824726343155,0.05746084079146385
1716737733293641200,9.53764111328125,9.806949615478516,0.033518824726343155,0.047884032130241394
1716737733303641000,9.54764111328125,9.83568000793457,0.043095629662275314,0.05027823522686958
1716737733313641200,9.55764111328125,9.756670951843262,0.031124621629714966,0.06224924325942993
1716737733323641000,9.56764111328125,9.759065628051758,0.021547814831137657,0.0454898327589035
1716737733333641200,9.57764111328125,9.816526412963867,0.047884032130241394,0.047884032130241394
1716737733343641000,9.58764111328125,9.828496932983398,0.06224924325942993,0.05985504388809204
1716737733353641200,9.59764111328125,9.761459350585938,0.05027823522686958,0.05746084079146385
1716737733363641000,9.60764111328125,9.759065628051758,0.0454898327589035,0.06703764945268631
1716737733373641200,9.61764111328125,9.799766540527344,0.0454898327589035,0.0454898327589035
1716737733383641000,9.62764111328125,9.794978141784668,0.035913024097681046,0.05267243832349777
1716737733393641200,9.63764111328125,9.763854026794434,0.031124621629714966,0.05506663769483566
1716737733403641000,9.64764111328125,9.775824546813965,0.06224924325942993,0.06224924325942993
1716737733413641200,9.65764111328125,9.797372817993164,0.047884032130241394,0.07182604819536209
1716737733423641000,9.66764111328125,9.816526412963867,0.021547814831137657,0.05985504388809204
1716737733433641200,9.67764111328125,9.78061294555664,0.05746084079146385,0.05746084079146385
1716737733443641000,9.68764111328125,9.763854026794434,0.040701430290937424,0.047884032130241394
1716737733453641200,9.69764111328125,9.797372817993164,0.05027823522686958,0.05506663769483566
1716737733463641000,9.70764111328125,9.794978141784668,0.033518824726343155,0.05506663769483566
1716737733473641200,9.71764111328125,9.778219223022461,0.040701430290937424,0.07422025501728058
1716737733483641000,9.72764111328125,9.78061294555664,0.038307227194309235,0.05506663769483566
1716737733493641200,9.73764111328125,9.792584419250488,0.038307227194309235,0.06464344263076782
1716737733503641000,9.74764111328125,9.787796020507812,0.0454898327589035,0.07661445438861847
1716737733513641200,9.75764111328125,9.771036148071289,0.043095629662275314,0.0454898327589035
1716737733523641000,9.76764111328125,9.771036148071289,0.05027823522686958,0.043095629662275314
1716737733533641200,9.77764111328125,9.80216121673584,0.043095629662275314,0.05267243832349777
1716737733543641000,9.78764111328125,9.790189743041992,0.031124621629714966,0.06464344263076782
1716737733553641200,9.79764111328125,9.773430824279785,0.043095629662275314,0.05027823522686958
1716737733563641000,9.80764111328125,9.761459350585938,0.05267243832349777,0.05027823522686958
1716737733573641200,9.81764111328125,9.785401344299316,0.0454898327589035,0.07182604819536209
1716737733583641000,9.82764111328125,9.797372817993164,0.047884032130241394,0.06464344263076782
1716737733593641200,9.83764111328125,9.783007621765137,0.047884032130241394,0.05267243832349777
1716737733603641000,9.84764111328125,9.76864242553711,0.038307227194309235,0.05027823522686958
1716737733613641200,9.85764111328125,9.785401344299316,0.047884032130241394,0.05985504388809204
1716737733623641000,9.86764111328125,9.785401344299316,0.05027823522686958,0.06703764945268631
1716737733633641200,9.87764111328125,9.792584419250488,0.043095629662275314,0.043095629662275314
1716737733643641000,9.88764111328125,9.783007621765137,0.07661445438861847,0.05267243832349777
1716737733653641000,9.897640869140625,9.787796020507812,0.05506663769483566,0.031124621629714966
1716737733663641000,9.90764111328125,9.775824546813965,0.035913024097681046,0.05746084079146385
1716737733673641000,9.917640869140625,9.775824546813965,0.026336219161748886,0.05746084079146385
1716737733683641000,9.92764111328125,9.78061294555664,0.035913024097681046,0.06224924325942993
1716737733693641000,9.937640869140624,9.799766540527344,0.05267243832349777,0.05267243832349777
1716737733703641000,9.94764111328125,9.799766540527344,0.038307227194309235,0.047884032130241394
1716737733713641000,9.957640869140626,9.78061294555664,0.047884032130241394,0.05985504388809204
1716737733723641000,9.96764111328125,9.773430824279785,0.0454898327589035,0.07182604819536209
1716737733733641000,9.977640869140625,9.792584419250488,0.035913024097681046,0.05267243832349777
1716737733743641000,9.98764111328125,9.794978141784668,0.043095629662275314,0.0454898327589035
1716737733753641000,9.997640869140625,9.794978141784668,0.05267243832349777,0.05746084079146385
1716737733763641000,10.00764111328125,9.778219223022461,0.043095629662275314,0.047884032130241394
1716737733773641000,10.017640869140624,9.783007621765137,0.040701430290937424,0.05746084079146385
1716737733783641000,10.02764111328125,9.78061294555664,0.040701430290937424,0.05267243832349777
1716737733793641000,10.037640869140626,9.775824546813965,0.038307227194309235,0.05027823522686958
1716737733803641000,10.04764111328125,9.785401344299316,0.0454898327589035,0.05267243832349777
1716737733813641000,10.057640869140625,9.783007621765137,0.05027823522686958,0.06224924325942993
1716737733823641000,10.06764111328125,9.792584419250488,0.043095629662275314,0.05985504388809204
1716737733833641000,10.077640869140625,9.785401344299316,0.05746084079146385,0.05746084079146385
1716737733843641000,10.08764111328125,9.775824546813965,0.0454898327589035,0.06224924325942993
1716737733853641200,10.09764111328125,9.797372817993164,0.031124621629714966,0.05027823522686958
1716737733863641000,10.10764111328125,9.80216121673584,0.040701430290937424,0.05027823522686958
1716737733873641200,10.11764111328125,9.783007621765137,0.040701430290937424,0.05027823522686958
1716737733883641000,10.12764111328125,9.778219223022461,0.05746084079146385,0.06224924325942993
1716737733893641200,10.13764111328125,9.785401344299316,0.05027823522686958,0.05985504388809204
1716737733903641000,10.14764111328125,9.797372817993164,0.033518824726343155,0.047884032130241394
1716737733913641200,10.15764111328125,9.783007621765137,0.033518824726343155,0.06703764945268631
1716737733923641000,10.16764111328125,9.775824546813965,0.040701430290937424,0.05985504388809204
1716737733933641200,10.17764111328125,9.787796020507812,0.05027823522686958,0.05746084079146385
1716737733943641000,10.18764111328125,9.794978141784668,0.0454898327589035,0.05985504388809204
1716737733953641200,10.19764111328125,9.778219223022461,0.05506663769483566,0.05506663769483566
1716737733963641000,10.20764111328125,9.778219223022461,0.06224924325942993,0.05985504388809204
1716737733973641200,10.21764111328125,9.785401344299316,0.0454898327589035,0.05985504388809204
1716737733983641000,10.22764111328125,9.790189743041992,0.043095629662275314,0.0694318488240242
1716737733993641200,10.23764111328125,9.790189743041992,0.040701430290937424,0.05985504388809204
1716737734003641000,10.24764111328125,9.792584419250488,0.05746084079146385,0.06224924325942993
1716737734013641200,10.25764111328125,9.778219223022461,0.047884032130241394,0.05985504388809204
1716737734023641000,10.26764111328125,9.799766540527344,0.043095629662275314,0.05267243832349777
1716737734033641200,10.27764111328125,9.790189743041992,0.06464344263076782,0.05985504388809204
1716737734043641000,10.28764111328125,9.787796020507812,0.05027823522686958,0.05267243832349777
1716737734053641200,10.29764111328125,9.794978141784668,0.031124621629714966,0.07182604819536209
1716737734063641000,10.30764111328125,9.80216121673584,0.038307227194309235,0.05267243832349777
1716737734073641200,10.31764111328125,9.790189743041992,0.043095629662275314,0.05746084079146385
1716737734083641000,10.32764111328125,9.775824546813965,0.0454898327589035,0.05746084079146385
1716737734093641200,10.33764111328125,9.785401344299316,0.043095629662275314,0.043095629662275314
1716737734103641000,10.34764111328125,9.785401344299316,0.06224924325942993,0.040701430290937424
1716737734113641200,10.35764111328125,9.790189743041992,0.05985504388809204,0.0454898327589035
1716737734123641000,10.36764111328125,9.790189743041992,0.047884032130241394,0.038307227194309235
1716737734133641200,10.37764111328125,9.785401344299316,0.028730420395731926,0.07900865375995636
1716737734143641000,10.38764111328125,9.787796020507812,0.038307227194309235,0.05027823522686958
1716737734153641200,10.39764111328125,9.787796020507812,0.033518824726343155,0.05985504388809204
1716737734163641000,10.40764111328125,9.790189743041992,0.05506663769483566,0.05027823522686958
1716737734173641200,10.41764111328125,9.792584419250488,0.05506663769483566,0.05746084079146385
1716737734183641000,10.42764111328125,9.80216121673584,0.05746084079146385,0.05985504388809204
1716737734193641200,10.43764111328125,9.78061294555664,0.05027823522686958,0.07661445438861847
1716737734203641000,10.44764111328125,9.785401344299316,0.043095629662275314,0.05506663769483566
1716737734213641200,10.45764111328125,9.799766540527344,0.043095629662275314,0.06464344263076782
1716737734223641000,10.46764111328125,9.783007621765137,0.05267243832349777,0.06224924325942993
1716737734233641200,10.47764111328125,9.773430824279785,0.06224924325942993,0.06224924325942993
1716737734243641000,10.48764111328125,9.783007621765137,0.05267243832349777,0.05985504388809204
1716737734253641200,10.49764111328125,9.797372817993164,0.0454898327589035,0.05267243832349777
1716737734263641000,10.50764111328125,9.787796020507812,0.05267243832349777,0.05746084079146385
1716737734273641200,10.51764111328125,9.790189743041992,0.035913024097681046,0.0454898327589035
1716737734283641000,10.52764111328125,9.735123634338379,0.040701430290937424,0.05985504388809204
1716737734293641200,10.53764111328125,9.821314811706543,0.05267243832349777,0.047884032130241394
1716737734303641000,10.54764111328125,9.811738014221191,0.043095629662275314,0.06703764945268631
1716737734313641200,10.55764111328125,9.754277229309082,0.05506663769483566,0.047884032130241394
1716737734323641000,10.56764111328125,9.749488830566406,0.047884032130241394,0.0694318488240242
1716737734333641200,10.57764111328125,9.809343338012695,0.043095629662275314,0.05267243832349777
1716737734343641000,10.58764111328125,9.821314811706543,0.05027823522686958,0.05267243832349777
1716737734353641200,10.59764111328125,9.773430824279785,0.06224924325942993,0.05506663769483566
1716737734363641000,10.60764111328125,9.766247749328613,0.047884032130241394,0.05267243832349777
1716737734373641200,10.61764111328125,9.80455493927002,0.047884032130241394,0.06464344263076782
1716737734383641000,10.62764111328125,9.823708534240723,0.040701430290937424,0.07422025501728058
1716737734393641200,10.63764111328125,9.76864242553711,0.05027823522686958,0.08379705995321274
1716737734403641000,10.64764111328125,9.761459350585938,0.035913024097681046,0.05985504388809204
1716737734413641200,10.65764111328125,9.80216121673584,0.05506663769483566,0.06464344263076782
1716737734423641000,10.66764111328125,9.80216121673584,0.047884032130241394,0.05985504388809204
1716737734433641200,10.67764111328125,9.766247749328613,0.033518824726343155,0.043095629662275314
1716737734443641000,10.68764111328125,9.771036148071289,0.040701430290937424,0.06464344263076782
1716737734453641200,10.69764111328125,9.794978141784668,0.05746084079146385,0.038307227194309235
1716737734463641000,10.70764111328125,9.806949615478516,0.0454898327589035,0.05267243832349777
1716737734473641200,10.71764111328125,9.756670951843262,0.038307227194309235,0.06464344263076782
1716737734483641000,10.72764111328125,9.773430824279785,0.043095629662275314,0.0454898327589035
1716737734493641200,10.73764111328125,9.78061294555664,0.047884032130241394,0.05746084079146385
1716737734503641000,10.74764111328125,9.80455493927002,0.0454898327589035,0.05985504388809204
1716737734513641200,10.75764111328125,9.76864242553711,0.05027823522686958,0.07182604819536209
1716737734523641000,10.76764111328125,9.761459350585938,0.033518824726343155,0.0454898327589035
1716737734533641200,10.77764111328125,9.794978141784668,0.05027823522686958,0.07182604819536209
1716737734543641000,10.78764111328125,9.80216121673584,0.033518824726343155,0.06464344263076782
1716737734553641200,10.79764111328125,9.787796020507812,0.033518824726343155,0.05985504388809204
1716737734563641000,10.80764111328125,9.76864242553711,0.05267243832349777,0.06464344263076782
1716737734573641200,10.81764111328125,9.790189743041992,0.0454898327589035,0.06224924325942993
1716737734583641000,10.82764111328125,9.806949615478516,0.0454898327589035,0.0694318488240242
1716737734593641200,10.83764111328125,9.78061294555664,0.06464344263076782,0.0454898327589035
1716737734603641000,10.84764111328125,9.775824546813965,0.0454898327589035,0.05506663769483566
1716737734613641200,10.85764111328125,9.790189743041992,0.038307227194309235,0.05267243832349777
1716737734623641000,10.86764111328125,9.792584419250488,0.05267243832349777,0.040701430290937424
1716737734633641200,10.87764111328125,9.785401344299316,0.040701430290937424,0.07900865375995636
1716737734643641000,10.88764111328125,9.78061294555664,0.047884032130241394,0.047884032130241394
1716737734653641200,10.89764111328125,9.783007621765137,0.0454898327589035,0.05027823522686958
1716737734663641000,10.90764111328125,9.799766540527344,0.05267243832349777,0.0454898327589035
1716737734673641200,10.91764111328125,9.787796020507812,0.035913024097681046,0.0454898327589035
1716737734683641000,10.92764111328125,9.778219223022461,0.05506663769483566,0.05746084079146385
1716737734693641200,10.93764111328125,9.797372817993164,0.0454898327589035,0.05267243832349777
1716737734703641000,10.94764111328125,9.797372817993164,0.047884032130241394,0.05267243832349777
1716737734713641200,10.95764111328125,9.771036148071289,0.0454898327589035,0.05267243832349777
1716737734723641000,10.96764111328125,9.775824546813965,0.026336219161748886,0.043095629662275314
1716737734733641200,10.97764111328125,9.797372817993164,0.043095629662275314,0.05985504388809204
1716737734743641000,10.98764111328125,9.80455493927002,0.05267243832349777,0.06703764945268631
1716737734753641200,10.99764111328125,9.783007621765137,0.033518824726343155,0.0454898327589035
1716737734763641000,11.00764111328125,9.78061294555664,0.035913024097681046,0.05027823522686958
1716737734773641200,11.01764111328125,9.783007621765137,0.040701430290937424,0.06224924325942993
1716737734783641000,11.02764111328125,9.799766540527344,0.047884032130241394,0.05746084079146385
1716737734793641200,11.03764111328125,9.783007621765137,0.035913024097681046,0.047884032130241394
1716737734803641000,11.04764111328125,9.785401344299316,0.05027823522686958,0.05506663769483566
1716737734813641200,11.05764111328125,9.792584419250488,0.043095629662275314,0.05985504388809204
1716737734823641000,11.06764111328125,9.792584419250488,0.05506663769483566,0.043095629662275314
1716737734833641200,11.07764111328125,9.792584419250488,0.047884032130241394,0.05267243832349777
1716737734843641000,11.08764111328125,9.773430824279785,0.05506663769483566,0.05985504388809204
1716737734853641200,11.09764111328125,9.783007621765137,0.05027823522686958,0.038307227194309235
1716737734863641000,11.10764111328125,9.78061294555664,0.043095629662275314,0.07422025501728058
1716737734873641200,11.11764111328125,9.778219223022461,0.031124621629714966,0.05985504388809204
1716737734883641000,11.12764111328125,9.78061294555664,0.043095629662275314,0.05267243832349777
1716737734893641200,11.13764111328125,9.773430824279785,0.047884032130241394,0.05746084079146385
1716737734903641000,11.14764111328125,9.799766540527344,0.040701430290937424,0.05506663769483566
1716737734913641200,11.15764111328125,9.794978141784668,0.05506663769483566,0.05746084079146385
1716737734923641000,11.16764111328125,9.778219223022461,0.040701430290937424,0.0454898327589035
1716737734933641200,11.17764111328125,9.775824546813965,0.035913024097681046,0.0454898327589035
1716737734943641000,11.18764111328125,9.792584419250488,0.047884032130241394,0.05985504388809204
1716737734953641200,11.19764111328125,9.785401344299316,0.035913024097681046,0.05027823522686958
1716737734963641000,11.20764111328125,9.785401344299316,0.047884032130241394,0.05267243832349777
1716737734973641200,11.21764111328125,9.797372817993164,0.035913024097681046,0.031124621629714966
1716737734983641000,11.22764111328125,9.797372817993164,0.0454898327589035,0.047884032130241394
1716737734993641200,11.23764111328125,9.787796020507812,0.038307227194309235,0.07182604819536209
1716737735003641000,11.24764111328125,9.787796020507812,0.040701430290937424,0.05985504388809204
1716737735013641200,11.25764111328125,9.78061294555664,0.038307227194309235,0.05267243832349777
1716737735023641000,11.26764111328125,9.783007621765137,0.06703764945268631,0.06224924325942993
1716737735033641200,11.27764111328125,9.794978141784668,0.040701430290937424,0.05506663769483566
1716737735043641000,11.28764111328125,9.778219223022461,0.047884032130241394,0.05506663769483566
1716737735053641200,11.29764111328125,9.794978141784668,0.05027823522686958,0.05985504388809204
1716737735063641000,11.30764111328125,9.792584419250488,0.043095629662275314,0.047884032130241394
1716737735073641200,11.31764111328125,9.799766540527344,0.035913024097681046,0.05027823522686958
1716737735083641000,11.32764111328125,9.790189743041992,0.031124621629714966,0.06703764945268631
1716737735093641200,11.33764111328125,9.792584419250488,0.040701430290937424,0.05746084079146385
1716737735103641000,11.34764111328125,9.790189743041992,0.033518824726343155,0.05027823522686958
1716737735113641200,11.35764111328125,9.775824546813965,0.040701430290937424,0.05746084079146385
1716737735123641000,11.36764111328125,9.794978141784668,0.035913024097681046,0.0694318488240242
1716737735133641200,11.37764111328125,9.783007621765137,0.07182604819536209,0.05506663769483566
1716737735143641000,11.38764111328125,9.794978141784668,0.047884032130241394,0.05985504388809204
1716737735153641200,11.39764111328125,9.792584419250488,0.031124621629714966,0.05746084079146385
1716737735163641000,11.40764111328125,9.790189743041992,0.047884032130241394,0.043095629662275314
1716737735173641200,11.41764111328125,9.792584419250488,0.033518824726343155,0.05027823522686958
1716737735183641000,11.42764111328125,9.790189743041992,0.0454898327589035,0.043095629662275314
1716737735193641200,11.43764111328125,9.797372817993164,0.040701430290937424,0.06224924325942993
1716737735203641000,11.44764111328125,9.787796020507812,0.05985504388809204,0.05027823522686958
1716737735213641200,11.45764111328125,9.790189743041992,0.05746084079146385,0.05985504388809204
1716737735223641000,11.46764111328125,9.794978141784668,0.040701430290937424,0.05746084079146385
1716737735233641200,11.47764111328125,9.790189743041992,0.043095629662275314,0.0454898327589035
1716737735243641000,11.48764111328125,9.794978141784668,0.05267243832349777,0.033518824726343155
1716737735253641200,11.49764111328125,9.794978141784668,0.047884032130241394,0.07182604819536209
1716737735263641000,11.50764111328125,9.785401344299316,0.05267243832349777,0.06224924325942993
1716737735273641200,11.51764111328125,9.787796020507812,0.038307227194309235,0.05985504388809204
1716737735283641000,11.52764111328125,9.785401344299316,0.043095629662275314,0.05027823522686958
1716737735293641200,11.53764111328125,9.78061294555664,0.033518824726343155,0.07422025501728058
1716737735303641000,11.54764111328125,9.783007621765137,0.031124621629714966,0.040701430290937424
1716737735313641200,11.55764111328125,9.68005657196045,0.05027823522686958,0.05506663769483566
1716737735323641000,11.56764111328125,9.845256805419922,0.05506663769483566,0.05506663769483566
1716737735333641200,11.57764111328125,9.799766540527344,0.0454898327589035,0.05746084079146385
1716737735343641000,11.58764111328125,9.759065628051758,0.047884032130241394,0.05746084079146385
1716737735353641200,11.59764111328125,9.759065628051758,0.043095629662275314,0.05267243832349777
1716737735363641000,11.60764111328125,9.833285331726074,0.05027823522686958,0.05506663769483566
1716737735373641200,11.61764111328125,9.80216121673584,0.05506663769483566,0.040701430290937424
1716737735383641000,11.62764111328125,9.754277229309082,0.028730420395731926,0.043095629662275314
1716737735393641200,11.63764111328125,9.785401344299316,0.0454898327589035,0.043095629662275314
1716737735403641000,11.64764111328125,9.826103210449219,0.035913024097681046,0.05985504388809204
1716737735413641200,11.65764111328125,9.799766540527344,0.035913024097681046,0.05746084079146385
1716737735423641000,11.66764111328125,9.761459350585938,0.047884032130241394,0.05027823522686958
1716737735433641200,11.67764111328125,9.773430824279785,0.033518824726343155,0.06464344263076782
1716737735443641000,11.68764111328125,9.821314811706543,0.028730420395731926,0.06703764945268631
1716737735453641200,11.69764111328125,9.80455493927002,0.047884032130241394,0.05267243832349777
1716737735463641000,11.70764111328125,9.761459350585938,0.035913024097681046,0.05027823522686958
1716737735473641200,11.71764111328125,9.778219223022461,0.05267243832349777,0.05985504388809204
1716737735483641000,11.72764111328125,9.816526412963867,0.043095629662275314,0.06703764945268631
1716737735493641200,11.73764111328125,9.80455493927002,0.043095629662275314,0.05506663769483566
1716737735503641000,11.74764111328125,9.771036148071289,0.05267243832349777,0.06464344263076782
1716737735513641200,11.75764111328125,9.773430824279785,0.038307227194309235,0.07182604819536209
1716737735523641000,11.76764111328125,9.811738014221191,0.035913024097681046,0.05985504388809204
1716737735533641200,11.77764111328125,9.814131736755371,0.038307227194309235,0.043095629662275314
1716737735543641000,11.78764111328125,9.775824546813965,0.021547814831137657,0.043095629662275314
1716737735553641200,11.79764111328125,9.773430824279785,0.06464344263076782,0.06464344263076782
1716737735563641000,11.80764111328125,9.821314811706543,0.0454898327589035,0.047884032130241394
1716737735573641200,11.81764111328125,9.797372817993164,0.040701430290937424,0.05506663769483566
1716737735583641000,11.82764111328125,9.771036148071289,0.033518824726343155,0.06464344263076782
1716737735593641200,11.83764111328125,9.790189743041992,0.05267243832349777,0.05027823522686958
1716737735603641000,11.84764111328125,9.794978141784668,0.05027823522686958,0.05746084079146385
1716737735613641200,11.85764111328125,9.80216121673584,0.05027823522686958,0.05267243832349777
1716737735623641000,11.86764111328125,9.76864242553711,0.038307227194309235,0.05027823522686958
1716737735633641200,11.87764111328125,9.790189743041992,0.047884032130241394,0.05267243832349777
1716737735643641000,11.88764111328125,9.790189743041992,0.038307227194309235,0.06224924325942993
1716737735653641000,11.897640869140625,9.787796020507812,0.05506663769483566,0.05985504388809204
1716737735663641000,11.90764111328125,9.797372817993164,0.038307227194309235,0.07182604819536209
1716737735673641200,11.91764111328125,9.785401344299316,0.043095629662275314,0.0454898327589035
1716737735683641000,11.92764111328125,9.797372817993164,0.0454898327589035,0.05267243832349777
1716737735693641200,11.93764111328125,9.778219223022461,0.047884032130241394,0.05506663769483566
1716737735703641000,11.94764111328125,9.787796020507812,0.05985504388809204,0.05267243832349777
1716737735713641200,11.95764111328125,9.778219223022461,0.06224924325942993,0.043095629662275314
1716737735723641000,11.96764111328125,9.792584419250488,0.05027823522686958,0.05746084079146385
1716737735733641200,11.97764111328125,9.799766540527344,0.043095629662275314,0.043095629662275314
1716737735743641000,11.98764111328125,9.775824546813965,0.040701430290937424,0.05506663769483566
1716737735753641200,11.99764111328125,9.771036148071289,0.040701430290937424,0.06464344263076782
1716737735763641000,12.00764111328125,9.797372817993164,0.031124621629714966,0.05506663769483566
1716737735773641200,12.01764111328125,9.799766540527344,0.05027823522686958,0.040701430290937424
1716737735783641000,12.02764111328125,9.783007621765137,0.038307227194309235,0.05267243832349777
1716737735793641200,12.03764111328125,9.797372817993164,0.035913024097681046,0.0454898327589035
1716737735803641000,12.04764111328125,9.790189743041992,0.047884032130241394,0.05267243832349777
1716737735813641200,12.05764111328125,9.792584419250488,0.06224924325942993,0.043095629662275314
1716737735823641000,12.06764111328125,9.787796020507812,0.0454898327589035,0.047884032130241394
1716737735833641200,12.07764111328125,9.797372817993164,0.05985504388809204,0.06703764945268631
1716737735843641000,12.08764111328125,9.790189743041992,0.043095629662275314,0.05267243832349777
1716737735853641200,12.09764111328125,9.794978141784668,0.05267243832349777,0.06224924325942993
1716737735863641000,12.10764111328125,9.78061294555664,0.05506663769483566,0.05267243832349777
1716737735873641200,12.11764111328125,9.797372817993164,0.05027823522686958,0.0454898327589035
1716737735883641000,12.12764111328125,9.80216121673584,0.040701430290937424,0.05985504388809204
1716737735893641200,12.13764111328125,9.794978141784668,0.06464344263076782,0.06703764945268631
1716737735903641000,12.14764111328125,9.792584419250488,0.043095629662275314,0.043095629662275314
1716737735913641200,12.15764111328125,9.783007621765137,0.040701430290937424,0.047884032130241394
1716737735923641000,12.16764111328125,9.792584419250488,0.043095629662275314,0.0454898327589035
1716737735933641200,12.17764111328125,9.797372817993164,0.043095629662275314,0.05027823522686958
1716737735943641000,12.18764111328125,9.794978141784668,0.0454898327589035,0.05506663769483566
1716737735953641200,12.19764111328125,9.797372817993164,0.043095629662275314,0.06703764945268631
1716737735963641000,12.20764111328125,9.783007621765137,0.06224924325942993,0.06224924325942993
1716737735973641200,12.21764111328125,9.785401344299316,0.038307227194309235,0.040701430290937424
1716737735983641000,12.22764111328125,9.790189743041992,0.033518824726343155,0.038307227194309235
1716737735993641200,12.23764111328125,9.78061294555664,0.040701430290937424,0.035913024097681046
1716737736003641000,12.24764111328125,9.785401344299316,0.0454898327589035,0.047884032130241394
1716737736013641200,12.25764111328125,9.806949615478516,0.038307227194309235,0.0694318488240242
1716737736023641000,12.26764111328125,9.787796020507812,0.040701430290937424,0.05506663769483566
1716737736033641200,12.27764111328125,9.797372817993164,0.047884032130241394,0.07182604819536209
1716737736043641000,12.28764111328125,9.80216121673584,0.040701430290937424,0.05985504388809204
1716737736053641200,12.29764111328125,9.785401344299316,0.05267243832349777,0.05267243832349777
1716737736063641000,12.30764111328125,9.794978141784668,0.043095629662275314,0.0454898327589035
1716737736073641200,12.31764111328125,9.787796020507812,0.038307227194309235,0.06464344263076782
1716737736083641000,12.32764111328125,9.787796020507812,0.0454898327589035,0.05985504388809204
1716737736093641200,12.33764111328125,9.790189743041992,0.0454898327589035,0.05267243832349777
1716737736103641000,12.34764111328125,9.787796020507812,0.038307227194309235,0.05027823522686958
1716737736113641200,12.35764111328125,9.778219223022461,0.047884032130241394,0.05027823522686958
1716737736123641300,12.367641357421874,9.80455493927002,0.0454898327589035,0.05027823522686958
1716737736133641200,12.37764111328125,9.794978141784668,0.05027823522686958,0.05985504388809204
1716737736143641000,12.38764111328125,9.787796020507812,0.043095629662275314,0.06464344263076782
1716737736153641200,12.39764111328125,9.792584419250488,0.047884032130241394,0.05746084079146385
1716737736163641000,12.40764111328125,9.78061294555664,0.033518824726343155,0.05506663769483566
1716737736173641200,12.41764111328125,9.794978141784668,0.05027823522686958,0.047884032130241394
1716737736183641000,12.42764111328125,9.787796020507812,0.038307227194309235,0.06224924325942993
1716737736193641200,12.43764111328125,9.773430824279785,0.047884032130241394,0.047884032130241394
1716737736203641000,12.44764111328125,9.783007621765137,0.0454898327589035,0.08140286058187485
1716737736213641200,12.45764111328125,9.799766540527344,0.038307227194309235,0.06464344263076782
1716737736223641000,12.46764111328125,9.787796020507812,0.047884032130241394,0.06224924325942993
1716737736233641200,12.47764111328125,9.76864242553711,0.05027823522686958,0.047884032130241394
1716737736243641000,12.48764111328125,9.854833602905273,0.05506663769483566,0.0454898327589035
1716737736253641200,12.49764111328125,9.80216121673584,0.031124621629714966,0.035913024097681046
1716737736263641000,12.50764111328125,9.761459350585938,0.033518824726343155,0.07182604819536209
1716737736273641200,12.51764111328125,9.787796020507812,0.05267243832349777,0.05027823522686958
1716737736283641000,12.52764111328125,9.828496932983398,0.040701430290937424,0.05267243832349777
1716737736293641200,12.53764111328125,9.80216121673584,0.05746084079146385,0.047884032130241394
1716737736303641000,12.54764111328125,9.761459350585938,0.05506663769483566,0.06464344263076782
1716737736313641200,12.55764111328125,9.771036148071289,0.05027823522686958,0.07422025501728058
1716737736323641000,12.56764111328125,9.816526412963867,0.05746084079146385,0.07182604819536209
1716737736333641200,12.57764111328125,9.823708534240723,0.033518824726343155,0.07422025501728058
1716737736343641000,12.58764111328125,9.756670951843262,0.035913024097681046,0.05985504388809204
1716737736353640700,12.597640625,9.797372817993164,0.05267243832349777,0.05985504388809204
1716737736363640800,12.607640869140624,9.809343338012695,0.06224924325942993,0.05985504388809204
1716737736373640700,12.617640625,9.792584419250488,0.05506663769483566,0.05746084079146385
1716737736383640800,12.627640869140626,9.76864242553711,0.05027823522686958,0.06224924325942993
1716737736393640700,12.637640625,9.783007621765137,0.05267243832349777,0.07422025501728058
1716737736403640800,12.647640869140625,9.818920135498047,0.07182604819536209,0.043095629662275314
1716737736413640700,12.657640625,9.783007621765137,0.05267243832349777,0.035913024097681046
1716737736423640600,12.667640625,9.761459350585938,0.0454898327589035,0.047884032130241394
1716737736433640700,12.677640625,9.790189743041992,0.035913024097681046,0.043095629662275314
1716737736443640600,12.687640625,9.809343338012695,0.05267243832349777,0.0454898327589035
1716737736453640700,12.697640625,9.806949615478516,0.0454898327589035,0.026336219161748886
1716737736463640600,12.707640625,9.790189743041992,0.05506663769483566,0.05985504388809204
1716737736473640700,12.717640625,9.785401344299316,0.05267243832349777,0.047884032130241394
1716737736483640600,12.727640625,9.811738014221191,0.07422025501728058,0.047884032130241394
1716737736493640700,12.737640625,9.80216121673584,0.05746084079146385,0.05985504388809204
1716737736503640600,12.747640625,9.775824546813965,0.05506663769483566,0.05027823522686958
1716737736513640700,12.757640625,9.787796020507812,0.035913024097681046,0.06703764945268631
1716737736523640600,12.767640625,9.811738014221191,0.043095629662275314,0.06224924325942993
1716737736533640700,12.777640625,9.806949615478516,0.038307227194309235,0.05267243832349777
1716737736543640600,12.787640625,9.771036148071289,0.035913024097681046,0.07661445438861847
1716737736553640700,12.797640625,9.80216121673584,0.031124621629714966,0.035913024097681046
1716737736563640600,12.807640625,9.806949615478516,0.031124621629714966,0.05985504388809204
1716737736573640700,12.817640625,9.790189743041992,0.040701430290937424,0.05027823522686958
1716737736583640600,12.827640625,9.787796020507812,0.040701430290937424,0.05506663769483566
1716737736593640700,12.837640625,9.783007621765137,0.043095629662275314,0.06464344263076782
1716737736603640600,12.847640625,9.806949615478516,0.038307227194309235,0.05027823522686958
1716737736613640700,12.857640625,9.799766540527344,0.05267243832349777,0.06703764945268631
1716737736623640600,12.867640625,9.785401344299316,0.031124621629714966,0.0454898327589035
1716737736633640700,12.877640625,9.792584419250488,0.0454898327589035,0.05506663769483566
1716737736643640600,12.887640625,9.790189743041992,0.05027823522686958,0.06224924325942993
1716737736653641200,12.89764111328125,9.799766540527344,0.0454898327589035,0.040701430290937424
1716737736663641000,12.90764111328125,9.790189743041992,0.0454898327589035,0.0454898327589035
1716737736673641200,12.91764111328125,9.78061294555664,0.05746084079146385,0.047884032130241394
