time,seconds_elapsed,z,y,x
1717858363587577600,0.09157763671875,0.005051483865827322,0.008281099610030651,-0.00618172949180007
1717858363597617700,0.10161767578125,0.003704723436385393,0.008310927078127861,-0.006404902320355177
1717858363607658800,0.11165869140625,0.003999535460025072,0.010519219562411308,-0.005380916874855757
1717858363617698600,0.121698486328125,0.0026639599818736315,0.010036388412117958,-0.0062280683778226376
1717858363627739600,0.13173974609375,0.004387824330478907,0.009444634430110455,-0.007336475886404514
1717858363637780700,0.14178076171875,0.0038245655596256256,0.008161789737641811,-0.004417917691171169
1717858363647820800,0.15182080078125,0.0025209481827914715,0.008730906993150711,-0.006695985794067383
1717858363657861600,0.161861572265625,0.00427357479929924,0.008007858879864216,-0.005622731987386942
1717858363667902700,0.17190283203125,0.004199805203825235,0.008806540630757809,-0.006456301547586918
1717858363677942500,0.181942626953125,0.003915379289537668,0.009845440275967121,-0.0068448567762970924
1717858363687983600,0.191983642578125,0.0043870252557098866,0.009819873608648777,-0.005170793738216162
1717858363698023700,0.202023681640625,0.004658401478081942,0.009577792137861252,-0.005905027035623789
1717858363708064500,0.212064453125,0.0035518580116331577,0.008675513789057732,-0.004879443906247616
1717858363718105600,0.222105712890625,0.004042944870889187,0.009950102306902409,-0.005888249259442091
1717858363728145700,0.232145751953125,0.0041193775832653046,0.009278452955186367,-0.007196393795311451
1717858363738186500,0.2421865234375,0.0033811493776738644,0.008321845903992653,-0.0059479037299752235
1717858363748227000,0.25222705078125,0.003379817819222808,0.010282465256750584,-0.00723527604714036
1717858363758267100,0.26226708984375,0.0036764938849955797,0.00980336219072342,-0.006085589528083801
1717858363768308200,0.27230810546875,0.004287156742066145,0.009542372077703476,-0.006337258033454418
1717858363778349000,0.28234912109375,0.0038954056799411774,0.009298427030444145,-0.006368417292833328
1717858363788389000,0.29238916015625,0.005082110408693552,0.00996421743184328,-0.0055090151727199554
1717858363798430200,0.30243017578125,0.0037886130157858133,0.00917112734168768,-0.00509995361790061
1717858363808470300,0.31247021484375,0.0034581145737320185,0.00999031588435173,-0.0051505533047020435
1717858363818511400,0.322511474609375,0.003334810258820653,0.00948218535631895,-0.005667473189532757
1717858363828552200,0.33255224609375,0.004537493921816349,0.00908537395298481,-0.0062491074204444885
1717858363838592300,0.34259228515625,0.003674895968288183,0.009739180095493793,-0.004526575095951557
1717858363848633300,0.35263330078125,0.004595550708472729,0.009368468075990677,-0.004984105937182903
1717858363858674200,0.362674072265625,0.004248540848493576,0.009638246148824692,-0.006603041663765907
1717858363868714200,0.37271435546875,0.0031241541728377342,0.008186557330191135,-0.00824807584285736
1717858363878755300,0.38275537109375,0.0031257520895451307,0.009399360977113247,-0.007646468002349138
1717858363888796400,0.39279638671875,0.004890895448625088,0.00884968414902687,-0.0068243504501879215
1717858363898836200,0.402836181640625,0.0037678403314203024,0.007577226031571627,-0.00484215933829546
1717858363908877000,0.412876953125,0.00512844929471612,0.008078699000179768,-0.0070523167960345745
1717858363918917000,0.422917236328125,0.005033107940107584,0.009158877655863762,-0.005053082015365362
1717858363928958200,0.432958251953125,0.00341577036306262,0.009855293668806553,-0.005544967483729124
1717858363938999300,0.442999267578125,0.004554538056254387,0.009353553876280785,-0.0073175677098333836
1717858363949039000,0.4530390625,0.0027164241764694452,0.008773251436650753,-0.007637413218617439
1717858363959080200,0.463080078125,0.003498861100524664,0.009393502026796341,-0.005703425966203213
1717858363969121300,0.473121337890625,0.0025031049735844135,0.007991081103682518,-0.005921804811805487
1717858363979161300,0.483161376953125,0.003916444722563028,0.009644105099141598,-0.003165699541568756
1717858363989202200,0.4932021484375,0.0018796591321006417,0.00845819991081953,-0.005004878621548414
1717858363999242200,0.5032421875,0.0046970173716545105,0.008867527358233929,-0.005570267792791128
1717858364009283300,0.513283447265625,0.003172357566654682,0.009131180122494698,-0.007641141768544912
1717858364019324400,0.523324462890625,0.0035475967451930046,0.008386827073991299,-0.005678392015397549
1717858364029364200,0.5333642578125,0.004530036821961403,0.010125870816409588,-0.003979295492172241
1717858364039405300,0.5434052734375,0.0036360137164592743,0.00887924525886774,-0.005534315016120672
1717858364049446400,0.5534462890625,0.00330258603207767,0.007666974328458309,-0.0057617491111159325
1717858364059486200,0.563486328125,0.004306331276893616,0.00971760880202055,-0.005880259443074465
1717858364069527000,0.573527099609375,0.004011785611510277,0.008771386928856373,-0.007178550586104393
1717858364079568100,0.583568115234375,0.0030386666767299175,0.009533584117889404,-0.004195277579128742
1717858364089608200,0.593608154296875,0.003946538548916578,0.009506153874099255,-0.006560164503753185
1717858364099649300,0.603649169921875,0.0052056810818612576,0.009216934442520142,-0.0051630702801048756
1717858364109690000,0.613690185546875,0.003442934714257717,0.00942013319581747,-0.0070528495125472546
1717858364119730200,0.623730224609375,0.002373941708356142,0.009469402022659779,-0.005905027035623789
1717858364129771300,0.633771240234375,0.003293797606602311,0.01019617822021246,-0.004848284646868706
1717858364139811300,0.643811279296875,0.002757703186944127,0.00884995050728321,-0.005423261318355799
1717858364149852200,0.65385205078125,0.004034156445413828,0.00737296137958765,-0.005518335849046707
1717858364159893200,0.663893310546875,0.005060005933046341,0.009089634753763676,-0.004989432170987129
1717858364169933300,0.673933349609375,0.0033273533917963505,0.009282181970775127,-0.00669305631890893
1717858364179974400,0.683974365234375,0.003329217666760087,0.00875194650143385,-0.006165750324726105
1717858364190015200,0.69401513671875,0.004742290824651718,0.009800433181226254,-0.005577191710472107
1717858364200055000,0.704054931640625,0.004956408869475126,0.009159144014120102,-0.005437375977635384
1717858364210096000,0.71409619140625,0.004125502891838551,0.007681355345994234,-0.005562012083828449
1717858364220137200,0.72413720703125,0.003043460426852107,0.00887738075107336,-0.005645102355629206
1717858364230177300,0.73417724609375,0.004224039614200592,0.008688828907907009,-0.005281847435981035
1717858364240218000,0.744218017578125,0.0034117756877094507,0.0085439532995224,-0.005197425372898579
1717858364250258200,0.754258056640625,0.003757720347493887,0.009592972695827484,-0.00541314110159874
1717858364260299300,0.76429931640625,0.003996339626610279,0.008221178315579891,-0.0070792147889733315
1717858364270340000,0.774340087890625,0.005076517816632986,0.007441937457770109,-0.006910370197147131
1717858364280380200,0.784380126953125,0.0034908715169876814,0.008495217189192772,-0.005795304663479328
1717858364290421200,0.794421142578125,0.003355582943186164,0.008352738805115223,-0.0059449742548167706
1717858364300462300,0.80446240234375,0.0036394759081304073,0.009180448949337006,-0.0055151404812932014
1717858364310502400,0.81450244140625,0.0035960664972662926,0.009444900788366795,-0.0056951697915792465
1717858364320543200,0.824543212890625,0.003976631909608841,0.008929844945669174,-0.005542304366827011
1717858364330584300,0.834584228515625,0.0034764904994517565,0.008607602678239346,-0.004822984803467989
1717858364340624400,0.844624267578125,0.0036946034524589777,0.008478705771267414,-0.006709834095090628
1717858364350665200,0.854665283203125,0.003710582386702299,0.008824916556477547,-0.005548696033656597
1717858364360706300,0.864706298828125,0.0037345506716519594,0.009126652963459492,-0.005392901133745909
1717858364370746000,0.87474609375,0.004840561654418707,0.008755141869187355,-0.005045358557254076
1717858364380787200,0.884787109375,0.004286091309040785,0.009124788455665112,-0.005173456855118275
1717858364390827300,0.8948271484375,0.004561994690448046,0.009922938421368599,-0.004649346694350243
1717858364400868000,0.9048681640625,0.004218979738652706,0.008764995262026787,-0.004742823541164398
1717858364410909200,0.9149091796875,0.0032722260802984238,0.00948085356503725,-0.005801429972052574
1717858364420949200,0.92494921875,0.004177700728178024,0.010369816794991493,-0.0046091326512396336
1717858364430990300,0.934990234375,0.003990480676293373,0.010162356309592724,-0.004345479886978865
1717858364441031200,0.94503125,0.004602741450071335,0.009618272073566914,-0.005510879214853048
1717858364451071200,0.9550712890625,0.0049063414335250854,0.009582053869962692,-0.007109042257070541
1717858364461112300,0.9651123046875,0.0054123420268297195,0.009308014065027237,-0.0067934575490653515
1717858364471153200,0.975153076171875,0.003111104713752866,0.009641707874834538,-0.006617955397814512
1717858364481193200,0.985193115234375,0.0038365498185157776,0.013050554320216179,-0.005510879214853048
1717858364491234300,0.995234375,0.00464641721919179,0.00875301193445921,-0.00569916469976306
1717858364501275400,1.005275390625,0.0031587753910571337,0.00869202520698309,-0.00461552431806922
1717858364511315500,1.0153154296875,0.00487198680639267,0.008741027675569057,-0.005847502965480089
1717858364521356300,1.025356201171875,0.004322843160480261,0.008334096521139145,-0.00640889722853899
1717858364531396000,1.03539599609375,0.0025212145410478115,0.008331965655088425,-0.0041334922425448895
1717858364541437200,1.045437255859375,0.0032842103391885757,0.008820922113955021,-0.004430701024830341
1717858364551478300,1.055478271484375,0.0032828785479068756,0.009017995558679104,-0.006116748321801424
1717858364561518000,1.06551806640625,0.004702343605458736,0.00863183755427599,-0.0049257827922701836
1717858364571559200,1.07555908203125,0.004108458757400513,0.009310144931077957,-0.004679706413298845
1717858364581600300,1.085600341796875,0.0046882289461791515,0.009614543989300728,-0.0065345983020961285
1717858364591640300,1.095640380859375,0.005354018881917,0.009899236261844635,-0.005378786474466324
1717858364601681200,1.10568115234375,0.004388889297842979,0.008490423671901226,-0.007195328362286091
1717858364611722200,1.11572216796875,0.0046762446872889996,0.00905581284314394,-0.006255765445530415
1717858364621762300,1.12576220703125,0.004085821565240622,0.008559399284422398,-0.0035771578550338745
1717858364631803400,1.135803466796875,0.00344533147290349,0.008778844028711319,-0.005567071959376335
1717858364641844200,1.14584423828125,0.0031004520133137703,0.00803395826369524,-0.006456301547586918
1717858364651884300,1.15588427734375,0.004042145796120167,0.008160990662872791,-0.004792624618858099
1717858364661925400,1.16592529296875,0.004181961994618177,0.008745288476347923,-0.005585714243352413
1717858364671965200,1.175965087890625,0.004544417839497328,0.009674465283751488,-0.005763080436736345
1717858364682006000,1.186006103515625,0.003310841741040349,0.009490440599620342,-0.005630721338093281
1717858364692047000,1.196047119140625,0.0041124531999230385,0.008345548063516617,-0.004772384651005268
1717858364702087200,1.206087158203125,0.003157177474349737,0.008832107298076153,-0.006899451371282339
1717858364712128300,1.216128173828125,0.004382763989269733,0.010147709399461746,-0.006316218990832567
1717858364722169000,1.226169189453125,0.003890878288075328,0.008835303597152233,-0.005401955917477608
1717858364732209200,1.236209228515625,0.002174471039324999,0.008832906372845173,-0.006371879018843174
1717858364742249700,1.246249755859375,0.003659183392301202,0.008694954216480255,-0.005425391718745232
1717858364752290800,1.256290771484375,0.0032415995374321938,0.007691475562751293,-0.0070307450369000435
1717858364762331000,1.266330810546875,0.004030161537230015,0.008346613496541977,-0.004758003633469343
1717858364772371700,1.276371826171875,0.003175287041813135,0.007720503956079483,-0.00478277076035738
1717858364782412800,1.286412841796875,0.0029859361238777637,0.009454754181206226,-0.005511411931365728
1717858364792452900,1.296452880859375,0.00446851784363389,0.00851492490619421,-0.004993693437427282
1717858364802493700,1.30649365234375,0.004779575392603874,0.00833569373935461,-0.006196909584105015
1717858364812534800,1.31653466796875,0.0027598338201642036,0.01028619334101677,-0.005510879214853048
1717858364822574600,1.32657470703125,0.0034344124142080545,0.008508266881108284,-0.006145243998616934
1717858364832615700,1.33661572265625,0.003913781605660915,0.008728244341909885,-0.006185990758240223
1717858364842655700,1.34665576171875,0.0026040389202535152,0.010999920777976513,-0.0059937103651463985
1717858364852696600,1.356696533203125,0.003686347510665655,0.008009190671145916,-0.005587311927229166
1717858364862737700,1.366737548828125,0.004266117699444294,0.008288023993372917,-0.006259493995457888
1717858364872777700,1.37677783203125,0.0031915323343127966,0.00971787516027689,-0.005565740168094635
1717858364882818800,1.38681884765625,0.003864779369905591,0.009857957251369953,-0.005842708982527256
1717858364892859600,1.396859619140625,0.003951598424464464,0.008791893720626831,-0.005402488633990288
1717858364902899700,1.406899658203125,0.004728442523628473,0.00875274557620287,-0.005032575689256191
1717858364912940800,1.41694091796875,0.004733236040920019,0.0097423754632473,-0.005915413144975901
1717858364922981600,1.426981689453125,0.003037601476535201,0.008094144985079765,-0.006827545817941427
1717858364933021700,1.437021728515625,0.004859736189246178,0.009544236585497856,-0.006335127633064985
1717858364943062800,1.447062744140625,0.0027214842848479748,0.008413191884756088,-0.0052107409574091434
1717858364953102800,1.457102783203125,0.005374791566282511,0.010192450135946274,-0.005644835997372866
1717858364963144000,1.46714404296875,0.0038602519780397415,0.007726096548140049,-0.006399309728294611
1717858364973184800,1.477184814453125,0.0035119105596095324,0.008582568727433681,-0.005437642335891724
1717858364983224600,1.487224609375,0.004314054735004902,0.009310411289334297,-0.00558092026039958
1717858364993265700,1.497265625,0.00401524780318141,0.009867810644209385,-0.0061535001732409
1717858365003306800,1.507306640625,0.006739395204931498,0.009563677944242954,-0.0062674833461642265
1717858365013346600,1.5173466796875,0.002531600883230567,0.00939163751900196,-0.005712480284273624
1717858365023387600,1.5273876953125,0.004620584659278393,0.009404420852661133,-0.007533017545938492
1717858365033428700,1.5374287109375,0.005964415613561869,0.008052067831158638,-0.006894924212247133
1717858365043468800,1.54746875,0.00487145408987999,0.00774660287424922,-0.005401423200964928
1717858365053509600,1.557509521484375,0.0039854203350842,0.008323975838720798,-0.00395719101652503
1717858365063550700,1.56755078125,0.002597647253423929,0.00939083844423294,-0.006414489820599556
1717858365073590800,1.5775908203125,0.0031523837242275476,0.008492021821439266,-0.006217682268470526
1717858365083631900,1.5876318359375,0.0036709012929350138,0.010407366789877415,-0.006967362016439438
1717858365093671700,1.597671630859375,0.0034442662727087736,0.00959936436265707,-0.005917277652770281
1717858365103712800,1.607712646484375,0.005672533065080643,0.008375641889870167,-0.004708468914031982
1717858365113753900,1.61775390625,0.00507039250805974,0.008888034150004387,-0.006789196282625198
1717858365123794000,1.6277939453125,0.003251187037676573,0.009466738440096378,-0.006669354159384966
1717858365133834800,1.637834716796875,0.002773682354018092,0.008680040948092937,-0.00526773277670145
1717858365143875800,1.647875732421875,0.00518810423091054,0.009214004501700401,-0.005930593237280846
1717858365153915600,1.65791552734375,0.004473311826586723,0.01025769766420126,-0.0051686628721654415
1717858365163956700,1.667956787109375,0.004295678809285164,0.009489108808338642,-0.006946589332073927
1717858365173997600,1.67799755859375,0.0033806166611611843,0.008191883563995361,-0.005289304070174694
1717858365184037600,1.68803759765625,0.0024431839119642973,0.009410279802978039,-0.004814994987100363
1717858365194078700,1.69807861328125,0.0037465349305421114,0.008010788820683956,-0.006168147549033165
1717858365204119800,1.708119873046875,0.003936684690415859,0.008393218740820885,-0.007837416604161263
1717858365214159600,1.71815966796875,0.00307541829533875,0.008498147130012512,-0.005992378573864698
1717858365224200700,1.72820068359375,0.0052110073156654835,0.01011042483150959,-0.005596633069217205
1717858365234241800,1.73824169921875,0.002216815249994397,0.009241967462003231,-0.006192381959408522
1717858365244281900,1.74828173828125,0.004710599314421415,0.008250206708908081,-0.0052197957411408424
1717858365254322700,1.75832275390625,0.0014053500490263104,0.008885903283953667,-0.005092496518045664
1717858365264362800,1.76836279296875,0.004787564743310213,0.009565009735524654,-0.005780390929430723
1717858365274403800,1.77840380859375,0.0041252365335822105,0.008784969337284565,-0.006715427152812481
1717858365284445000,1.78844482421875,0.0026770094409585,0.01064971461892128,-0.00532419141381979
1717858365294484700,1.798484619140625,0.0031441280152648687,0.009036904200911522,-0.005906891077756882
1717858365304525600,1.808525634765625,0.004749481566250324,0.008607336319983006,-0.006650179624557495
1717858365314566700,1.818566650390625,0.004800880327820778,0.009929862804710865,-0.005339371506124735
1717858365324606700,1.828606689453125,0.004458930809050798,0.008567655459046364,-0.005927131045609713
1717858365334647600,1.8386474609375,0.0030482541769742966,0.00939163751900196,-0.005209675524383783
1717858365344688600,1.848688720703125,0.004093545023351908,0.009579123929142952,-0.004091946873813868
1717858365354728700,1.858728759765625,0.004136155359447002,0.010267284698784351,-0.005919940769672394
1717858365364769800,1.868769775390625,0.005081844050437212,0.00851199496537447,-0.006518619135022163
1717858365374809900,1.878809814453125,0.002011485630646348,0.009559948928654194,-0.005170261021703482
1717858365384850700,1.8888505859375,0.0030538467690348625,0.008252870291471481,-0.006926615722477436
1717858365394891800,1.898891845703125,0.005375324282795191,0.009131446480751038,-0.006341785658150911
1717858365404931800,1.908931884765625,0.004180097486823797,0.00848563015460968,-0.00558278476819396
1717858365414972700,1.91897265625,0.00503976596519351,0.008565524592995644,-0.0054512242786586285
1717858365425013800,1.929013671875,0.004484497010707855,0.010382600128650665,-0.008009190671145916
1717858365435053800,1.9390537109375,0.0023403859231621027,0.007633684668689966,-0.006220611743628979
1717858365445095000,1.949094970703125,0.003492735791951418,0.00956953689455986,-0.005642439238727093
1717858365455135700,1.9591357421875,0.0033004553988575935,0.008267250843346119,-0.005484247580170631
1717858365465175600,1.969175537109375,0.004790227860212326,0.00980549305677414,-0.007158044259995222
1717858365475216600,1.979216552734375,0.004821653012186289,0.009618804790079594,-0.006180131807923317
1717858365485257700,1.9892578125,0.0037907434161752462,0.009215869009494781,-0.0057494984939694405
1717858365495297800,1.9992978515625,0.002861832967028022,0.009892844595015049,-0.005407548509538174
1717858365505338600,2.009338623046875,0.004192614462226629,0.009837450459599495,-0.006731938570737839
1717858365515378700,2.019378662109375,0.004037618637084961,0.008869391866028309,-0.005760150961577892
1717858365525419800,2.029419677734375,0.0032115059439092875,0.008665925823152065,-0.005066663958132267
1717858365535460600,2.039460693359375,0.004916728008538485,0.010327205993235111,-0.0046328348107635975
1717858365545500700,2.049500732421875,0.003064233111217618,0.009899502620100975,-0.005619269795715809
1717858365555541800,2.059541748046875,0.004745753016322851,0.008773517794907093,-0.007084807381033897
1717858365565582800,2.069582763671875,0.004513525404036045,0.009885920211672783,-0.0036719664931297302
1717858365575623000,2.079622802734375,0.004535363521426916,0.009629989974200726,-0.006149771623313427
1717858365585663700,2.089663818359375,0.0036783581599593163,0.008314388804137707,-0.005344165489077568
1717858365595704800,2.099704833984375,0.003674895968288183,0.008532235398888588,-0.006966296583414078
1717858365605745000,2.109744873046875,0.0034826158080250025,0.009186574257910252,-0.006086654495447874
1717858365615785700,2.11978564453125,0.003058640519157052,0.009641974233090878,-0.005114068277180195
1717858365625826800,2.129826904296875,0.004481833893805742,0.009023056365549564,-0.006653375457972288
1717858365635866600,2.13986669921875,0.0030426615849137306,0.008286692202091217,-0.005903695244342089
1717858365645907700,2.14990771484375,0.004285558592528105,0.009253685362637043,-0.004740160424262285
1717858365655948500,2.159948486328125,0.004416320007294416,0.008932242169976234,-0.006963367108255625
1717858365665988600,2.169988525390625,0.005085039883852005,0.007703992538154125,-0.007529555354267359
1717858365676029700,2.18002978515625,0.004260791465640068,0.00962572917342186,-0.0057649449445307255
1717858365686070800,2.19007080078125,0.00418249424546957,0.009944776073098183,-0.007074953522533178
1717858365696110800,2.20011083984375,0.004166781902313232,0.009485380724072456,-0.00621129060164094
1717858365706151700,2.210151611328125,0.0059779975563287735,0.009092831052839756,-0.006640592124313116
1717858365716191700,2.220191650390625,0.00373028963804245,0.010031594894826412,-0.006858971435576677
1717858365726232800,2.23023291015625,0.002257561543956399,0.00839774589985609,-0.006667490117251873
1717858365736273700,2.240273681640625,0.004199805203825235,0.009424926713109016,-0.005770271178334951
1717858365746313700,2.250313720703125,0.003079679561778903,0.009132511913776398,-0.0059777311980724335
1717858365756354800,2.260354736328125,0.004065581597387791,0.008791094645857811,-0.006845122668892145
1717858365766396000,2.27039599609375,0.004010454285889864,0.008922388777136803,-0.006299174856394529
1717858365776436000,2.28043603515625,0.003742273896932602,0.00851385947316885,-0.005714877508580685
1717858365786476800,2.290476806640625,0.0036554548423737288,0.009112006053328514,-0.005563609767705202
1717858365796518000,2.300517822265625,0.005599296186119318,0.00878097489476204,-0.006028597708791494
1717858365806558000,2.310557861328125,0.00529676117002964,0.00914316438138485,-0.004578506574034691
1717858365816598800,2.320598876953125,0.004713528789579868,0.01101749762892723,-0.005086637567728758
1717858365826640000,2.330639892578125,0.003142263740301132,0.008983907289803028,-0.005008607171475887
1717858365836680000,2.340679931640625,0.0034493261482566595,0.008534898981451988,-0.005025384947657585
1717858365846721000,2.350720947265625,0.005576393101364374,0.010699782520532608,-0.005889580585062504
1717858365856761900,2.360761962890625,0.002709500025957823,0.009400425478816032,-0.0062304651364684105
1717858365866801700,2.3708017578125,0.004245877731591463,0.008799084462225437,-0.0054943677969276905
1717858365876842800,2.3808427734375,0.003163036424666643,0.009241435676813126,-0.005920207127928734
1717858365886882800,2.3908828125,0.004070109222084284,0.009273126721382141,-0.0064983791671693325
1717858365896924000,2.400923828125,0.004375040996819735,0.008500543422996998,-0.00618306128308177
1717858365906964700,2.41096484375,0.004197674337774515,0.010114951990544796,-0.005447229836136103
1717858365917004800,2.4210048828125,0.003192064817994833,0.008617190644145012,-0.006666158325970173
1717858365927046000,2.4310458984375,0.0035601137205958366,0.00971760880202055,-0.0059657469391822815
1717858365937086700,2.441086669921875,0.005048820748925209,0.007960454560816288,-0.005387042183429003
1717858365947126800,2.451126708984375,0.003200586885213852,0.009857690893113613,-0.005183043889701366
1717858365957167900,2.46116796875,0.005677592940628529,0.008893626742064953,-0.005918342620134354
1717858365967209000,2.471208984375,0.005102616734802723,0.008688562549650669,-0.005583317019045353
1717858365977249000,2.4812490234375,0.003817108692601323,0.010112821124494076,-0.006339388433843851
1717858365987289900,2.491289794921875,0.0033657029271125793,0.010695254430174828,-0.005160673521459103
1717858365997331000,2.5013310546875,0.0034639735240489244,0.008538893423974514,-0.004839762579649687
1717858366007371000,2.51137109375,0.003950266633182764,0.009554622694849968,-0.007122091483324766
1717858366017411800,2.521411865234375,0.004569451790302992,0.009719738736748695,-0.005511411931365728
1717858366027451600,2.53145166015625,0.003991812001913786,0.009972206316888332,-0.005101018585264683
1717858366037492700,2.54149267578125,0.0037907434161752462,0.00884941779077053,-0.00595589354634285
1717858366047533800,2.551533935546875,0.0052019525319337845,0.009170329198241234,-0.005153216887265444
1717858366057574000,2.561573974609375,0.003034672001376748,0.009108543395996094,-0.005957757588475943
1717858366067614700,2.57161474609375,0.0035481294617056847,0.008577775210142136,-0.007126885466277599
1717858366077655800,2.58165576171875,0.004156661685556173,0.008681639097630978,-0.005282912403345108
1717858366087696000,2.59169580078125,0.0052019525319337845,0.007771902717649937,-0.0068152956664562225
1717858366097737000,2.601737060546875,0.004381166305392981,0.009340238757431507,-0.005995574407279491
1717858366107777800,2.61177783203125,0.003724963404238224,0.009601760655641556,-0.006170277949422598
1717858366117817900,2.62181787109375,0.0034916705917567015,0.009179117158055305,-0.007121825125068426
1717858366127859000,2.63185888671875,0.0033936661202460527,0.008113319985568523,-0.004594219382852316
1717858366137899800,2.641899658203125,0.004305266309529543,0.00996128749102354,-0.004819788970053196
1717858366147939800,2.65193994140625,0.004323641769587994,0.008815063163638115,-0.005541505757719278
1717858366157981000,2.66198095703125,0.00296303303912282,0.00945102609694004,-0.006229133810847998
1717858366168022000,2.67202197265625,0.004090349189937115,0.008466188795864582,-0.00523604080080986
1717858366178062000,2.68206201171875,0.00449754623696208,0.009061139076948166,-0.007243265397846699
1717858366188103000,2.69210302734375,0.004230431281030178,0.008303736336529255,-0.005331115797162056
1717858366198144000,2.70214404296875,0.0028309402987360954,0.008142881095409393,-0.005449360236525536
1717858366208183800,2.712183837890625,0.004512726329267025,0.009221727959811687,-0.005547364708036184
1717858366218224600,2.722224609375,0.0030831415206193924,0.009317602030932903,-0.005446697119623423
1717858366228264700,2.7322646484375,0.00321949552744627,0.008382831700146198,-0.005602492019534111
1717858366238305800,2.742305908203125,0.003534813644364476,0.009285110980272293,-0.007110906299203634
1717858366248347000,2.752346923828125,0.0035891421139240265,0.008753277361392975,-0.0063798688352108
1717858366258387000,2.762386962890625,0.004863198380917311,0.009820672683417797,-0.005396363325417042
1717858366268427800,2.772427734375,0.0030008498579263687,0.009363674558699131,-0.005531651899218559
1717858366278468900,2.78246875,0.0036607813090085983,0.009218798018991947,-0.005103415343910456
1717858366288509000,2.792509033203125,0.003176884725689888,0.008917062543332577,-0.006399043370038271
1717858366298550000,2.802550048828125,0.004758536349982023,0.007281082216650248,-0.005942577496170998
1717858366308590800,2.8125908203125,0.005393433850258589,0.0075942701660096645,-0.006733270362019539
1717858366318631000,2.822630859375,0.004731638357043266,0.010187922976911068,-0.005585181526839733
1717858366328672000,2.832672119140625,0.005042429082095623,0.00857617799192667,-0.005044027231633663
1717858366338712800,2.842712890625,0.0029822078067809343,0.009319199249148369,-0.005317533854395151
1717858366348752600,2.852752685546875,0.0017845842521637678,0.008635565638542175,-0.0067572384141385555
1717858366358794000,2.8627939453125,0.003894340479746461,0.008855543099343777,-0.004857339430600405
1717858366368835000,2.8728349609375,0.003984089009463787,0.009646235965192318,-0.006708502769470215
1717858366378875000,2.882875,0.004174504894763231,0.008610798977315426,-0.007026750594377518
1717858366388915700,2.892915771484375,0.004096474498510361,0.008678442798554897,-0.005318598821759224
1717858366398956800,2.902956787109375,0.0027318706270307302,0.009013468399643898,-0.005649896338582039
1717858366408996900,2.912996826171875,0.002692722249776125,0.008256598375737667,-0.006847519893199205
1717858366419037700,2.92303759765625,0.004581169690936804,0.00939083844423294,-0.007001716643571854
1717858366429077800,2.933077880859375,0.005154814571142197,0.008596417494118214,-0.005358013790100813
1717858366439118800,2.943118896484375,0.004218180663883686,0.009470467455685139,-0.006329535041004419
1717858366449160000,2.953159912109375,0.0043891556560993195,0.008844357915222645,-0.0046243127435445786
1717858366459200000,2.963199951171875,0.00452843913808465,0.009790312498807907,-0.005412076134234667
1717858366469240800,2.97324072265625,0.0034144388046115637,0.010757306590676308,-0.00515801040455699
1717858366479282000,2.983281982421875,0.0033390712924301624,0.009812682867050171,-0.005074386950582266
1717858366489322000,2.993322021484375,0.003463174682110548,0.010243316181004047,-0.006618221756070852
1717858366499363000,3.003363037109375,0.004716724622994661,0.009198558516800404,-0.00523683987557888
1717858366509404000,3.01340380859375,0.005672533065080643,0.008947421796619892,-0.006335127633064985
1717858366519443700,3.023443603515625,0.004836300387978554,0.00842810608446598,-0.006696784868836403
1717858366529484800,3.03348486328125,0.0030162963084876537,0.009526659734547138,-0.00509862182661891
1717858366539525600,3.043525634765625,0.0019294602097943425,0.00791571382433176,-0.004916994366794825
1717858366549565700,3.053565673828125,0.00424268189817667,0.009866745211184025,-0.006044842768460512
1717858366559606800,3.063606689453125,0.003052781568840146,0.010202569887042046,-0.006003297865390778
1717858366569647900,3.07364794921875,0.004150004126131535,0.009938118048012257,-0.005314870737493038
1717858366579688000,3.08368798828125,0.004742823541164398,0.009979929774999619,-0.005597432143986225
1717858366589728800,3.093728759765625,0.0029201561119407415,0.008488559164106846,-0.0059873186983168125
1717858366599769900,3.103769775390625,0.0036637107841670513,0.009123723953962326,-0.005619269795715809
1717858366609810000,3.113809814453125,0.004709533881396055,0.009794574230909348,-0.004502073861658573
1717858366619850800,3.123850830078125,0.004622448701411486,0.008500277064740658,-0.005256813485175371
1717858366629890800,3.133890869140625,0.004450141917914152,0.009578591212630272,-0.004699147772043943
1717858366639932000,3.143931884765625,0.003969441633671522,0.009718673303723335,-0.004808337427675724
1717858366649973000,3.153972900390625,0.0037675739731639624,0.009295230731368065,-0.006047772243618965
1717858366660013000,3.164012939453125,0.004475442226976156,0.008860336616635323,-0.00481233187019825
1717858366670054000,3.174053955078125,0.004316984210163355,0.009093630127608776,-0.0054333810694515705
1717858366680095000,3.184094970703125,0.0035340148024260998,0.008726912550628185,-0.007275755982846022
1717858366690134800,3.194134765625,0.0038389465771615505,0.009976468048989773,-0.005050152540206909
1717858366700176000,3.20417578125,0.003784085623919964,0.0099021652713418,-0.005591839086264372
1717858366710216700,3.214216796875,0.004110589157789946,0.008717591874301434,-0.006388923618942499
1717858366720256800,3.2242568359375,0.0035353463608771563,0.00908750481903553,-0.006770820822566748
1717858366730297900,3.2342978515625,0.0028852687682956457,0.008016115054488182,-0.0067782774567604065
1717858366740338700,3.244338623046875,0.0037436054553836584,0.010202836245298386,-0.005839779507368803
1717858366750379000,3.25437890625,0.0038128476589918137,0.009601494297385216,-0.004905542824417353
1717858366760420000,3.264420166015625,0.003093527862802148,0.007772968150675297,-0.0044378917664289474
1717858366770461200,3.274461181640625,0.0030008498579263687,0.007892810739576817,-0.0062301987782120705
1717858366780501000,3.2845009765625,0.0026698189321905375,0.00774633651599288,-0.006103698629885912
1717858366790541800,3.294541748046875,0.0044235107488930225,0.01016661711037159,-0.005879194475710392
1717858366800583000,3.3045830078125,0.004796086810529232,0.009213471785187721,-0.006025934591889381
1717858366810623000,3.314623046875,0.005911685060709715,0.008156729862093925,-0.005831790156662464
1717858366820663800,3.324663818359375,0.0033329459838569164,0.009076851420104504,-0.0059660132974386215
1717858366830705000,3.334704833984375,0.003373958868905902,0.00911280419677496,-0.004625378176569939
1717858366840745000,3.344744873046875,0.004324440844357014,0.009498164057731628,-0.005542837083339691
1717858366850786000,3.3547861328125,0.004882373381406069,0.00854501873254776,-0.006882140878587961
1717858366860827000,3.364826904296875,0.0031497206073254347,0.008360994048416615,-0.005254416726529598
1717858366870867000,3.374866943359375,0.004914863966405392,0.009403355419635773,-0.0071069118566811085
1717858366880908000,3.384907958984375,0.004099403973668814,0.011037737131118774,-0.006062153726816177
1717858366890948000,3.394947998046875,0.0031457259319722652,0.008171909488737583,-0.006623814348131418
1717858366900989000,3.404989013671875,0.002935868687927723,0.00945182517170906,-0.005566006526350975
1717858366911030000,3.415030029296875,0.003171025775372982,0.008647816255688667,-0.005929261911660433
1717858366921070000,3.425070068359375,0.005811816547065973,0.007395065855234861,-0.006213953718543053
1717858366931111200,3.435111083984375,0.004677576012909412,0.010447847656905651,-0.005307946354150772
1717858366941152000,3.445152099609375,0.0032320122700184584,0.009488044306635857,-0.0054128747433424
1717858366951191800,3.45519189453125,0.0037942056078463793,0.00962759368121624,-0.004693288821727037
1717858366961233000,3.46523291015625,0.0038482677191495895,0.009865413419902325,-0.005352421198040247
1717858366971274000,3.47527392578125,0.005323126446455717,0.01062361616641283,-0.0062123560346663
1717858366981314000,3.48531396484375,0.0030983216129243374,0.009756224229931831,-0.004788629710674286
1717858366991355000,3.49535498046875,0.0047055394388735294,0.009610549546778202,-0.0057492321357131
1717858367001396000,3.50539599609375,0.005343632772564888,0.010660633444786072,-0.005909021943807602
1717858367011436000,3.51543603515625,0.003965180367231369,0.010145844891667366,-0.006146309431642294
1717858367021476900,3.525476806640625,0.004027498420327902,0.009400691837072372,-0.005246427375823259
1717858367031518000,3.53551806640625,0.0038509308360517025,0.009862218052148819,-0.0051622712053358555
1717858367041558000,3.54555810546875,0.0025270734913647175,0.009280583821237087,-0.006533000618219376
1717858367051599000,3.55559912109375,0.0029033781029284,0.009152485989034176,-0.006001699715852737
1717858367061640000,3.565639892578125,0.0035369442775845528,0.009461412206292152,-0.006351372692734003
1717858367071680000,3.575679931640625,0.004284759983420372,0.008107194676995277,-0.0059630838222801685
1717858367081721000,3.58572119140625,0.00518837058916688,0.0092347776517272,-0.006312756799161434
1717858367091762200,3.59576220703125,0.004323109518736601,0.010031861253082752,-0.006530071143060923
1717858367101802000,3.605802001953125,0.0032386700622737408,0.009302155114710331,-0.007084274664521217
1717858367111842800,3.6158427734375,0.003983822651207447,0.009464874863624573,-0.005192098673433065
1717858367121883000,3.6258828125,0.004445881117135286,0.009613478556275368,-0.005933789070695639
1717858367131924000,3.635924072265625,0.0027427896857261658,0.010160491801798344,-0.004653607495129108
1717858367141964800,3.64596484375,0.0025595640763640404,0.00875247921794653,-0.0036852823104709387
1717858367152004900,3.6560048828125,0.004304467234760523,0.008768191561102867,-0.0064986455254256725
1717858367162046000,3.6660458984375,0.003346528159454465,0.00954024214297533,-0.006192115601152182
1717858367172087000,3.676087158203125,0.003602457931265235,0.009726663120090961,-0.004077299498021603
1717858367182127000,3.686127197265625,0.003238936420530081,0.009128517471253872,-0.005178516730666161
1717858367192168000,3.69616796875,0.004341484978795052,0.008106928318738937,-0.006170810665935278
1717858367202209000,3.706208984375,0.0046610645949840546,0.009525860659778118,-0.005062669049948454
1717858367212249000,3.7162490234375,0.0051505533047020435,0.009561813436448574,-0.00618093041703105
1717858367222290000,3.7262900390625,0.003649862250313163,0.01016661711037159,-0.005533782299607992
1717858367232331000,3.7363310546875,0.0033305492252111435,0.007763114292174578,-0.006549245677888393
1717858367242371000,3.74637109375,0.0011536814272403717,0.008027832955121994,-0.005678924731910229
1717858367252412200,3.756412109375,0.0035665053874254227,0.009467537514865398,-0.006397977937012911
1717858367262453000,3.766452880859375,0.0033310819417238235,0.0087218526750803,-0.007246993947774172
1717858367272492800,3.776492919921875,0.004494084510952234,0.008783104829490185,-0.005909288302063942
1717858367282534000,3.786533935546875,0.004787831101566553,0.009355152025818825,-0.006336458958685398
1717858367292575000,3.796574951171875,0.003914047963917255,0.0095109473913908,-0.0052323127165436745
1717858367302615000,3.806614990234375,0.004240817856043577,0.009490706957876682,-0.007760717533528805
1717858367312656000,3.81665576171875,0.004288754425942898,0.00788455456495285,-0.007632086984813213
1717858367322697000,3.826697021484375,0.003887682454660535,0.009429986588656902,-0.00634870957583189
1717858367332737000,3.836737060546875,0.004036553204059601,0.010325341485440731,-0.005360943265259266
1717858367342777900,3.84677783203125,0.0034581145737320185,0.009472064673900604,-0.007081078831106424
1717858367352819000,3.85681884765625,0.00506959343329072,0.010015616193413734,-0.004673847462981939
1717858367362859000,3.86685888671875,0.0031156321056187153,0.00956607423722744,-0.0057074204087257385
1717858367372900000,3.876900146484375,0.003919640555977821,0.008655273355543613,-0.005372927524149418
1717858367382941000,3.88694091796875,0.004430701024830341,0.008786034770309925,-0.006416886579245329
1717858367392981000,3.89698095703125,0.0023451796732842922,0.009808422066271305,-0.005579588934779167
1717858367403022000,3.90702197265625,0.0054419031366705894,0.009230515919625759,-0.006702377460896969
1717858367413063200,3.917063232421875,0.0015267902053892612,0.009969010949134827,-0.005650429055094719
1717858367423103000,3.92710302734375,0.002787264296784997,0.009666475467383862,-0.005585181526839733
1717858367433144000,3.93714404296875,0.003349457634612918,0.007861917838454247,-0.00660437298938632
1717858367443183900,3.947183837890625,0.004068511072546244,0.010752779431641102,-0.0059902481734752655
1717858367453225000,3.957224853515625,0.0030722226947546005,0.01095571182668209,-0.006322610657662153
1717858367463265800,3.967265869140625,0.004948419518768787,0.00865953415632248,-0.005419799126684666
1717858367473305900,3.977305908203125,0.003142263740301132,0.008856342174112797,-0.00569969741627574
1717858367483347000,3.987346923828125,0.004571049474179745,0.009986055083572865,-0.006069876719266176
1717858367493388000,3.997387939453125,0.004114317707717419,0.009663013741374016,-0.006244580261409283
1717858367503428000,4.007427978515625,0.004259726032614708,0.010044644586741924,-0.00504083139821887
1717858367513469000,4.017468994140625,0.0059873186983168125,0.009149023331701756,-0.005030444823205471
1717858367523510000,4.027510009765625,0.004680771846324205,0.008373777382075787,-0.005288771353662014
1717858367533550000,4.037550048828125,0.0027289411518722773,0.008536496199667454,-0.005332713946700096
1717858367543591000,4.0475908203125,0.006179865449666977,0.008048338815569878,-0.005525526590645313
1717858367553632000,4.057632080078125,0.0041494714096188545,0.010293916799128056,-0.006119145080447197
1717858367563672000,4.067672119140625,0.0032735576387494802,0.008987902663648129,-0.007800931576639414
1717858367573713200,4.077713134765625,0.004637362435460091,0.008471515029668808,-0.005616073962301016
1717858367583754000,4.08775390625,0.0036940707359462976,0.010046509094536304,-0.006046973634511232
1717858367593793800,4.097793701171875,0.004229632206261158,0.007438741624355316,-0.005792375188320875
1717858367603835000,4.1078349609375,0.003722566645592451,0.010085657238960266,-0.006675479467958212
1717858367613876000,4.1178759765625,0.0038213697262108326,0.008615059778094292,-0.005212338641285896
1717858367623916000,4.127916015625,0.004482898861169815,0.009549030102789402,-0.006488259416073561
1717858367633956900,4.137956787109375,0.005452822428196669,0.008083758875727654,-0.0067575047723948956
1717858367643998000,4.147998046875,0.004512459971010685,0.009533584117889404,-0.004772651009261608
1717858367654038000,4.1580380859375,0.004641090985387564,0.009910687804222107,-0.004948419518768787
1717858367664078800,4.168078857421875,0.004159058444201946,0.009414806962013245,-0.005833920557051897
1717858367674120000,4.178119873046875,0.0036450685001909733,0.008482168428599834,-0.006683202926069498
1717858367684160000,4.188159912109375,0.0032927324064075947,0.008162855170667171,-0.005655755288898945
1717858367694201000,4.198201171875,0.004839496221393347,0.008648348972201347,-0.006486129015684128
1717858367704242000,4.208241943359375,0.004259193316102028,0.008986304514110088,-0.00609224708750844
1717858367714282000,4.218281982421875,0.005275455769151449,0.00911386962980032,-0.005573463626205921
1717858367724323000,4.228322998046875,0.004026965703815222,0.008100270293653011,-0.005970274563878775
1717858367734364200,4.2383642578125,0.004769455175846815,0.009910155087709427,-0.0065385932102799416
1717858367744403700,4.24840380859375,0.004185956437140703,0.009765544906258583,-0.004625644534826279
1717858367754444800,4.25844482421875,0.0034815503749996424,0.007953263819217682,-0.0049526807852089405
1717858367764486000,4.26848583984375,0.003460511565208435,0.009289638139307499,-0.006096774712204933
1717858367774526000,4.27852587890625,0.0032317459117621183,0.011448929086327553,-0.005538043566048145
1717858367784566800,4.28856689453125,0.003061037277802825,0.009799634106457233,-0.0054456316865980625
1717858367794607900,4.29860791015625,0.00350392097607255,0.00914502888917923,-0.0065622953698039055
1717858367804648000,4.30864794921875,0.003564108395949006,0.007455253042280674,-0.006333795841783285
1717858367814689000,4.31868896484375,0.002651176881045103,0.008503739722073078,-0.007041930686682463
1717858367824729000,4.32872900390625,0.0038077877834439278,0.009761550463736057,-0.00606295233592391
1717858367834770000,4.33877001953125,0.004030694253742695,0.010432134382426739,-0.006331665441393852
1717858367844811000,4.34881103515625,0.0043894220143556595,0.009259544312953949,-0.007441404741257429
1717858367854851000,4.35885107421875,0.00415453128516674,0.010271013714373112,-0.0062216767109930515
1717858367864892000,4.368891845703125,0.005342833697795868,0.009178051725029945,-0.006136988289654255
1717858367874933000,4.37893310546875,0.0031372036319226027,0.009542638435959816,-0.006562827620655298
1717858367884972800,4.388972900390625,0.004559331573545933,0.010089118964970112,-0.006046973634511232
1717858367895014000,4.399013916015625,0.0036642432678490877,0.009719206020236015,-0.006645385641604662
1717858367905054700,4.4090546875,0.005233377683907747,0.009206547401845455,-0.005930060520768166
1717858367915094800,4.4190947265625,0.003585680155083537,0.010449444875121117,-0.006628075148910284
1717858367925136000,4.429135986328125,0.0037997981999069452,0.009525594301521778,-0.005584382452070713
1717858367935177000,4.439177001953125,0.0035502600949257612,0.010273143649101257,-0.0065108961425721645
1717858367945216800,4.449216796875,0.004861867055296898,0.009281649254262447,-0.0057769292034208775
1717858367955257900,4.4592578125,0.0037228327710181475,0.008187090046703815,-0.00632048025727272
1717858367965299000,4.469298828125,0.003978496417403221,0.010708037763834,-0.005786249879747629
1717858367975339000,4.479339111328125,0.00355904852040112,0.009474728256464005,-0.006339921150356531
1717858367985379800,4.4893798828125,0.0042706448584795,0.009794574230909348,-0.0070334081538021564
1717858367995421000,4.4994208984375,0.004572647623717785,0.008244081400334835,-0.00660570478066802
1717858368005461000,4.5094609375,0.003430151380598545,0.009751164354383945,-0.0054570832289755344
1717858368015502000,4.519502197265625,0.003739610780030489,0.00875168014317751,-0.004962800536304712
1717858368025543000,4.52954296875,0.003560912562534213,0.0094480961561203,-0.0073348782025277615
1717858368035582700,4.539582763671875,0.002469282830134034,0.008522914722561836,-0.0049409628845751286
1717858368045623800,4.549623779296875,0.002017078222706914,0.009037703275680542,-0.005000617355108261
1717858368055665000,4.559664794921875,0.0041002025827765465,0.009401224553585052,-0.007501059677451849
1717858368065704700,4.56970458984375,0.0051841093227267265,0.009167665615677834,-0.004785966593772173
1717858368075745800,4.579745849609375,0.004311125259846449,0.0101964445784688,-0.0037033918779343367
1717858368085787000,4.589786865234375,0.003099919529631734,0.00869175884872675,-0.006253635045140982
1717858368095827000,4.599826904296875,0.0051841093227267265,0.008537561632692814,-0.005629656370729208
1717858368105867800,4.60986767578125,0.0032743564806878567,0.008901881985366344,-0.005556419026106596
1717858368115908900,4.619908935546875,0.003644536016508937,0.00920361839234829,-0.004501008428633213
1717858368125949000,4.629948974609375,0.0032320122700184584,0.00953944306820631,-0.0049582733772695065
1717858368135990000,4.639989990234375,0.0037502634804695845,0.008917861618101597,-0.006601709872484207
1717858368146030800,4.65003076171875,0.0031936627347022295,0.00908350944519043,-0.005234975833445787
1717858368156071000,4.66007080078125,0.004775314126163721,0.009732255712151527,-0.00621049152687192
1717858368166112000,4.670112060546875,0.0032591766212135553,0.00926167517900467,-0.004774781409651041
1717858368176152800,4.68015283203125,0.0051446943543851376,0.009366337209939957,-0.005066131241619587
1717858368186193000,4.69019287109375,0.0052261874079704285,0.008685633540153503,-0.006658701691776514
1717858368196234000,4.70023388671875,0.0034613104071468115,0.009393768385052681,-0.005006209947168827
1717858368206273800,4.710273681640625,0.0028988507110625505,0.009408948011696339,-0.006607036106288433
1717858368216315000,4.72031494140625,0.0025859293527901173,0.009224923327565193,-0.005761216394603252
1717858368226355700,4.730355712890625,0.003495665267109871,0.010042513720691204,-0.006293049547821283
1717858368236395800,4.740395751953125,0.002907639369368553,0.009496832266449928,-0.006163087207823992
1717858368246436900,4.750436767578125,0.0032176312524825335,0.00902864895761013,-0.006800381932407618
1717858368256478000,4.76047802734375,0.004458398092538118,0.008074171841144562,-0.006372678093612194
1717858368266517800,4.770517822265625,0.004472779110074043,0.009224923327565193,-0.006328469607979059
1717858368276558800,4.780558837890625,0.004566522315144539,0.009414806962013245,-0.007385478354990482
1717858368286600000,4.790599853515625,0.005227785091847181,0.00833622645586729,-0.006149238906800747
1717858368296640000,4.800639892578125,0.005555087700486183,0.008578840643167496,-0.0059713395312428474
1717858368306680800,4.810680908203125,0.001990446588024497,0.009373527951538563,-0.006280798930674791
1717858368316722000,4.820721923828125,0.003350256709381938,0.009301888756453991,-0.006460029631853104
1717858368326762000,4.830761962890625,0.005250155925750732,0.00933144986629486,-0.006244580261409283
1717858368336803000,4.840802978515625,0.004614725708961487,0.009865679778158665,-0.005655488930642605
1717858368346844000,4.850843994140625,0.0033342777751386166,0.009296562522649765,-0.005782788153737783
1717858368356884000,4.860884033203125,0.0031899344176054,0.009798035956919193,-0.006977215874940157
1717858368366925000,4.870925048828125,0.004610198084264994,0.009150887839496136,-0.005638444796204567
1717858368376966000,4.8809658203125,0.004608866758644581,0.008554339408874512,-0.00427304208278656
1717858368387005700,4.891005615234375,0.004150536376982927,0.00891173630952835,-0.004828311037272215
1717858368397046800,4.901046875,0.004575843457132578,0.009736516512930393,-0.005818474106490612
1717858368407087900,4.911087890625,0.0031822111923247576,0.009217733517289162,-0.005799299571663141
1717858368417128000,4.9211279296875,0.003578755771741271,0.010100305080413818,-0.005517004523426294
1717858368427168800,4.931168701171875,0.005288239102810621,0.008611864410340786,-0.006360427476465702
1717858368437209900,4.9412099609375,0.003698864486068487,0.0089980224147439,-0.005169994663447142
1717858368447250000,4.95125,0.0035430695861577988,0.008235293440520763,-0.005369998048990965
1717858368457291000,4.961291015625,0.00427250936627388,0.009180182591080666,-0.006400108803063631
1717858368467331800,4.971331787109375,0.004067179746925831,0.009265935979783535,-0.006082660052925348
1717858368477372000,4.981371826171875,0.004385693464428186,0.009925068356096745,-0.0075668394565582275
1717858368487413000,4.9914130859375,0.005095425993204117,0.00863290298730135,-0.00681263254955411
1717858368497453800,5.001453857421875,0.003976366017013788,0.00971734244376421,-0.006552441511303186
1717858368507494000,5.011493896484375,0.004122573416680098,0.007726096548140049,-0.004965996369719505
1717858368517535000,5.021534912109375,0.004285292699933052,0.00902598537504673,-0.005685316398739815
1717858368527576000,5.031576171875,0.00458729499951005,0.008378304541110992,-0.007002249360084534
1717858368537616100,5.0416162109375,0.0041159153915941715,0.008315454237163067,-0.005574528593569994
1717858368547657000,5.051656982421875,0.0031995216850191355,0.00965449120849371,-0.005309011787176132
1717858368557698000,5.061697998046875,0.004938832018524408,0.007948470301926136,-0.006674148142337799
1717858368567737900,5.07173779296875,0.004180896561592817,0.009925601072609425,-0.006767891347408295
1717858368577779000,5.081779052734375,0.0025153555907309055,0.008800149895250797,-0.00637960247695446
1717858368587819800,5.09181982421875,0.0035119105596095324,0.008127168752253056,-0.004923918284475803
1717858368597859800,5.10185986328125,0.00520754512399435,0.008846222423017025,-0.004733502399176359
1717858368607901000,5.11190087890625,0.003864513011649251,0.00788641907274723,-0.005707953125238419
1717858368617941800,5.121941650390625,0.004357197787612677,0.009215869009494781,-0.005299690645188093
1717858368627981800,5.13198193359375,0.0036727653350681067,0.008665659464895725,-0.00615110294893384
1717858368638023000,5.14202294921875,0.0030860709957778454,0.008614793419837952,-0.006194779183715582
1717858368648063000,5.15206298828125,0.003608316881582141,0.008862201124429703,-0.004292216617614031
1717858368658104000,5.16210400390625,0.0037638454232364893,0.008452074602246284,-0.005663211923092604
1717858368668145000,5.172144775390625,0.003916444722563028,0.007437143474817276,-0.006736199837177992
1717858368678186000,5.18218603515625,0.0036663739010691643,0.00917245913296938,-0.00751890242099762
1717858368688226000,5.19222607421875,0.003175020683556795,0.009712282568216324,-0.00606295233592391
1717858368698267000,5.202266845703125,0.003960120491683483,0.008791893720626831,-0.006044044159352779
1717858368708306700,5.212306640625,0.0038181741256266832,0.010298976674675941,-0.005322061013430357
1717858368718347800,5.22234765625,0.0030282805673778057,0.010192716494202614,-0.005246427375823259
1717858368728388900,5.232388916015625,0.0041582598350942135,0.009396164678037167,-0.005182777531445026
1717858368738429000,5.242428955078125,0.0029846045654267073,0.00911679957062006,-0.006232329644262791
1717858368748470300,5.25247021484375,0.004478638060390949,0.009303486905992031,-0.006049370393157005
1717858368758511400,5.262511474609375,0.002981142606586218,0.010097641497850418,-0.005892510060220957
1717858368768551400,5.272551513671875,0.0032431974541395903,0.009483249858021736,-0.0054605454206466675
1717858368778592300,5.28259228515625,0.004053863696753979,0.008884305134415627,-0.006420615129172802
1717858368788633300,5.29263330078125,0.004547081422060728,0.009887784719467163,-0.005720470100641251
1717858368798673400,5.30267333984375,0.002953445538878441,0.008556203916668892,-0.005681854207068682
1717858368808714500,5.312714599609375,0.0027140274178236723,0.009460346773266792,-0.006996124051511288
1717858368818755300,5.32275537109375,0.004029362928122282,0.009829461574554443,-0.0059716058894991875
1717858368828795400,5.33279541015625,0.004515123087912798,0.009180715307593346,-0.0057036918587982655
1717858368838836500,5.34283642578125,0.004631769843399525,0.009053150191903114,-0.0055803875438869
1717858368848877300,5.352877197265625,0.004174771253019571,0.009636647999286652,-0.007031544111669064
1717858368858917400,5.36291748046875,0.00293320557102561,0.008498413488268852,-0.005140699911862612
1717858368868958500,5.37295849609375,0.00424188282340765,0.008711200207471848,-0.005196892656385899
1717858368878999600,5.38299951171875,0.004877845756709576,0.009193764999508858,-0.0067726848646998405
1717858368889039400,5.393039306640625,0.003215234261006117,0.009272327646613121,-0.006177202332764864
1717858368899080400,5.40308056640625,0.003958788700401783,0.008648881688714027,-0.005981726106256247
1717858368909121500,5.41312158203125,0.004350806120783091,0.009179649874567986,-0.006906375754624605
1717858368919161300,5.423161376953125,0.004560929723083973,0.009036637842655182,-0.005334577988833189
1717858368929202400,5.433202392578125,0.005079180933535099,0.00836845114827156,-0.005577458068728447
1717858368939243300,5.4432431640625,0.004720186814665794,0.009750098921358585,-0.005115133244544268
1717858368949283300,5.453283447265625,0.0049026133492589,0.01002413872629404,-0.004834436345845461
1717858368959324400,5.463324462890625,0.004847751930356026,0.010581271722912788,-0.006179865449666977
1717858368969365200,5.473365234375,0.005155347287654877,0.008746087551116943,-0.005401156842708588
1717858368979405300,5.4834052734375,0.0036458675749599934,0.008334362879395485,-0.006081061903387308
1717858368989446400,5.4934462890625,0.005044027231633663,0.008679508231580257,-0.005380117800086737
1717858368999487500,5.503487548828125,0.003555319970473647,0.008863266557455063,-0.006648847833275795
1717858369009527600,5.513527587890625,0.0034993935842067003,0.007671235594898462,-0.006179599091410637
1717858369019568400,5.523568359375,0.0024684839881956577,0.008645952679216862,-0.005362807307392359
1717858369029609500,5.533609375,0.0047090016305446625,0.008824383839964867,-0.005568137392401695
1717858369039649500,5.5436494140625,0.005661347880959511,0.009502158500254154,-0.0065079666674137115
1717858369049690400,5.5536904296875,0.004387291613966227,0.009431318379938602,-0.006696252152323723
1717858369059731500,5.5637314453125,0.003855724586173892,0.00768721429631114,-0.00541367381811142
1717858369069771300,5.573771240234375,0.0050099384970963,0.007965780794620514,-0.00708693778142333
1717858369079812400,5.583812255859375,0.004450408276170492,0.00774740194901824,-0.00461579067632556
1717858369089853200,5.593853271484375,0.003643736941739917,0.009162339381873608,-0.006342051550745964
1717858369099893200,5.603893310546875,0.0037201696541160345,0.010371946729719639,-0.004235225263983011
1717858369109934300,5.613934326171875,0.0036517265252768993,0.008793491870164871,-0.006400375161319971
1717858369119975400,5.623975341796875,0.005657086614519358,0.008844624273478985,-0.0049343048594892025
1717858369130015500,5.634015380859375,0.0035542547702789307,0.0100198769941926,-0.005375590641051531
1717858369140056300,5.644056396484375,0.002794188680127263,0.009769806638360023,-0.0064714811742305756
1717858369150097400,5.654097412109375,0.0031561122741550207,0.009336509741842747,-0.00624138442799449
1717858369160137500,5.664137451171875,0.004323908127844334,0.009445167146623135,-0.004997687879949808
1717858369170178300,5.67417822265625,0.004325772635638714,0.009135441854596138,-0.006113019771873951
1717858369180219400,5.684219482421875,0.004489556886255741,0.009328787215054035,-0.006048304960131645
1717858369190259500,5.694259521484375,0.003051982494071126,0.00869122613221407,-0.0062634884379804134
1717858369200300500,5.704300537109375,0.0028333370573818684,0.00905661191791296,-0.005618204362690449
1717858369210341400,5.71434130859375,0.0032530513126403093,0.010485131293535233,-0.0064922538585960865
1717858369220381400,5.72438134765625,0.003742540255188942,0.011043063364923,-0.004858404863625765
1717858369230422500,5.734422607421875,0.005109807010740042,0.010497914627194405,-0.005874134600162506
1717858369240463600,5.744463623046875,0.003519633784890175,0.00936047825962305,-0.00569996377453208
1717858369250503400,5.75450341796875,0.00424294825643301,0.009098690003156662,-0.00498224189504981
1717858369260544300,5.764544189453125,0.003890611929818988,0.009296296164393425,-0.007261907681822777
1717858369270584300,5.774584228515625,0.0031965922098606825,0.009522132575511932,-0.006806507240980864
1717858369280625400,5.78462548828125,0.0026549051981419325,0.009815346449613571,-0.005249356850981712
1717858369290666200,5.794666259765625,0.003867442486807704,0.009432383812963963,-0.005262406077235937
1717858369300707300,5.804707275390625,0.00387356779538095,0.008227303624153137,-0.005412076134234667
1717858369310747400,5.814747314453125,0.005279184319078922,0.010045710019767284,-0.005369998048990965
1717858369320788500,5.82478857421875,0.003034938359633088,0.009071791544556618,-0.0057042245753109455
1717858369330828500,5.83482861328125,0.004954544827342033,0.008731173351407051,-0.006611830089241266
1717858369340869400,5.844869384765625,0.00296276668086648,0.008196410723030567,-0.0068059745244681835
1717858369350910500,5.854910400390625,0.0037316211964935064,0.008141282945871353,-0.006742857396602631
1717858369360950500,5.864950439453125,0.0035950010642409325,0.008834238164126873,-0.006983607076108456
1717858369370991400,5.874991455078125,0.0024945829063653946,0.009099755436182022,-0.00472418125718832
1717858369381032400,5.885032470703125,0.0031643679831176996,0.009381784126162529,-0.007128749508410692
1717858369391072500,5.895072509765625,0.0036605149507522583,0.009179649874567986,-0.004964132327586412
1717858369401113600,5.905113525390625,0.0051654670387506485,0.009100021794438362,-0.004188619554042816
1717858369411154400,5.915154541015625,0.0037827540654689074,0.009751963429152966,-0.006960703991353512
1717858369421194200,5.9251943359375,0.004897287115454674,0.010469951666891575,-0.005844839382916689
1717858369431235300,5.9352353515625,0.0039041941054165363,0.008754342794418335,-0.005083974450826645
1717858369441276400,5.9452763671875,0.005095159634947777,0.00780519237741828,-0.00646748673170805
1717858369451316500,5.95531640625,0.0036360137164592743,0.009123723953962326,-0.005251220893114805
1717858369461357300,5.965357421875,0.0023315974976867437,0.008953015320003033,-0.005799033213406801
1717858369471398400,5.9753984375,0.004306863993406296,0.008959672413766384,-0.006162288598716259
1717858369481438500,5.9854384765625,0.004503138829022646,0.008898686617612839,-0.00782729685306549
1717858369491479300,5.995479248046875,0.00358807691372931,0.007434480357915163,-0.004543352872133255
1717858369501520400,6.005520263671875,0.004000866785645485,0.008897088468074799,-0.006602508947253227
1717858369511560400,6.015560546875,0.003967843484133482,0.010216152295470238,-0.006993993651121855
1717858369521601500,6.0256015625,0.0038005972746759653,0.009403355419635773,-0.005248557776212692
1717858369531642400,6.035642333984375,0.0027414578944444656,0.008400674909353256,-0.006068544927984476
1717858369541682400,6.045682373046875,0.004479703027755022,0.008124771527945995,-0.005742041394114494
1717858369551723500,6.0557236328125,0.0044293696992099285,0.008607869036495686,-0.006415821146219969
1717858369561764400,6.065764404296875,0.0037944719661027193,0.010370349511504173,-0.00552179804071784
1717858369571804200,6.07580419921875,0.0039880839176476,0.009238505735993385,-0.004513525404036045
1717858369581845200,6.08584521484375,0.0034051176626235247,0.010117881931364536,-0.006716225761920214
1717858369591886300,6.09588623046875,0.0019361181184649467,0.00885021686553955,-0.006702377460896969
1717858369601926400,6.105926513671875,0.002007757080718875,0.008356466889381409,-0.005538576282560825
1717858369611967200,6.11596728515625,0.004145476501435041,0.008749282918870449,-0.006613960489630699
1717858369622008300,6.12600830078125,0.0027361316606402397,0.00854342058300972,-0.00544376764446497
1717858369632048400,6.13604833984375,0.003172091208398342,0.009513610042631626,-0.00689172837883234
1717858369642089500,6.14608935546875,0.00424188282340765,0.008980445563793182,-0.004766525700688362
1717858369652130300,6.15613037109375,0.0025068335235118866,0.007256847806274891,-0.006401972845196724
1717858369662170400,6.16617041015625,0.003841077210381627,0.009731456637382507,-0.0035270904190838337
1717858369672211500,6.17621142578125,0.00427091121673584,0.008110923692584038,-0.006612895056605339
1717858369682252300,6.186252197265625,0.0033787523861974478,0.008674448356032372,-0.006520750001072884
1717858369692292400,6.196292236328125,0.0041457428596913815,0.00891173630952835,-0.0059841228649020195
1717858369702333400,6.20633349609375,0.00418302696198225,0.009733054786920547,-0.006157494615763426
1717858369712374500,6.21637451171875,0.002987001556903124,0.009165801107883453,-0.006811034400016069
1717858369722414600,6.22641455078125,0.004625644534826279,0.009106412529945374,-0.005726329050958157
1717858369732455400,6.236455322265625,0.004133225884288549,0.00862997304648161,-0.007730091456323862
1717858369742496500,6.24649658203125,0.003507383167743683,0.008709602057933807,-0.007059507537633181
1717858369752536600,6.25653662109375,0.0007033408619463444,0.009852631017565727,-0.005570800509303808
1717858369762577400,6.266577392578125,0.00290364446118474,0.007965514436364174,-0.0060088904574513435
1717858369772618500,6.276618408203125,0.003692206460982561,0.008926383219659328,-0.005948969163000584
1717858369782658600,6.286658447265625,0.0038895467296242714,0.008902681060135365,-0.006726345978677273
1717858369792699600,6.29669970703125,0.003346528159454465,0.008629174903035164,-0.005495699122548103
1717858369802740500,6.306740478515625,0.002855441300198436,0.008788165636360645,-0.005528189707547426
1717858369812780300,6.3167802734375,0.003704989794641733,0.008344748988747597,-0.005742840468883514
1717858369822821400,6.3268212890625,0.00504136411473155,0.008541024290025234,-0.0041585261933505535
1717858369832862500,6.336862548828125,0.0029917950741946697,0.009855293668806553,-0.007132744416594505
1717858369842902500,6.346902587890625,0.0041308291256427765,0.00939270295202732,-0.006311958190053701
1717858369852943400,6.356943359375,0.0030162963084876537,0.010041182860732079,-0.004811533261090517
1717858369862984400,6.366984375,0.004490888677537441,0.010586331598460674,-0.004729507956653833
1717858369873024500,6.3770244140625,0.005179582163691521,0.008986837230622768,-0.0070613715797662735
1717858369883065300,6.3870654296875,0.003982490859925747,0.00884968414902687,-0.005606752820312977
1717858369893106400,6.3971064453125,0.002430400811135769,0.009405219927430153,-0.0046357642859220505
1717858369903146500,6.407146484375,0.0046610645949840546,0.009108543395996094,-0.00523737259209156
1717858369913187600,6.4171875,0.00395745737478137,0.009527458809316158,-0.00586587842553854
1717858369923228400,6.427228515625,0.002528138691559434,0.009905095212161541,-0.006284793838858604
1717858369933268500,6.4372685546875,0.005055745132267475,0.008901881985366344,-0.006247509736567736
1717858369943309600,6.4473095703125,0.0036464000586420298,0.010341054759919643,-0.005918342620134354
1717858369953350700,6.4573505859375,0.0036511938087642193,0.009618006646633148,-0.0064986455254256725
1717858369963390500,6.467390380859375,0.0036999296862632036,0.007934888824820518,-0.00723447697237134
1717858369973431600,6.477431640625,0.003900465788319707,0.009367935359477997,-0.004811000544577837
1717858369983471400,6.487471435546875,0.0029878003988415003,0.00869255792349577,-0.004683967679738998
1717858369993512400,6.497512451171875,0.0025297366082668304,0.009799101389944553,-0.005572398193180561
1717858370003553300,6.50755322265625,0.005194761790335178,0.009199357591569424,-0.004597414750605822
1717858370013594400,6.517594482421875,0.003225088119506836,0.009287774562835693,-0.003712712787091732
1717858370023634400,6.527634521484375,0.003912449814379215,0.011001517996191978,-0.005930060520768166
1717858370033675500,6.537675537109375,0.0034791536163538694,0.0062432484701275826,-0.006305566523224115
1717858370043715600,6.547715576171875,0.004552407655864954,0.009277653880417347,-0.007661115378141403
1717858370053756400,6.55775634765625,0.003209908027201891,0.009467537514865398,-0.00691915862262249
1717858370063797500,6.567797607421875,0.0038045919500291348,0.009313873015344143,-0.0061535001732409
1717858370073837600,6.577837646484375,0.002409361768513918,0.00875061471015215,-0.006299707572907209
1717858370083878400,6.58787841796875,0.004908472299575806,0.009100819937884808,-0.006761233322322369
1717858370093919500,6.59791943359375,0.0054967645555734634,0.009722668677568436,-0.006036853417754173
1717858370103959600,6.60795947265625,0.0035412053111940622,0.009947705082595348,-0.00577852688729763
1717858370114000600,6.618000732421875,0.003197657410055399,0.008862201124429703,-0.006441121455281973
1717858370124041500,6.62804150390625,0.0033185649663209915,0.009873935952782631,-0.0054152715019881725
1717858370134081300,6.638081298828125,0.0033691651187837124,0.009093363769352436,-0.00552206439897418
1717858370144122400,6.648122314453125,0.004768656101077795,0.008228635415434837,-0.006020075641572475
1717858370154163700,6.658163818359375,0.005344697739928961,0.009332515299320221,-0.005788912996649742
1717858370164203500,6.66820361328125,0.0040943436324596405,0.009378854185342789,-0.005644570104777813
1717858370174244400,6.678244384765625,0.004744155332446098,0.009614810347557068,-0.005724198184907436
1717858370184285400,6.688285400390625,0.004054929129779339,0.00833675917237997,-0.004875715356320143
1717858370194325500,6.698325439453125,0.0032613070216029882,0.00839881133288145,-0.00561074772849679
1717858370204366300,6.708366455078125,0.003899400355294347,0.008795355446636677,-0.005633118096739054
1717858370214407400,6.718407470703125,0.003739078063517809,0.00980336219072342,-0.0062216767109930515
1717858370224447500,6.728447509765625,0.00376011710613966,0.010177802294492722,-0.006281598005443811
1717858370234488600,6.738488525390625,0.004041346721351147,0.010397513397037983,-0.0046517434529960155
1717858370244529400,6.748529296875,0.004856273997575045,0.008619586937129498,-0.006768424063920975
1717858370254569500,6.758569580078125,0.0030780816450715065,0.008523712866008282,-0.0057164751924574375
1717858370264610600,6.768610595703125,0.003498861100524664,0.008518652990460396,-0.00529622845351696
1717858370274651600,6.778651611328125,0.004656004719436169,0.008592423051595688,-0.006471747532486916
1717858370284691500,6.78869140625,0.0049401638098061085,0.008445949293673038,-0.006302903406322002
1717858370294732500,6.798732666015625,0.004991030320525169,0.009227586910128593,-0.0038136467337608337
1717858370304773600,6.808773681640625,0.003733751829713583,0.008548214100301266,-0.005962285213172436
1717858370314813400,6.8188134765625,0.002916427794843912,0.009214537218213081,-0.005359079223126173
1717858370324854300,6.828854248046875,0.003620301140472293,0.008342618122696877,-0.006625145673751831
1717858370334895400,6.838895263671875,0.0023132218047976494,0.00983532052487135,-0.006857639644294977
1717858370344935400,6.848935302734375,0.003315103007480502,0.010055563412606716,-0.0062395199202001095
1717858370354976500,6.8589765625,0.0021734058391302824,0.007920773699879646,-0.005886651109904051
1717858370365017300,6.869017333984375,0.003026416292414069,0.009758088737726212,-0.005793174263089895
1717858370375057400,6.879057373046875,0.004332962911576033,0.007622765842825174,-0.005294364411383867
1717858370385098500,6.889098388671875,0.0015779229579493403,0.009181780740618706,-0.004972654394805431
1717858370395139300,6.899139404296875,0.004006193019449711,0.008614793419837952,-0.006037119776010513
1717858370405179400,6.909179443359375,0.004500742070376873,0.00887738075107336,-0.005075985100120306
1717858370415220500,6.919220458984375,0.0036996633280068636,0.00948138628154993,-0.00520727876573801
1717858370425261600,6.929261474609375,0.0049492185935378075,0.009817743673920631,-0.0046605318784713745
1717858370435301600,6.939301513671875,0.004029096569865942,0.007246727589517832,-0.003870638320222497
1717858370445342500,6.949342529296875,0.003916444722563028,0.00959563534706831,-0.006147108506411314
1717858370455383600,6.959383544921875,0.005030178464949131,0.008159658871591091,-0.005918608978390694
1717858370465423600,6.969423583984375,0.0018634138396009803,0.008082959800958633,-0.006057892460376024
1717858370475464700,6.979464599609375,0.0027087011840194464,0.01022520661354065,-0.005120992194861174
1717858370485505500,6.989505615234375,0.0036597158759832382,0.00863423477858305,-0.006207562051713467
1717858370495545300,6.99954541015625,0.004624579101800919,0.009041964076459408,-0.006415554787963629
1717858370505586400,7.00958642578125,0.0034344124142080545,0.0102579640224576,-0.005653890781104565
1717858370515627300,7.019627197265625,0.0020658141002058983,0.009908024221658707,-0.00424374733120203
1717858370525667300,7.029667236328125,0.004856540355831385,0.009407882578670979,-0.00544456671923399
1717858370535708400,7.03970849609375,0.0033305492252111435,0.010221744887530804,-0.006470948923379183
1717858370545749500,7.04974951171875,0.0059937103651463985,0.009276854805648327,-0.00544430036097765
1717858370555789600,7.05978955078125,0.0037238982040435076,0.009648365899920464,-0.005809685681015253
1717858370565830400,7.069830322265625,0.00487092137336731,0.008160990662872791,-0.004248540848493576
1717858370575871500,7.07987158203125,0.0033486587926745415,0.00920495018362999,-0.005727660376578569
1717858370585911600,7.08991162109375,0.005075985100120306,0.00824115239083767,-0.006095975637435913
1717858370595952400,7.099952392578125,0.0031667647417634726,0.009794574230909348,-0.005530320107936859
1717858370605993500,7.109993408203125,0.005542570725083351,0.008639028295874596,-0.006713029928505421
1717858370616033500,7.120033447265625,0.0036485306918621063,0.008460862562060356,-0.0038037928752601147
1717858370626074600,7.13007470703125,0.0040826257318258286,0.007739678490906954,-0.005771868862211704
1717858370636115500,7.140115478515625,0.0035081820096820593,0.009476060047745705,-0.004802212119102478
1717858370646155500,7.150155517578125,0.004453337751328945,0.008889098651707172,-0.0054277884773910046
1717858370656196600,7.160196533203125,0.0026519757229834795,0.007890413515269756,-0.005760417319834232
1717858370666237700,7.17023779296875,0.003787015099078417,0.009281649254262447,-0.0044469465501606464
1717858370676277500,7.180277587890625,0.0041217743419110775,0.008729576133191586,-0.005215002223849297
1717858370686318300,7.190318359375,0.0038810246624052525,0.009108010679483414,-0.005034173373132944
1717858370696359400,7.200359375,0.004418184049427509,0.00814820732921362,-0.006388657260686159
1717858370706399500,7.2103994140625,0.003997670952230692,0.01022600568830967,-0.006459497381001711
1717858370716440300,7.2204404296875,0.003560912562534213,0.01079778652638197,-0.006583333946764469
1717858370726480400,7.23048046875,0.004537760280072689,0.009710950776934624,-0.006308495998382568
1717858370736521500,7.240521484375,0.0032463932875543833,0.0070704263634979725,-0.006103166379034519
1717858370746562600,7.2505625,0.003829892026260495,0.009186307899653912,-0.0054182009771466255
1717858370756602400,7.260602294921875,0.0036666402593255043,0.008930377662181854,-0.005822202656418085
1717858370766643200,7.270643310546875,0.004619785584509373,0.008411328308284283,-0.0065106297843158245
1717858370776684300,7.280684326171875,0.0044107274152338505,0.008326905779540539,-0.004650145769119263
1717858370786724400,7.290724365234375,0.0032767534721642733,0.007463775109499693,-0.004832572303712368
1717858370796765400,7.300765380859375,0.003418167121708393,0.008153799921274185,-0.0038962047547101974
1717858370806806300,7.31080615234375,0.0028043086640536785,0.008472580462694168,-0.007428887765854597
1717858370816846300,7.320846435546875,0.0036096484400331974,0.009386044926941395,-0.0059625511057674885
1717858370826887400,7.330887451171875,0.00529463030397892,0.008559132926166058,-0.0040884846821427345
1717858370836928300,7.34092822265625,0.004313522018492222,0.009602293372154236,-0.00526773277670145
1717858370846968000,7.350968017578125,0.004530569538474083,0.009727728553116322,-0.006468818057328463
1717858370857009200,7.361009033203125,0.003236006945371628,0.009060872718691826,-0.00555056007578969
1717858370867050200,7.37105029296875,0.004791026934981346,0.008067780174314976,-0.006931941956281662
1717858370877090300,7.38109033203125,0.0052024852484464645,0.0098419776186347,-0.004022172186523676
1717858370887131100,7.391131103515625,0.004882373381406069,0.009135441854596138,-0.005823800805956125
1717858370897172200,7.401172119140625,0.00398621940985322,0.008776181377470493,-0.00552126532420516
1717858370907212300,7.41121240234375,0.0035454663448035717,0.00817989930510521,-0.005331115797162056
1717858370917253400,7.42125341796875,0.0029321403708308935,0.008842493407428265,-0.006204366218298674
1717858370927294200,7.431294189453125,0.004443218000233173,0.008300806395709515,-0.004641357343643904
1717858370937334300,7.441334228515625,0.0038722362369298935,0.008072573691606522,-0.005660815164446831
1717858370947375400,7.451375244140625,0.004650411661714315,0.008742092177271843,-0.004406998865306377
1717858370957416200,7.461416259765625,0.0029081718530505896,0.008253668434917927,-0.004794488660991192
1717858370967456300,7.471456298828125,0.0035537220537662506,0.009488577023148537,-0.00549356872215867
1717858370977497300,7.481497314453125,0.0035931370221078396,0.00899562519043684,-0.005474393721669912
1717858370987538400,7.491538330078125,0.005441370885819197,0.008282430469989777,-0.006057892460376024
1717858370997578500,7.50157861328125,0.004775580484420061,0.008963667787611485,-0.005318865180015564
1717858371007619300,7.511619384765625,0.004142280668020248,0.008994027972221375,-0.006078132428228855
1717858371017660400,7.521660400390625,0.003823234001174569,0.009945575147867203,-0.006461095064878464
1717858371027700200,7.5317001953125,0.003260241821408272,0.009839048609137535,-0.005477056838572025
1717858371037741300,7.5417412109375,0.003838680451735854,0.008862467482686043,-0.005599029827862978
1717858371047782100,7.5517822265625,0.0027513117529451847,0.009283246472477913,-0.003867975203320384
1717858371057822200,7.561822265625,0.003326288191601634,0.011468104086816311,-0.005107676610350609
1717858371067863300,7.57186328125,0.004870122764259577,0.009134376421570778,-0.004165716469287872
1717858371077904100,7.581904052734375,0.004214984830468893,0.008217982016503811,-0.006102900020778179
1717858371087944200,7.591944091796875,0.003481017891317606,0.007896006107330322,-0.006591856479644775
1717858371097985300,7.6019853515625,0.005281314719468355,0.0081527354195714,-0.006356166675686836
1717858371108026400,7.6120263671875,0.0025094966404139996,0.010303770191967487,-0.005882390309125185
1717858371118066400,7.62206640625,0.0020988371688872576,0.010122409090399742,-0.005213137716054916
1717858371128107300,7.632107177734375,0.0016998957144096494,0.007400658447295427,-0.005361209623515606
1717858371138148400,7.6421484375,0.005595301277935505,0.010159427300095558,-0.005329518113285303
1717858371148188400,7.6521884765625,0.004196343012154102,0.008497880771756172,-0.0057007623836398125
1717858371158229200,7.662229248046875,0.004020041786134243,0.010271545499563217,-0.005844573490321636
1717858371168270300,7.672270263671875,0.002058623591437936,0.009001484140753746,-0.0048978193663060665
1717858371178310100,7.68231005859375,0.004269846249371767,0.009134909138083458,-0.004397677723318338
1717858371188351200,7.692351318359375,0.004996889270842075,0.008959139697253704,-0.0057529606856405735
1717858371198392000,7.70239208984375,0.0031989889685064554,0.010164753533899784,-0.0065258098766207695
1717858371208432000,7.71243212890625,0.004781705792993307,0.010303503833711147,-0.005228584166616201
1717858371218473200,7.72247314453125,0.004965996369719505,0.009342901408672333,-0.006310892757028341
1717858371228514300,7.732514404296875,0.0044048684649169445,0.00944996066391468,-0.006250172853469849
1717858371238554000,7.74255419921875,0.003309244057163596,0.009157812222838402,-0.005799565929919481
1717858371248595200,7.75259521484375,0.004442152567207813,0.0095671396702528,-0.0052325790748000145
1717858371258636300,7.76263623046875,0.0026410568971186876,0.010246512480080128,-0.007390005514025688
1717858371268676400,7.77267626953125,0.004335892386734486,0.008672051131725311,-0.00509995361790061
1717858371278717200,7.78271728515625,0.004704207647591829,0.008665659464895725,-0.0054299188777804375
1717858371288758300,7.79275830078125,0.004630704410374165,0.007988950237631798,-0.006111954804509878
1717858371298798300,7.80279833984375,0.004613660275936127,0.009260609745979309,-0.007028880994766951
1717858371308839400,7.81283935546875,0.0027864654548466206,0.009748500771820545,-0.005870938766747713
1717858371318880300,7.82288037109375,0.0032589102629572153,0.009011871181428432,-0.006869623903185129
1717858371328920300,7.83292041015625,0.005544435232877731,0.00893597025424242,-0.005829659756273031
1717858371338961400,7.84296142578125,0.0046362970024347305,0.009089368395507336,-0.006586263421922922
1717858371349002200,7.853002197265625,0.004543619230389595,0.009211075492203236,-0.005499694030731916
1717858371359042000,7.8630419921875,0.0036519928835332394,0.008766859769821167,-0.0065191518515348434
1717858371369083100,7.873083251953125,0.0037145770620554686,0.008929046802222729,-0.005803028121590614
1717858371379124200,7.883124267578125,0.004192348103970289,0.009399094618856907,-0.004916994366794825
1717858371389164300,7.893164306640625,0.003629622282460332,0.010220146737992764,-0.006603308022022247
1717858371399205000,7.903205078125,0.004002997186034918,0.009860886260867119,-0.005498362239450216
1717858371409246200,7.91324609375,0.00532685499638319,0.00908297672867775,-0.00694978516548872
1717858371419286300,7.923286376953125,0.0041010016575455666,0.00971760880202055,-0.0051811798475682735
1717858371429327400,7.933327392578125,0.00436012726277113,0.00896579772233963,-0.005666940473020077
1717858371439368200,7.9433681640625,0.0043891556560993195,0.009738647378981113,-0.005172657780349255
1717858371449408300,7.953408203125,0.004530569538474083,0.010373012162744999,-0.005846970248967409
1717858371459449300,7.963449462890625,0.005496498197317123,0.009471531957387924,-0.0065383268520236015
1717858371469490200,7.973490234375,0.004050667863339186,0.00848722830414772,-0.005938583053648472
1717858371479530200,7.9835302734375,0.0049494849517941475,0.00983398873358965,-0.0064387246966362
1717858371489571300,7.9935712890625,0.0036581179592758417,0.008554605767130852,-0.005899700801819563
1717858371499611400,8.003611328125,0.003968642558902502,0.010149572975933552,-0.004545483272522688
1717858371509652500,8.013652587890626,0.004077299498021603,0.009578058496117592,-0.007121292874217033
1717858371519693300,8.023693359375,0.0031523837242275476,0.008914132602512836,-0.006610231939703226
1717858371529733000,8.033733154296876,0.0035081820096820593,0.009505088441073895,-0.007000385317951441
1717858371539774200,8.043774169921875,0.004983040504157543,0.00939110480248928,-0.006137521006166935
1717858371549815300,8.053815185546876,0.0034788872580975294,0.010724549181759357,-0.0048797097988426685
1717858371559855000,8.063855224609375,0.002552107209339738,0.009275257587432861,-0.0054456316865980625
1717858371569896200,8.073896240234374,0.0032200280111283064,0.009659551084041595,-0.004501008428633213
1717858371579937300,8.083937255859375,0.005005677696317434,0.008562861941754818,-0.00506852800026536
1717858371589977300,8.093977294921874,0.004191282670944929,0.00914502888917923,-0.0067905280739068985
1717858371600018200,8.10401806640625,0.003176884725689888,0.010124539025127888,-0.007474161684513092
1717858371610059300,8.114059326171875,0.003290335414931178,0.00905528012663126,-0.006768424063920975
1717858371620099300,8.124099365234375,0.0030421288684010506,0.009337841533124447,-0.005533782299607992
1717858371630140400,8.134140380859375,0.004701544530689716,0.009073656052350998,-0.005477323196828365
1717858371640181200,8.14418115234375,0.004456267226487398,0.008173507638275623,-0.0052261874079704285
1717858371650221300,8.15422119140625,0.0035060516092926264,0.008052600547671318,-0.005293565336614847
1717858371660262400,8.164262451171876,0.0041638524271547794,0.008758338168263435,-0.005517803598195314
1717858371670303200,8.17430322265625,0.003549194661900401,0.008461395278573036,-0.005483448505401611
1717858371680343300,8.18434326171875,0.0054640076123178005,0.007948736660182476,-0.0054128747433424
1717858371690384400,8.19438427734375,0.0036554548423737288,0.009604424238204956,-0.006913299672305584
1717858371700425500,8.204425537109374,0.0037705034483224154,0.009240902960300446,-0.005215534474700689
1717858371710465300,8.21446533203125,0.003930559381842613,0.009120527654886246,-0.0065191518515348434
1717858371720506000,8.224506103515624,0.0034088462125509977,0.008917062543332577,-0.005479986313730478
1717858371730547200,8.234547119140625,0.004248274490237236,0.007893343456089497,-0.004544417839497328
1717858371740587300,8.244587158203124,0.003940945956856012,0.007574562914669514,-0.0046488139778375626
1717858371750628400,8.25462841796875,0.005953496787697077,0.009036904200911522,-0.005340703297406435
1717858371760669200,8.264669189453125,0.004712463356554508,0.00800359807908535,-0.006169478874653578
1717858371770709200,8.274709228515626,0.003581951605156064,0.008473645895719528,-0.004341484978795052
1717858371780750300,8.284750244140625,0.004433896858245134,0.009549030102789402,-0.005297559779137373
1717858371790791200,8.294791259765624,0.00321816373616457,0.009891512803733349,-0.005121524911373854
1717858371800831200,8.304831298828125,0.0035180358681827784,0.009954629465937614,-0.005693305749446154
1717858371810872300,8.314872314453124,0.003622697899118066,0.008676844649016857,-0.0065013086423277855
1717858371820913400,8.324913330078125,0.00318913534283638,0.009111739695072174,-0.005200354848057032
1717858371830953500,8.334953369140624,0.002901514060795307,0.0078544607385993,-0.005030711181461811
1717858371840994300,8.344994384765625,0.0055002267472445965,0.009666741825640202,-0.006470682565122843
1717858371851035400,8.355035400390625,0.004209658596664667,0.009793242439627647,-0.00589703768491745
1717858371861075200,8.3650751953125,0.003290601773187518,0.008927182294428349,-0.005273325368762016
1717858371871116300,8.3751162109375,0.005305283237248659,0.00857191625982523,-0.006173207424581051
1717858371881157000,8.3851572265625,0.00279019377194345,0.008619054220616817,-0.004747084807604551
1717858371891197200,8.395197265625,0.005537510849535465,0.009268599562346935,-0.004091946873813868
1717858371901238300,8.40523828125,0.004662395920604467,0.007893876172602177,-0.005490106530487537
1717858371911279000,8.415279052734375,0.00484215933829546,0.008847021497786045,-0.005559348501265049
1717858371921319200,8.425319091796876,0.0018940401496365666,0.009788715280592442,-0.004916994366794825
1717858371931360300,8.4353603515625,0.0034967304673045874,0.010046775452792645,-0.005660548806190491
1717858371941401300,8.4454013671875,0.003524960018694401,0.0091732582077384,-0.004805141594260931
1717858371951441400,8.45544140625,0.0033273533917963505,0.009237440302968025,-0.006738862954080105
1717858371961482200,8.465482177734375,0.003497795667499304,0.009147691540420055,-0.004790227860212326
1717858371971523300,8.4755234375,0.004233360756188631,0.009796171449124813,-0.003918042406439781
1717858371981563400,8.4855634765625,0.004424042999744415,0.008796687237918377,-0.00515747768804431
1717858371991604200,8.495604248046876,0.004118045791983604,0.009161540307104588,-0.006985205225646496
1717858372001645300,8.505645263671875,0.0014005564153194427,0.00980309583246708,-0.004318848252296448
1717858372011685400,8.515685302734376,0.004734834190458059,0.010194048285484314,-0.00774633651599288
1717858372021726500,8.5257265625,0.004091946873813868,0.009346097707748413,-0.005803294479846954
1717858372031767300,8.535767333984374,0.004658401478081942,0.008763664402067661,-0.004505802411586046
1717858372041807000,8.54580712890625,0.004297010600566864,0.009077384136617184,-0.005502090789377689
1717858372051848200,8.55584814453125,0.0031366711482405663,0.009346896782517433,-0.005673864856362343
1717858372061889300,8.56588916015625,0.0043779704719781876,0.008731173351407051,-0.005034173373132944
1717858372071929300,8.575929443359374,0.0037926076911389828,0.008330633863806725,-0.0041497377678751945
1717858372081970200,8.58597021484375,0.0046903593465685844,0.009483516216278076,-0.006573480553925037
1717858372092011300,8.59601123046875,0.0033968619536608458,0.01034744642674923,-0.005396629683673382
1717858372102051300,8.60605126953125,0.0037294907961040735,0.010008425451815128,-0.00509835546836257
1717858372112092200,8.616092041015625,0.004614725708961487,0.007570568006485701,-0.004618986509740353
1717858372122133200,8.62613330078125,0.00418515782803297,0.008802279829978943,-0.004491953644901514
1717858372132173300,8.63617333984375,0.003865045728161931,0.010162089951336384,-0.00606348505243659
1717858372142214400,8.64621435546875,0.0023225427139550447,0.009215869009494781,-0.005298891570419073
1717858372152255200,8.656255126953125,0.0034764904994517565,0.009162872098386288,-0.006879477761685848
1717858372162295300,8.66629541015625,0.003625893732532859,0.008562595583498478,-0.004249339923262596
1717858372172336400,8.67633642578125,0.004700479097664356,0.008584433235228062,-0.0046544065698981285
1717858372182377200,8.686377197265625,0.003328951308503747,0.009710950776934624,-0.00481339730322361
1717858372192417300,8.696417236328125,0.003968376200646162,0.009019060991704464,-0.006057093385607004
1717858372202458400,8.706458251953125,0.001657285145483911,0.009672068059444427,-0.006457632873207331
1717858372212499500,8.71649951171875,0.003591006388887763,0.008500277064740658,-0.005391835700720549
1717858372222539300,8.726539306640625,0.006097041070461273,0.009843309409916401,-0.006082393694669008
1717858372232580000,8.736580078125,0.003930293023586273,0.008408931083977222,-0.005015531089156866
1717858372242621200,8.74662109375,0.003224022686481476,0.009710684418678284,-0.00583605095744133
1717858372252661200,8.7566611328125,0.003477289341390133,0.008822786621749401,-0.0067899953573942184
1717858372262702300,8.766702392578125,0.0034876756835728884,0.009127984754741192,-0.007000918034464121
1717858372272743200,8.7767431640625,0.0026170883793383837,0.009722135961055756,-0.006959639023989439
1717858372282783200,8.786783203125,0.003347327234223485,0.008984706364572048,-0.006895456463098526
1717858372292824300,8.79682421875,0.003626692807301879,0.009034241549670696,-0.006992661859840155
1717858372302865200,8.806865234375,0.0052261874079704285,0.00851732213050127,-0.006235259119421244
1717858372312905200,8.8169052734375,0.002612028270959854,0.00878230668604374,-0.005591573193669319
1717858372322946300,8.8269462890625,0.004488225560635328,0.010526676662266254,-0.006433664355427027
1717858372332987400,8.8369873046875,0.003998203668743372,0.010070211254060268,-0.005766542628407478
1717858372343027500,8.84702734375,0.0034088462125509977,0.00914263166487217,-0.006446181330829859
1717858372353068300,8.857068359375,0.004081294406205416,0.009973005391657352,-0.004320446401834488
1717858372363109400,8.867109375,0.005101817660033703,0.009528257884085178,-0.005422994960099459
1717858372373149200,8.877149169921875,0.0024141555186361074,0.010014018043875694,-0.006448311731219292
1717858372383190300,8.887190185546874,0.004277302883565426,0.00914289802312851,-0.00520701240748167
1717858372393231000,8.897231201171875,0.003931891173124313,0.009706955403089523,-0.005300489254295826
1717858372403271200,8.907271240234374,0.003471696749329567,0.009243299253284931,-0.005257079843431711
1717858372413312300,8.917312255859375,0.003781422507017851,0.008783371187746525,-0.006086388137191534
1717858372423353000,8.92735302734375,0.005363872740417719,0.009504822082817554,-0.006146043073385954
1717858372433393200,8.93739306640625,0.0036605149507522583,0.010011888109147549,-0.006863764952868223
1717858372443434200,8.947434326171875,0.003579288488253951,0.00926274061203003,-0.00637747161090374
1717858372453475300,8.957475341796876,0.003980094101279974,0.00948032084852457,-0.006247509736567736
1717858372463515400,8.967515380859375,0.005387841258198023,0.00935302209109068,-0.006016347091645002
1717858372473556200,8.97755615234375,0.004507666453719139,0.009336509741842747,-0.00631861574947834
1717858372483596300,8.98759619140625,0.0032740901224315166,0.010297911241650581,-0.005392901133745909
1717858372493637400,8.997637451171874,0.003572896821424365,0.009644904173910618,-0.0059811933897435665
1717858372503678200,9.00767822265625,0.0038165762089192867,0.007947404868900776,-0.004884770140051842
1717858372513718300,9.01771826171875,0.004298608284443617,0.008451541885733604,-0.006310892757028341
1717858372523759400,9.02775927734375,0.0034317492973059416,0.009314405731856823,-0.006702643819153309
1717858372533800400,9.037800537109375,0.00373028963804245,0.008717857301235199,-0.006359894759953022
1717858372543840300,9.04784033203125,0.005301554687321186,0.009187906049191952,-0.005160140804946423
1717858372553881000,9.057881103515625,0.003528422210365534,0.010252105072140694,-0.005520466715097427
1717858372563922200,9.067922119140626,0.0037468012887984514,0.009152219630777836,-0.005838980432599783
1717858372573962200,9.077962158203125,0.003480751533061266,0.009356750175356865,-0.005653358530253172
1717858372584003300,9.08800341796875,0.005363073665648699,0.008983640931546688,-0.005864547099918127
1717858372594044200,9.098044189453125,0.0032948628067970276,0.010149040259420872,-0.005816610064357519
1717858372604084200,9.108084228515626,0.0032117723021656275,0.00893597025424242,-0.006980677600950003
1717858372614125300,9.118125244140625,0.004239219706505537,0.009358881041407585,-0.006361492909491062
1717858372624166100,9.128166259765624,0.005431250669062138,0.009520001709461212,-0.007074687164276838
1717858372634206200,9.138206298828125,0.0043654534965753555,0.009767675772309303,-0.006699714343994856
1717858372644247300,9.148247314453124,0.0025308020412921906,0.009782323613762856,-0.005234709475189447
1717858372654288400,9.158288330078125,0.002959304489195347,0.009386311285197735,-0.00589623861014843
1717858372664328400,9.168328369140625,0.004574245307594538,0.009553823620080948,-0.005219263024628162
1717858372674369300,9.178369384765626,0.00407623453065753,0.009810552932322025,-0.006548712961375713
1717858372684410400,9.188410400390625,0.003962517250329256,0.009211075492203236,-0.006603041663765907
1717858372694450400,9.198450439453126,0.003887682454660535,0.010519485920667648,-0.005902630276978016
1717858372704491300,9.2084912109375,0.002383795566856861,0.009642773307859898,-0.005811017472296953
1717858372714532400,9.218532470703124,0.004233094397932291,0.00851332675665617,-0.004708202555775642
1717858372724572200,9.228572265625,0.0051862397231161594,0.008044078014791012,-0.0065742796286940575
1717858372734613200,9.23861328125,0.003689809702336788,0.009527991525828838,-0.005789978429675102
1717858372744654000,9.248654052734375,0.004532434046268463,0.009179649874567986,-0.005950567312538624
1717858372754694100,9.258694091796874,0.0049129994586110115,0.010243848897516727,-0.005570267792791128
1717858372764735200,9.2687353515625,0.0057439059019088745,0.0090555464848876,-0.005049619823694229
1717858372774776300,9.2787763671875,0.004298341926187277,0.007819573394954205,-0.0062243398278951645
1717858372784816000,9.288816162109375,0.003909520339220762,0.008647283539175987,-0.006416353862732649
1717858372794857000,9.29885693359375,0.004565989598631859,0.008590558543801308,-0.005573996342718601
1717858372804898000,9.30889794921875,0.003207511268556118,0.009924535639584064,-0.005788380745798349
1717858372814938000,9.318938232421875,0.0025683525018393993,0.008533567190170288,-0.0070400661788880825
1717858372824979000,9.32897900390625,0.0041310954838991165,0.0087820403277874,-0.005059739574790001
1717858372835020000,9.33902001953125,0.004062119405716658,0.009280583821237087,-0.005191033706068993
1717858372845060000,9.34906005859375,0.004773982334882021,0.009373261593282223,-0.0064983791671693325
1717858372855101200,9.35910107421875,0.0029944581910967827,0.009253951720893383,-0.005215800832957029
1717858372865142000,9.36914208984375,0.002891660202294588,0.009604424238204956,-0.006759102921932936
1717858372875182000,9.37918212890625,0.003907656297087669,0.009362609125673771,-0.00759853096678853
1717858372885223200,9.38922314453125,0.004381699021905661,0.008838765323162079,-0.0057409764267504215
1717858372895264300,9.39926416015625,0.003837881376966834,0.0094520915299654,-0.006459763273596764
1717858372905304300,9.40930419921875,0.003695668652653694,0.00996075477451086,-0.006083725020289421
1717858372915345200,9.41934521484375,0.003966512158513069,0.009260077029466629,-0.00509755639359355
1717858372925386200,9.42938623046875,0.0034503915812820196,0.009526393376290798,-0.006147907115519047
1717858372935426000,9.439426025390626,0.0032525185961276293,0.009011871181428432,-0.0060357884503901005
1717858372945467000,9.449466796875,0.0036242958158254623,0.010029198601841927,-0.006328203249722719
1717858372955508000,9.459508056640624,0.00424294825643301,0.009979663416743279,-0.0070853400975465775
1717858372965548000,9.469548095703125,0.0043840957805514336,0.008761799894273281,-0.007004113402217627
1717858372975589000,9.479589111328124,0.002776079112663865,0.009133044630289078,-0.00490154791623354
1717858372985630000,9.4896298828125,0.004001665860414505,0.0073386067524552345,-0.005876797717064619
1717858372995670000,9.499669921875,0.00478410255163908,0.009188704192638397,-0.0065471152774989605
1717858373005711000,9.509711181640625,0.0034557178150862455,0.010694456286728382,-0.005681587848812342
1717858373015752200,9.519752197265625,0.0028394623659551144,0.009682721458375454,-0.0075548551976680756
1717858373025792000,9.5297919921875,0.003201652318239212,0.009579390287399292,-0.004391552414745092
1717858373035833000,9.5398330078125,0.0031971249263733625,0.008705341257154942,-0.005416869651526213
1717858373045874200,9.549874267578126,0.003907389938831329,0.009385245852172375,-0.004266916774213314
1717858373055914200,9.559914306640625,0.004559864290058613,0.008137022145092487,-0.0057164751924574375
1717858373065955000,9.569955078125,0.004512726329267025,0.009899502620100975,-0.006619553081691265
1717858373075996200,9.57999609375,0.0030892668291926384,0.007154582068324089,-0.0051566786132752895
1717858373086036200,9.5900361328125,0.004245078656822443,0.00998978316783905,-0.006196110509335995
1717858373096077300,9.600077392578125,0.003525492735207081,0.009730657562613487,-0.005932724103331566
1717858373106118100,9.6101181640625,0.005052549298852682,0.008832906372845173,-0.005363073665648699
1717858373116158000,9.620157958984375,0.003344131400808692,0.010087521746754646,-0.006147374864667654
1717858373126199000,9.630198974609375,0.0038101845420897007,0.007863249629735947,-0.0067657604813575745
1717858373136240000,9.640240234375,0.005343366414308548,0.011011372320353985,-0.004918325692415237
1717858373146280000,9.650280029296875,0.004318049177527428,0.009020659141242504,-0.0032615733798593283
1717858373156321000,9.660321044921876,0.00472551304847002,0.008742624893784523,-0.006618221756070852
1717858373166362000,9.670362060546875,0.003632019041106105,0.009926400147378445,-0.006592655088752508
1717858373176402200,9.680402099609376,0.004649879410862923,0.009622800163924694,-0.007098922040313482
1717858373186443000,9.690443115234375,0.00421285443007946,0.009251555427908897,-0.0046179210767149925
1717858373196484000,9.700484130859374,0.003585147438570857,0.009765013121068478,-0.006376140285283327
1717858373206524200,9.710524169921875,0.003950000274926424,0.008841427974402905,-0.005768939387053251
1717858373216565200,9.720565185546874,0.004237888380885124,0.009375126101076603,-0.006362025626003742
1717858373226606000,9.730606201171875,0.00401524780318141,0.009090433828532696,-0.005967345088720322
1717858373236646100,9.740646240234375,0.0023193468805402517,0.008992696180939674,-0.004824316129088402
1717858373246687200,9.750687255859376,0.005305549595504999,0.00935941282659769,-0.005556685384362936
1717858373256728000,9.76072802734375,0.004722849931567907,0.010175406001508236,-0.004840028937906027
1717858373266768100,9.77076806640625,0.0033726270776242018,0.008974053896963596,-0.00561048137024045
1717858373276809200,9.780809326171875,0.003156911116093397,0.008236890658736229,-0.005583583377301693
1717858373286850300,9.790850341796874,0.003353186184540391,0.009818541817367077,-0.004743356257677078
1717858373296890000,9.80089013671875,0.004341219086199999,0.009807356633245945,-0.00376064982265234
1717858373306931000,9.810930908203124,0.004148405976593494,0.007495732977986336,-0.006086121778935194
1717858373316972000,9.820971923828125,0.003662112867459655,0.009669938124716282,-0.004310326185077429
1717858373327012000,9.83101220703125,0.0026075011119246483,0.009877664037048817,-0.00538411270827055
1717858373337053200,9.84105322265625,0.0057401773519814014,0.011034009046852589,-0.005008873529732227
1717858373347094000,9.851093994140625,0.004542021080851555,0.008653675206005573,-0.0067963870242238045
1717858373357134000,9.861134033203125,0.004411792848259211,0.009276323020458221,-0.0059998356737196445
1717858373367175200,9.871175048828125,0.0037057886365801096,0.008448079228401184,-0.005754824727773666
1717858373377216000,9.881216064453126,0.0031941954512149096,0.009910155087709427,-0.006591057404875755
1717858373387256000,9.891256103515625,0.0041313618421554565,0.00959963072091341,-0.006009689066559076
1717858373397297200,9.901297119140626,0.005005944054573774,0.009564210660755634,-0.005434180144220591
1717858373407338200,9.911338134765625,0.0032751555554568768,0.008779643103480339,-0.006977215874940157
1717858373417378300,9.92137841796875,0.0028732845094054937,0.00872105360031128,-0.00649651512503624
1717858373427419100,9.931419189453125,0.004349208436906338,0.00851732213050127,-0.006524478085339069
1717858373437460200,9.941460205078124,0.004612861201167107,0.008775382302701473,-0.005478122271597385
1717858373447500000,9.9515,0.004698348697274923,0.007801996544003487,-0.003965713083744049
1717858373457540900,9.961540771484374,0.0034344124142080545,0.009860087186098099,-0.006721286103129387
1717858373467582000,9.97158203125,0.005251487251371145,0.008436094969511032,-0.0056392434053123
1717858373477622000,9.9816220703125,0.004293015692383051,0.009376457892358303,-0.005621932912617922
1717858373487663000,9.9916630859375,0.0044077979400753975,0.01152695994824171,-0.006381732877343893
1717858373497704000,10.001703857421875,0.002802710747346282,0.009006544016301632,-0.005388906225562096
1717858373507744000,10.011743896484376,0.003067961661145091,0.009288839064538479,-0.006581736262887716
1717858373517785000,10.02178515625,0.0018024274613708258,0.009265136905014515,-0.005848567932844162
1717858373527826200,10.031826171875,0.004018709994852543,0.010398578830063343,-0.0034961977507919073
1717858373537866200,10.0418662109375,0.003976898267865181,0.008162855170667171,-0.006205165293067694
1717858373547907000,10.051906982421874,0.0030450583435595036,0.009416138753294945,-0.006057892460376024
1717858373557948200,10.0619482421875,0.0036815537605434656,0.007979629561305046,-0.0062821307219564915
1717858373567988200,10.07198828125,0.005045624915510416,0.009880860336124897,-0.005269863177090883
1717858373578029000,10.082029052734375,0.004480768460780382,0.008883506059646606,-0.006390254944562912
1717858373588070100,10.092070068359375,0.0021608888637274504,0.00890640914440155,-0.006616357248276472
1717858373598110200,10.102110107421876,0.0030426615849137306,0.009163937531411648,-0.00663340138271451
1717858373608151300,10.1121513671875,0.005034706089645624,0.009489907883107662,-0.005272526293992996
1717858373618192100,10.122192138671876,0.0034796863328665495,0.007981227710843086,-0.006087187211960554
1717858373628232000,10.13223193359375,0.0041313618421554565,0.009065399877727032,-0.006350839976221323
1717858373638273000,10.14227294921875,0.002680737990885973,0.009282181970775127,-0.006439789664000273
1717858373648314000,10.152314208984375,0.0032985913567245007,0.010179134085774422,-0.006078931502997875
1717858373658354000,10.16235400390625,0.005057342816144228,0.008227303624153137,-0.0065772091038525105
1717858373668395000,10.17239501953125,0.0027712853625416756,0.008758071810007095,-0.006316218990832567
1717858373678436000,10.18243603515625,0.00392683083191514,0.009869408793747425,-0.006843524985015392
1717858373688476200,10.19247607421875,0.0035806200467050076,0.009007076732814312,-0.0060264673084020615
1717858373698517000,10.20251708984375,0.003439206164330244,0.009942911565303802,-0.004769721534103155
1717858373708558000,10.21255810546875,0.004255997482687235,0.009000951424241066,-0.005370530765503645
1717858373718598100,10.22259814453125,0.003659183392301202,0.010553308762609959,-0.004990231245756149
1717858373728639200,10.23263916015625,0.003715375903993845,0.009077117778360844,-0.005548962391912937
1717858373738680000,10.24268017578125,0.001799764228053391,0.009095227345824242,-0.006162554491311312
1717858373748720000,10.25272021484375,0.0049825082533061504,0.009126120246946812,-0.0062304651364684105
1717858373758761500,10.262761474609375,0.00398648576810956,0.00996288564056158,-0.005327387247234583
1717858373768802300,10.27280224609375,0.0041305627673864365,0.009336243383586407,-0.006619553081691265
1717858373778842400,10.28284228515625,0.0043958136811852455,0.009287241846323013,-0.006129531655460596
1717858373788883500,10.292883544921875,0.0032692966051399708,0.0075695025734603405,-0.005264270585030317
1717858373798924500,10.302924560546876,0.004637096077203751,0.00959563534706831,-0.006012352649122477
1717858373808964400,10.31296435546875,0.00541447289288044,0.009354885667562485,-0.005605954211205244
1717858373819005200,10.323005126953126,0.003552656853571534,0.00965742114931345,-0.005889846943318844
1717858373829046300,10.33304638671875,0.002897785510867834,0.009947439655661583,-0.00600383011624217
1717858373839086300,10.34308642578125,0.003674895968288183,0.009368468075990677,-0.006847519893199205
1717858373849127200,10.353127197265625,0.0038285604678094387,0.009445699863135815,-0.005407548509538174
1717858373859168300,10.363168212890624,0.0054632085375487804,0.008052334189414978,-0.004707936197519302
1717858373869208300,10.373208251953125,0.004198473412543535,0.008855809457600117,-0.005839779507368803
1717858373879249400,10.38324951171875,0.004555337131023407,0.009500028565526009,-0.006475476082414389
1717858373889290200,10.393290283203125,0.004040015395730734,0.00890800729393959,-0.0040765004232525826
1717858373899330300,10.403330322265624,0.005465073045343161,0.008833971805870533,-0.006602775305509567
1717858373909371400,10.413371337890625,0.0051803807727992535,0.009269132278859615,-0.004820588044822216
1717858373919412500,10.42341259765625,0.004540689755231142,0.008915464393794537,-0.006021406967192888
1717858373929452500,10.43345263671875,0.0038448055274784565,0.009927731938660145,-0.006084257736802101
1717858373939493400,10.443493408203125,0.004739094991236925,0.00897032581269741,-0.006484797224402428
1717858373949534500,10.453534423828126,0.0038362834602594376,0.00974184274673462,-0.0075601814314723015
1717858373959574500,10.463574462890625,0.003950266633182764,0.009817743673920631,-0.004730572924017906
1717858373969615400,10.473615478515624,0.0031467911321669817,0.010068346746265888,-0.006482134107500315
1717858373979656400,10.483656494140625,0.004486361052840948,0.008958341553807259,-0.004817924462258816
1717858373989696300,10.4936962890625,0.002669020090252161,0.0092347776517272,-0.006308495998382568
1717858373999737300,10.5037373046875,0.003881823504343629,0.007873103022575378,-0.004570517223328352
1717858374009778200,10.513778076171874,0.004826180636882782,0.009212139993906021,-0.006082127336412668
1717858374019818200,10.523818359375,0.004713795147836208,0.00884781964123249,-0.006707970052957535
1717858374029859300,10.533859375,0.004023503512144089,0.009851032868027687,-0.005449626594781876
1717858374039900400,10.543900390625,0.0030778152868151665,0.00971680972725153,-0.006390521302819252
1717858374049940200,10.553940185546875,0.0029827402904629707,0.009606820531189442,-0.0056951697915792465
1717858374059981300,10.563981201171876,0.00500967213883996,0.00939137116074562,-0.007387342397123575
1717858374070022400,10.5740224609375,0.003138801548629999,0.008892294950783253,-0.005943642929196358
1717858374080062500,10.5840625,0.0044408212415874004,0.009213471785187721,-0.004731105640530586
1717858374090103300,10.594103271484375,0.004834436345845461,0.009808688424527645,-0.005498628597706556
1717858374100144400,10.604144287109374,0.004838164895772934,0.009674731642007828,-0.005771602503955364
1717858374110184400,10.614184326171875,0.002239984693005681,0.008286692202091217,-0.006776946131139994
1717858374120225500,10.6242255859375,0.0035396073944866657,0.010165286250412464,-0.005709018558263779
1717858374130266400,10.634266357421875,0.0044320328161120415,0.009080846793949604,-0.006043511442840099
1717858374140306400,10.644306396484374,0.004751345608383417,0.008971656672656536,-0.005347627215087414
1717858374150347500,10.654347412109376,0.002275671111419797,0.009920807555317879,-0.003935352899134159
1717858374160388400,10.664388427734375,0.005073321983218193,0.008828379213809967,-0.005343100056052208
1717858374170428200,10.67442822265625,0.0043505397625267506,0.008737298659980297,-0.00669465446844697
1717858374180469200,10.68446923828125,0.0028490496333688498,0.008524778299033642,-0.005940979812294245
1717858374190510300,10.69451025390625,0.004522313829511404,0.008665393106639385,-0.006595051847398281
1717858374200550400,10.70455029296875,0.00424401368945837,0.009763148613274097,-0.005363606382161379
1717858374210591200,10.71459130859375,0.00398648576810956,0.00932985171675682,-0.006711698602885008
1717858374220632300,10.72463232421875,0.004332962911576033,0.008924518711864948,-0.005572398193180561
1717858374230672400,10.73467236328125,0.003352653468027711,0.0075750951655209064,-0.006204366218298674
1717858374240713500,10.74471337890625,0.0031641016248613596,0.009601227939128876,-0.006926349364221096
1717858374250754300,10.75475439453125,0.004404069390147924,0.009623865596950054,-0.006586796138435602
1717858374260794400,10.76479443359375,0.004263454582542181,0.008931443095207214,-0.004703674931079149
1717858374270835500,10.77483544921875,0.004339887294918299,0.008117581717669964,-0.006647250149399042
1717858374280876300,10.784876220703126,0.004618453793227673,0.009525061585009098,-0.004426972474902868
1717858374290916400,10.794916259765625,0.005149221979081631,0.009400691837072372,-0.006216616835445166
1717858374300957400,10.80495751953125,0.0023997745011001825,0.008803877979516983,-0.005935653578490019
1717858374310998500,10.81499853515625,0.004004062619060278,0.008703210391104221,-0.006042978726327419
1717858374321039400,10.825039306640624,0.003546797903254628,0.009193232282996178,-0.00458676228299737
1717858374331079200,10.8350791015625,0.003576891729608178,0.00914662703871727,-0.005538576282560825
1717858374341120300,10.845120361328124,0.004058923572301865,0.00920095480978489,-0.006197708658874035
1717858374351160300,10.855160400390625,0.004962534178048372,0.009702694602310658,-0.006610498297959566
1717858374361201400,10.865201416015625,0.0012210593558847904,0.009945575147867203,-0.007836351171135902
1717858374371242200,10.8752421875,0.003185939509421587,0.010351707227528095,-0.0049188584089279175
1717858374381282300,10.8852822265625,0.0036016590893268585,0.008896555751562119,-0.006059224251657724
1717858374391323400,10.895323486328126,0.004811533261090517,0.008986038155853748,-0.006130862981081009
1717858374401364200,10.9053642578125,0.005294364411383867,0.00845846626907587,-0.00612313998863101
1717858374411404300,10.915404296875,0.002688460983335972,0.008767925202846527,-0.006490656174719334
1717858374421445400,10.9254453125,0.003320429241284728,0.008769789710640907,-0.004597414750605822
1717858374431486500,10.935486572265624,0.004608067683875561,0.009956760331988335,-0.005401689559221268
1717858374441526500,10.945526611328125,0.0038067223504185677,0.008930644020438194,-0.005016862880438566
1717858374451567400,10.9555673828125,0.005919674411416054,0.008803345263004303,-0.006672549992799759
1717858374461608400,10.9656083984375,0.0032051142770797014,0.009529856033623219,-0.007389206904917955
1717858374471648500,10.9756484375,0.004253334365785122,0.010802846401929855,-0.004787298385053873
1717858374481689300,10.985689453125,0.003222158644348383,0.009491506032645702,-0.005212871357798576
1717858374491730400,10.99573046875,0.0033931334037333727,0.010091516189277172,-0.005367867648601532
1717858374501770200,11.005770263671875,0.003603257006034255,0.010863566771149635,-0.00509995361790061
1717858374511811300,11.015811279296875,0.005167065188288689,0.010277139022946358,-0.006810768041759729
1717858374521852200,11.02585205078125,0.004583832807838917,0.008477906696498394,-0.006905043963342905
1717858374531892200,11.035892333984375,0.004414722323417664,0.009100021794438362,-0.004775047767907381
1717858374541933300,11.045933349609374,0.002314020646736026,0.009893643669784069,-0.006640592124313116
1717858374551974400,11.055974365234375,0.0030740867368876934,0.00857111718505621,-0.007653658743947744
1717858374562014500,11.066014404296874,0.004083424806594849,0.009013202041387558,-0.00449914438650012
1717858374572055300,11.07605517578125,0.004458930809050798,0.008873386308550835,-0.005287440028041601
1717858374582096400,11.086096435546875,0.004756405483931303,0.009982326999306679,-0.0065505774691700935
1717858374592136400,11.096136474609375,0.00412417110055685,0.00839561503380537,-0.0070619042962789536
1717858374602177300,11.10617724609375,0.0027110979426652193,0.00942279677838087,-0.004881307948380709
1717858374612218400,11.11621826171875,0.0031968585681170225,0.008272843435406685,-0.00672421557828784
1717858374622258400,11.126258544921875,0.004265584982931614,0.008218248374760151,-0.005097024142742157
1717858374632299500,11.136299560546876,0.002983805723488331,0.008686965331435204,-0.005472263321280479
1717858374642340400,11.14634033203125,0.0033574472181499004,0.008638761937618256,-0.0062975771725177765
1717858374652380400,11.15638037109375,0.004745486658066511,0.008953280746936798,-0.005628324579447508
1717858374662421500,11.16642138671875,0.004352670628577471,0.009457417763769627,-0.006134325172752142
1717858374672462300,11.17646240234375,0.0019624833948910236,0.008772985078394413,-0.005951365921646357
1717858374682502100,11.186502197265625,0.0043473439291119576,0.009465141221880913,-0.007240868639200926
1717858374692543200,11.196543212890624,0.004851480480283499,0.008724248968064785,-0.004977980628609657
1717858374702584300,11.206584228515625,0.003278617514297366,0.008407066576182842,-0.006845921743661165
1717858374712624400,11.216624267578124,0.0034165694378316402,0.010181531310081482,-0.0070579093880951405
1717858374722665200,11.226665283203126,0.0036567864008247852,0.009398295544087887,-0.005645102355629206
1717858374732706300,11.236706298828125,0.003453853540122509,0.009548231028020382,-0.005658684764057398
1717858374742746400,11.246746337890626,0.001996571896597743,0.00746084563434124,-0.00749067310243845
1717858374752787700,11.25678759765625,0.0030895331874489784,0.01059485413134098,-0.005863215308636427
1717858374762828500,11.26682861328125,0.0041643851436674595,0.00947739090770483,-0.005002748221158981
1717858374772868600,11.27686865234375,0.004880508873611689,0.008317318744957447,-0.006603308022022247
1717858374782909700,11.28690966796875,0.003093794221058488,0.008476574905216694,-0.0062887887470424175
1717858374792950500,11.296950439453125,0.0033071134239435196,0.010100571438670158,-0.005687180440872908
1717858374802990600,11.306990478515624,0.0036906085442751646,0.00902438722550869,-0.005812349263578653
1717858374813031700,11.31703173828125,0.0032487902790308,0.009987386874854565,-0.005643504671752453
1717858374823072800,11.32707275390625,0.003955593332648277,0.009104282595217228,-0.005034439731389284
1717858374833112800,11.33711279296875,0.002669020090252161,0.008458998054265976,-0.006683202926069498
1717858374843153700,11.347153564453125,0.0036517265252768993,0.009636914357542992,-0.006484530866146088
1717858374853194800,11.35719482421875,0.003385676769539714,0.00857324805110693,-0.00567093538120389
1717858374863234600,11.367234619140625,0.0049039446748793125,0.009094694629311562,-0.0065801385790109634
1717858374873275400,11.377275390625,0.0037409423384815454,0.009296296164393425,-0.005899700801819563
1717858374883316500,11.38731640625,0.002767557045444846,0.008959139697253704,-0.005819539539515972
1717858374893356500,11.3973564453125,0.003479952458292246,0.009811884723603725,-0.006689061876386404
1717858374903397600,11.407397705078125,0.004791293293237686,0.00896553136408329,-0.005465073045343161
1717858374913438500,11.4174384765625,0.003230947069823742,0.00848722830414772,-0.006894391495734453
1717858374923478500,11.427478515625,0.005264270585030317,0.00953624676913023,-0.005621400196105242
1717858374933519600,11.43751953125,0.004769455175846815,0.009719472378492355,-0.005116997752338648
1717858374943560700,11.447560791015626,0.003941211849451065,0.009878729470074177,-0.006115150637924671
1717858374953600800,11.457600830078125,0.003915912006050348,0.010215353220701218,-0.005849633365869522
1717858374963641600,11.4676416015625,0.003425091505050659,0.011154117062687874,-0.006073871627449989
1717858374973682700,11.4776826171875,0.004819788970053196,0.010132262483239174,-0.006770554464310408
1717858374983722800,11.48772265625,0.003561711637303233,0.009342901408672333,-0.005261607468128204
1717858374993763600,11.497763671875,0.0029435919132083654,0.009433449245989323,-0.005726329050958157
1717858375003803400,11.507803466796876,0.0037529265973716974,0.008177235722541809,-0.005885852500796318
1717858375013844500,11.517844482421875,0.005928995553404093,0.008434231393039227,-0.006533799227327108
1717858375023885600,11.527885498046874,0.002487658755853772,0.009077384136617184,-0.005743106827139854
1717858375033926400,11.537926513671875,0.003573962254449725,0.009445699863135815,-0.0049372343346476555
1717858375043966500,11.547966552734374,0.004168645944446325,0.009309878572821617,-0.005799832288175821
1717858375054007600,11.558007568359375,0.002938798163086176,0.00845686811953783,-0.006252835970371962
1717858375064047600,11.568047607421875,0.0034943337086588144,0.009166866540908813,-0.006208627484738827
1717858375074088400,11.57808837890625,0.003067428944632411,0.008467786945402622,-0.00708800321444869
1717858375084129500,11.588129638671875,0.002288188086822629,0.009936253540217876,-0.00612313998863101
1717858375094169600,11.598169677734376,0.0037499971222132444,0.0092307822778821,-0.005311941262334585
1717858375104210700,11.608210693359375,0.0044235107488930225,0.01005343347787857,-0.0054142065346241
1717858375114251500,11.61825146484375,0.0032495891209691763,0.008976717479526997,-0.004983040504157543
1717858375124291600,11.62829150390625,0.0041039311327040195,0.010489924810826778,-0.006786533165723085
1717858375134332700,11.638332763671874,0.0027268105186522007,0.009665410034358501,-0.006687197368592024
1717858375144373800,11.648373779296875,0.0033627734519541264,0.008535963483154774,-0.006681072060018778
1717858375154413800,11.658413818359374,0.002162486780434847,0.00860121101140976,-0.0043992758728563786
1717858375164454700,11.66845458984375,0.002569684060290456,0.00851545762270689,-0.00669225724413991
1717858375174495700,11.678495849609375,0.004080228973180056,0.009410546161234379,-0.005615807604044676
1717858375184535600,11.68853564453125,0.0044139232486486435,0.009048355743288994,-0.00589570589363575
1717858375194576400,11.698576416015625,0.004290352575480938,0.008616657927632332,-0.005500758998095989
1717858375204617500,11.708617431640626,0.0049428269267082214,0.009550361894071102,-0.005957757588475943
1717858375214657500,11.718657470703125,0.005690908990800381,0.009523464366793633,-0.004427771549671888
1717858375224698600,11.72869873046875,0.005194495897740126,0.010100305080413818,-0.0049164616502821445
1717858375234739500,11.738739501953125,0.004279433749616146,0.010240120813250542,-0.006012884899973869
1717858375244779500,11.748779541015624,0.0038991342298686504,0.010292585007846355,-0.007239803206175566
1717858375254820600,11.758820556640625,0.0049675945192575455,0.009789779782295227,-0.005103681702166796
1717858375264861700,11.76886181640625,0.004292749334126711,0.007773234508931637,-0.006472013890743256
1717858375274901500,11.778901611328125,0.004476507660001516,0.00914556160569191,-0.005517803598195314
1717858375284942600,11.788942626953125,0.004776911810040474,0.010246512480080128,-0.0052027516067028046
1717858375294983700,11.798983642578126,0.00315930787473917,0.010250773280858994,-0.0067540425807237625
1717858375305023700,11.809023681640625,0.004830707795917988,0.009489375166594982,-0.005547630600631237
1717858375315064600,11.819064697265626,0.0033803503029048443,0.010175672359764576,-0.006235259119421244
1717858375325105700,11.829105712890625,0.004235225263983011,0.011012171395123005,-0.006478405557572842
1717858375335145700,11.839145751953126,0.0049825082533061504,0.009152485989034176,-0.005902097560465336
1717858375345186800,11.849186767578125,0.0035577169619500637,0.008864864706993103,-0.005607285536825657
1717858375355227600,11.8592275390625,0.00538384635001421,0.010018279775977135,-0.00680118054151535
1717858375365267500,11.869267333984375,0.0036722328513860703,0.009217998944222927,-0.006088785361498594
1717858375375308500,11.87930859375,0.0041614556685090065,0.009689911268651485,-0.0076155755668878555
1717858375385349600,11.889349609375,0.003576891729608178,0.008384696207940578,-0.005855492316186428
1717858375395389400,11.899389404296874,0.003948935307562351,0.00984277669340372,-0.005877862684428692
1717858375405430500,11.909430419921875,0.0046852994710206985,0.009634251706302166,-0.005575327668339014
1717858375415471600,11.9194716796875,0.00350418733432889,0.007920507341623306,-0.0070946612395346165
1717858375425511700,11.92951171875,0.004507133737206459,0.008362325839698315,-0.00618279492482543
1717858375435552500,11.939552490234375,0.002865028567612171,0.009158078581094742,-0.0065343319438397884
1717858375445593600,11.949593505859376,0.0034016557037830353,0.00854635052382946,-0.005948436446487904
1717858375455633700,11.959633544921875,0.0033657029271125793,0.009401757270097733,-0.006931675598025322
