time,seconds_elapsed,z,y,x
1717858363605148700,0.109148681640625,-0.0007232057396322489,-0.00021450500935316086,0.0008906694129109383
1717858363615188500,0.1191884765625,-0.0007625536527484655,-0.00015413109213113785,0.0002701804041862488
1717858363625229600,0.1292294921875,-0.0003372468054294586,-0.0006231144070625305,0.0009229211136698723
1717858363635269600,0.13926953125,-0.0007624879945069551,-0.0011594919487833977,0.0012045102193951607
1717858363645310700,0.149310791015625,-0.0005923118442296982,-0.0009898487478494644,-0.00043013831600546837
1717858363655351600,0.1593515625,0.000391160836443305,-0.00036096852272748947,0.0010539563372731209
1717858363665391600,0.1693916015625,-0.00007036491297185421,-0.0013796277344226837,-0.000026221852749586105
1717858363675432700,0.1794326171875,-0.0007887161336839199,0.0006958926096558571,-0.0005212118849158287
1717858363685473800,0.189473876953125,0.0011271617840975523,0.0008487580344080925,0.0011198283173143864
1717858363695513600,0.199513671875,0.0019017725717276335,-0.0000245608389377594,0.0009332294575870037
1717858363705554700,0.2095546875,-0.00009080464951694012,-0.0004735700786113739,-0.0005916967056691647
1717858363715594500,0.219594482421875,0.0004910619463771582,0.0013137860223650932,-0.00030304258689284325
1717858363725635600,0.229635498046875,-0.0009417186956852674,-0.0007802583277225494,-0.0006087734363973141
1717858363735676400,0.239676513671875,-0.00027579464949667454,0.0006587458774447441,-0.0006168736144900322
1717858363745716200,0.24971630859375,0.001414779806509614,-0.000568704679608345,-0.00009915512055158615
1717858363755757300,0.25975732421875,0.0006528191734105349,-0.0005663363263010979,-0.0007635033689439297
1717858363765798400,0.26979833984375,-0.0007634498178958893,-0.0004289178177714348,-0.0013744328171014786
1717858363775838200,0.279838134765625,-0.0003084160853177309,-0.001003834418952465,-0.00107484869658947
1717858363785879000,0.289879150390625,0.0003280795644968748,-0.0005747992545366287,0.0007155947387218475
1717858363795919000,0.299919189453125,0.0007254539523273706,-0.0008474774658679962,0.0004311995580792427
1717858363805960200,0.309960205078125,-0.00031797238625586033,-0.0003484012559056282,0.0007595671340823174
1717858363816001300,0.320001220703125,0.0013678108807653189,-0.0004974091425538063,0.00043184636160731316
1717858363826041300,0.330041259765625,-0.0004977332428097725,0.0008658627048134804,0.001537590753287077
1717858363836082200,0.340082275390625,-0.0006305212154984474,-0.0006834277883172035,0.0007039564661681652
1717858363846123300,0.350123291015625,0.0001694925595074892,-0.0004338901489973068,0.00042352546006441116
1717858363856163300,0.360163330078125,0.0010607487056404352,-0.0009701205417513847,-0.000299911480396986
1717858363866204200,0.3702041015625,-0.0005925418809056282,-0.00118184182792902,0.0002486999146640301
1717858363876245200,0.380245361328125,-0.00037143565714359283,-0.00020347442477941513,-0.0007021026685833931
1717858363886285300,0.390285400390625,-0.0004015294834971428,-0.0009864438325166702,0.0007929960265755653
1717858363896326400,0.400326416015625,0.0015981432516127825,-0.0005785971879959106,-0.0006205672398209572
1717858363906366500,0.410366455078125,0.0003328754100948572,-0.00003185030072927475,-0.0003356090746819973
1717858363916407300,0.4204072265625,0.0004271471407264471,-0.0006692726165056229,0.0007547261193394661
1717858363926448400,0.430448486328125,-0.000614681513980031,-0.0010690130293369293,0.00011476827785372734
1717858363936488200,0.44048828125,-0.0005849355366080999,0.0002515949308872223,0.0001285015605390072
1717858363946529000,0.450529052734375,0.00013944413512945175,-0.00036998651921749115,-0.0007705818861722946
1717858363956570000,0.460570068359375,-0.00040122680366039276,-0.0000770939514040947,0.0008528209291398525
1717858363966610200,0.470610107421875,-0.0006049585063010454,-0.0001961374655365944,0.00016199704259634018
1717858363976651300,0.4806513671875,0.0005612720269709826,0.0003557661548256874,0.0005912408232688904
1717858363986692000,0.490692138671875,-0.000870443182066083,-0.0005449149757623672,0.0001475578173995018
1717858363996732200,0.500732177734375,0.0009988280944526196,-0.0006834641098976135,0.0006038611754775047
1717858364006773200,0.510773193359375,-0.0014510138425976038,0.000444117933511734,-0.00011785561218857765
1717858364016813300,0.520813232421875,-0.0003737695515155792,-0.0007869228720664978,0.0011460022069513798
1717858364026854400,0.5308544921875,0.00004461314529180527,-0.0004170099273324013,0.0005931300111114979
1717858364036895200,0.540895263671875,-0.0005829196888953447,0.0009309519082307816,0.0011946936137974262
1717858364046935300,0.550935302734375,-0.00033125095069408417,-0.0021079806610941887,-0.00021331990137696266
1717858364056976400,0.560976318359375,0.00014115311205387115,0.0009810235351324081,0.0011407132260501385
1717858364067017200,0.571017333984375,-0.000047664856538176537,-0.0003409702330827713,-0.0011586598120629787
1717858364077057000,0.58105712890625,-0.001747027738019824,0.0012441109865903854,-0.0003498643636703491
1717858364087098000,0.59109814453125,-0.000946215121075511,-0.0007362151518464088,0.0002642609179019928
1717858364097139200,0.60113916015625,0.0005119708366692066,-0.00022462010383605957,-0.0002760831266641617
1717858364107179300,0.61117919921875,0.0011596516706049442,-0.0010035950690507889,-0.0006420016288757324
1717858364117220000,0.62122021484375,-0.0021062511950731277,-0.0013967771083116531,0.000415680930018425
1717858364127260200,0.63126025390625,0.00020084530115127563,-0.0002995552495121956,-0.0007036458700895309
1717858364137301200,0.64130126953125,-0.00007842644117772579,-0.0009031491354107857,0.0002208612859249115
1717858364147342000,0.651342041015625,-0.0009961517062038183,0.0004183109849691391,0.0015156902372837067
1717858364157382100,0.661382080078125,0.0000010016374289989471,-0.0002117464318871498,0.0016920478083193302
1717858364167423200,0.67142333984375,-0.00024267775006592274,-0.0007284004241228104,-0.0012749796733260155
1717858364177464300,0.68146435546875,-0.0013007970992475748,0.00018559768795967102,-0.0002447795122861862
1717858364187504400,0.69150439453125,0.00016687111929059029,0.00006602145731449127,-0.000036786776036024094
1717858364197545200,0.701545166015625,-0.00027188193053007126,-0.0003919443115592003,-0.0007975120097398758
1717858364207586300,0.71158642578125,0.00128500210121274,0.0003468170762062073,-0.00019457237794995308
1717858364217626400,0.72162646484375,0.00024155573919415474,-0.000822039321064949,-0.00009447569027543068
1717858364227667500,0.73166748046875,-0.0011605985928326845,-0.00027635786682367325,-0.00030193617567420006
1717858364237708300,0.741708251953125,-0.00022950069978833199,-0.0011409139260649681,-0.00011497316882014275
1717858364247748000,0.751748046875,-0.0012649379204958677,0.0009651137515902519,0.000539898406714201
1717858364257789200,0.7617890625,-0.0014633859973400831,-0.0009465273469686508,0.0009712004102766514
1717858364267829200,0.771829345703125,0.000522267073392868,-0.002559337764978409,-0.0007750340737402439
1717858364277870000,0.7818701171875,-0.001737232320010662,-0.000864122062921524,-0.00032287510111927986
1717858364287911200,0.7919111328125,0.00008596759289503098,0.00018196739256381989,-0.0008885301649570465
1717858364297951200,0.801951171875,0.000045493245124816895,0.000662652775645256,-0.00040787458419799805
1717858364307992300,0.811992431640625,0.00039756298065185547,-0.001123262569308281,0.0013487464748322964
1717858364318033200,0.822033203125,0.00001879618503153324,-0.001204025000333786,0.0017259996384382248
1717858364328073200,0.8320732421875,-0.00027761352248489857,-0.00023436825722455978,0.00021146005019545555
1717858364338114300,0.8421142578125,0.00005346653051674366,-0.0017207162454724312,-0.0009432826191186905
1717858364348155100,0.852155029296875,-0.0006546678487211466,0.0005389759317040443,0.0004599369131028652
1717858364358195200,0.8621953125,-0.00024743727408349514,-0.0002510007470846176,0.0015523922629654408
1717858364368236300,0.872236328125,0.0007126324344426394,-0.00039507728070020676,0.0012360084801912308
1717858364378277400,0.88227734375,-0.0004352524410933256,-0.00014606770128011703,0.00002276850864291191
1717858364388317400,0.8923173828125,0.00014877901412546635,-0.00006750412285327911,0.0000440734438598156
1717858364398358300,0.902358154296875,-0.0009491830132901669,-0.00028940942138433456,-0.00001002289354801178
1717858364408398000,0.912398193359375,-0.0003118885215371847,-0.0004494655877351761,0.0012595062144100666
1717858364418439200,0.922439208984375,-0.00028515723533928394,0.000535706989467144,0.0008809776045382023
1717858364428480300,0.932480224609375,0.00016198772937059402,0.000006270594894886017,0.0008879019878804684
1717858364438520300,0.942520263671875,-0.00033331126905977726,0.000700848177075386,0.001783830113708973
1717858364448561200,0.95256103515625,0.000344729283824563,0.000013752840459346771,0.0008397395722568035
1717858364458602200,0.962602294921875,-0.00017025857232511044,-0.0009655971080064774,0.00018480932340025902
1717858364468642300,0.972642333984375,0.0007882132194936275,-0.0008574724197387695,-0.0006876420229673386
1717858364478683100,0.98268310546875,-0.00017814664170145988,0.00014736223965883255,0.0008653821423649788
1717858364488724200,0.99272412109375,0.0016264112200587988,-0.00011868774890899658,0.0006840205751359463
1717858364498764300,1.002764404296875,-0.0011456615757197142,0.0006697690114378929,0.0015257922932505608
1717858364508805400,1.012805419921875,0.00014756969176232815,-0.001840527169406414,-0.000109122134745121
1717858364518846200,1.02284619140625,0.0008054969366639853,-0.00003306195139884949,0.0012176884338259697
1717858364528886300,1.03288623046875,0.00038098893128335476,-0.0006823409348726273,-0.00010217400267720222
1717858364538927400,1.04292724609375,-0.0003768377937376499,-0.00017990916967391968,0.0018817009404301643
1717858364548967200,1.05296728515625,-0.0005954832304269075,-0.0014670146629214287,-0.000031247735023498535
1717858364559008000,1.063008056640625,-0.0005617379210889339,-0.001925232820212841,0.0010754168033599854
1717858364569049000,1.073049072265625,0.00046677468344569206,-0.000031725503504276276,0.0016032555140554905
1717858364579089200,1.083089111328125,-0.00017167674377560616,-0.0002593044191598892,0.0014173728413879871
1717858364589130200,1.093130126953125,0.000453367130830884,0.0009795976802706718,0.0008967248722910881
1717858364599171000,1.103171142578125,0.0002496824599802494,0.00029834918677806854,0.00005146302282810211
1717858364609211100,1.113211181640625,0.0007122736424207687,-0.0013629309833049774,-0.0011815805919468403
1717858364619252200,1.123252197265625,0.0006332318298518658,-0.001096983440220356,0.001947509590536356
1717858364629293300,1.133293212890625,-0.0016392436809837818,0.00030623655766248703,0.0015405784361064434
1717858364639333400,1.14333349609375,0.00022445106878876686,-0.0008436329662799835,-0.0005105775780975819
1717858364649374200,1.153374267578125,-0.001450144685804844,-0.00005027744919061661,0.0003413679078221321
1717858364659415300,1.163415283203125,-0.000596518162637949,0.0004761768504977226,0.0005622757598757744
1717858364669455400,1.173455322265625,0.0010751481167972088,-0.0002492684870958328,-0.0005589150823652744
1717858364679496200,1.18349609375,0.0017775348387658596,-0.0005327947437763214,0.00040854141116142273
1717858364689536300,1.193536376953125,0.0014265300706028938,-0.0011346694082021713,0.00020241271704435349
1717858364699577300,1.203577392578125,-0.0006591314449906349,0.0003344770520925522,0.0004649651236832142
1717858364709618400,1.213618408203125,0.0006767099257558584,0.000819438137114048,-0.0009395861998200417
1717858364719658200,1.223658203125,0.00018787500448524952,-0.0004289383068680763,0.0006376351229846478
1717858364729699000,1.233698974609375,0.0006390146445482969,-0.000044111162424087524,-0.00002016546204686165
1717858364739740200,1.243740234375,-0.00043811392970383167,-0.0009303241968154907,0.0002965056337416172
1717858364749779700,1.25377978515625,-0.002167836995795369,-0.00002564862370491028,-0.0004009762778878212
1717858364759820800,1.26382080078125,0.000266422051936388,-0.0004889760166406631,0.0008604587055742741
1717858364769861600,1.273861572265625,-0.0012542430777102709,0.00005617272108793259,0.0007296972908079624
1717858364779901700,1.283901611328125,-0.0010689131449908018,-0.0004967786371707916,-0.0003725942224264145
1717858364789942800,1.29394287109375,0.00027012405917048454,0.0005812682211399078,0.00020131701603531837
1717858364799983600,1.303983642578125,0.0005600701551884413,-0.0007278658449649811,0.0005199005827307701
1717858364810023700,1.314023681640625,-0.0012274435721337795,-0.00025009457021951675,-0.00043990276753902435
1717858364820064800,1.324064697265625,-0.0010262171272188425,-0.001087515614926815,0.0002180389128625393
1717858364830104800,1.334104736328125,0.00009550643153488636,0.0003058500587940216,0.0002292245626449585
1717858364840146000,1.34414599609375,-0.0012271897867321968,0.0008547008037567139,-0.001236125361174345
1717858364850186800,1.354186767578125,-0.0011880414094775915,-0.0005490509793162346,0.00010797195136547089
1717858364860226600,1.3642265625,-0.00020356196910142899,-0.0010100770741701126,0.0003259158693253994
1717858364870267600,1.374267578125,0.00019964040257036686,0.00013801176100969315,0.001184252556413412
1717858364880308700,1.384308837890625,0.000502272741869092,-0.0003910139203071594,-0.000449134036898613
1717858364890348800,1.394348876953125,-0.0009712539613246918,-0.00029940158128738403,-0.00036231521517038345
1717858364900389600,1.4043896484375,0.00019118445925414562,-0.00010153558105230331,0.00006681680679321289
1717858364910430700,1.4144306640625,0.00002234010025858879,0.0007530730217695236,0.0010519200004637241
1717858364920470800,1.424470703125,-0.0008318538311868906,-0.00021017063409090042,0.0006214240565896034
1717858364930511600,1.43451171875,-0.0010504992678761482,-0.0007739616557955742,-0.0009282692335546017
1717858364940552700,1.444552734375,0.0011656167916953564,0.0011550597846508026,0.001448619645088911
1717858364950592800,1.4545927734375,0.0005610794760286808,-0.0005099484696984291,0.0007077283225953579
1717858364960633900,1.4646337890625,-0.0002096730750054121,0.0005226917564868927,0.000725326593965292
1717858364970674000,1.474673828125,-0.0012022331357002258,0.00014052819460630417,0.0008592833764851093
1717858364980714800,1.48471484375,-0.000010588672012090683,0.0005234591662883759,0.0006322949193418026
1717858364990755800,1.494755859375,-0.0011677322909235954,0.00013117585331201553,-0.00015440257266163826
1717858365000796000,1.5047958984375,0.0005416425410658121,0.0005196705460548401,-0.0002459469251334667
1717858365010836700,1.514836669921875,0.00006680120714008808,-0.0010183053091168404,-0.001800167839974165
1717858365020877800,1.5248779296875,0.00040903128683567047,-0.0002197418361902237,-0.0006830976344645023
1717858365030917600,1.534917724609375,-0.00002293335273861885,-0.0012852726504206657,-0.00030759209766983986
1717858365040958700,1.544958740234375,0.00015443423762917519,-0.00019928161054849625,0.0002476666122674942
1717858365050999600,1.55499951171875,0.0007041106000542641,-0.0018325983546674252,0.0006567281670868397
1717858365061039600,1.56503955078125,-0.0015353723429143429,-0.001644075382500887,-0.0005880249664187431
1717858365071080700,1.575080810546875,-0.0010938202030956745,0.0006201444193720818,-0.0013097417540848255
1717858365081120800,1.585120849609375,0.00037609413266181946,-0.0010484661906957626,-0.00017435429617762566
1717858365091161600,1.59516162109375,-0.0007466948591172695,0.00010095350444316864,-0.0007027252577245235
1717858365101202700,1.60520263671875,0.0012984490022063255,0.000016743317246437073,-0.000018938444554805756
1717858365111242800,1.61524267578125,0.0008659516461193562,-0.00029031839221715927,0.0001222090795636177
1717858365121283800,1.625283935546875,-0.0004421996418386698,0.00021999049931764603,0.00025951676070690155
1717858365131324700,1.63532470703125,0.000897902762517333,0.0003906991332769394,0.0007511363364756107
1717858365141364700,1.64536474609375,0.0008279681205749512,0.00022158212959766388,-0.0004018135368824005
1717858365151405800,1.65540576171875,0.00046204961836338043,0.000022377818822860718,0.0004575885832309723
1717858365161447000,1.665447021484375,0.0024614552967250347,0.0003998931497335434,-0.0010208450257778168
1717858365171486700,1.67548681640625,0.000031853560358285904,-0.0004235561937093735,-0.0005992664955556393
1717858365181527600,1.685527587890625,-0.0007061823271214962,0.00025766249746084213,-0.00003964407369494438
1717858365191568600,1.695568603515625,-0.0010052553843706846,0.001825464889407158,-0.0008479133248329163
1717858365201608700,1.705608642578125,0.00036095036193728447,-0.0012195222079753876,0.0006360323168337345
1717858365211649500,1.7156494140625,-0.001839619828388095,-0.0005430793389678001,-0.0004231068305671215
1717858365221690600,1.725690673828125,0.0001728106290102005,0.0000658007338643074,-0.00032724905759096146
1717858365231730700,1.735730712890625,-0.0024855565279722214,0.000008543021976947784,-0.0012460392899811268
1717858365241771800,1.745771728515625,0.0008831697050482035,0.0000016605481505393982,0.001032346859574318
1717858365251811800,1.755811767578125,-0.0007392279803752899,0.0012490851804614067,0.001767112873494625
1717858365261852700,1.765852783203125,-0.0014639990404248238,0.0005620308220386505,-0.0014249896630644798
1717858365271893800,1.775893798828125,0.00016159447841346264,-0.0015501221641898155,0.00011644791811704636
1717858365281933800,1.785933837890625,0.0005380003713071346,-0.0002745604142546654,-0.0001077624037861824
1717858365291974700,1.795974609375,0.0005779475905001163,-0.0013158563524484634,-0.00019591301679611206
1717858365302015700,1.806015625,0.00044638756662607193,-0.002291372511535883,-0.0012124418281018734
1717858365312055800,1.816055908203125,-0.00023531797342002392,-0.00010290462523698807,-0.0006288099102675915
1717858365322097000,1.826096923828125,-0.00016437051817774773,0.00007794983685016632,-0.001469228882342577
1717858365332137700,1.8361376953125,-0.0008224374614655972,0.0006918087601661682,-0.00011687586084008217
1717858365342177500,1.846177490234375,0.0007233826909214258,-0.0008624279871582985,0.0002126069739460945
1717858365352218600,1.856218505859375,0.00020619691349565983,0.0009442605078220367,0.0004749284125864506
1717858365362259700,1.866259765625,0.0009886946063488722,-0.0006587719544768333,-0.0014413618482649326
1717858365372299800,1.8762998046875,0.00045659509487450123,0.0008206143975257874,-0.0004818248562514782
1717858365382340600,1.886340576171875,0.0003788128960877657,-0.00013962481170892715,-0.0005659204907715321
1717858365392380700,1.896380615234375,0.0008978631813079119,0.0007077930495142937,-0.0007723155431449413
1717858365402421800,1.906421875,-0.0007434259168803692,0.001260378398001194,0.000692327506840229
1717858365412462600,1.916462646484375,0.000697610666975379,0.00030590128153562546,0.00012960145249962807
1717858365422502700,1.926502685546875,-0.0003726123832166195,0.00026198383420705795,-0.00047482363879680634
1717858365432543700,1.936543701171875,-0.00145119265653193,-0.000513262115418911,0.0005970988422632217
1717858365442584800,1.946584716796875,0.0009600934572517872,-0.001925008837133646,0.00003539351746439934
1717858365452625000,1.956625,0.00014916108921170235,-0.0015305946581065655,-0.0009763413108885288
1717858365462665700,1.966665771484375,-0.0008839813526719809,0.0008800514042377472,-0.001390091609209776
1717858365472706800,1.976706787109375,-0.00008077197708189487,-0.0015977537259459496,0.001863226294517517
1717858365482747000,1.986746826171875,-0.00009229429997503757,-0.0004863431677222252,0.00086189154535532
1717858365492787700,1.99678759765625,-0.00044383155182003975,0.0002833101898431778,0.00007439497858285904
1717858365502828800,2.006828857421875,-0.0003093648701906204,-0.0006873039528727531,-0.0005728574469685555
1717858365512868600,2.01686865234375,0.0010954528115689754,0.00020272471010684967,0.001169116236269474
1717858365522909700,2.02690966796875,-0.001252222340553999,-0.0008237529546022415,0.00010289298370480537
1717858365532950500,2.036950439453125,-0.00005859369412064552,-0.00018299650400877,-0.0010896706953644753
1717858365542990600,2.046990478515625,0.0003276984207332134,-0.000573684461414814,-0.0005328347906470299
1717858365553031700,2.05703173828125,0.0013136006891727448,0.0008540358394384384,0.0010861009359359741
1717858365563071700,2.06707177734375,0.0016405889764428139,0.0015135938301682472,0.0011576837860047817
1717858365573112800,2.07711279296875,-0.0007205696310847998,0.000025952234864234924,0.0010255910456180573
1717858365583153700,2.087153564453125,0.0005061151459813118,-0.0015197442844510078,0.00020137475803494453
1717858365593193700,2.09719384765625,0.0009556571021676064,-0.0009511597454547882,-0.0010361960157752037
1717858365603234800,2.10723486328125,0.0005481974221765995,-0.0008979151025414467,0.001051250845193863
1717858365613275600,2.117275634765625,-0.0011594214010983706,-0.0003698104992508888,-0.0004169498570263386
1717858365623315700,2.127315673828125,0.0008728373795747757,-0.0006459150463342667,0.0007422454655170441
1717858365633356800,2.137356689453125,-0.00034981989301741123,-0.00029650796204805374,-0.0006439299322664738
1717858365643398000,2.14739794921875,0.0003507891669869423,0.002057459205389023,0.00023742811754345894
1717858365653437700,2.157437744140625,-0.00011126906611025333,0.002078765071928501,-0.0002936059609055519
1717858365663478500,2.167478515625,0.0008721908088773489,-0.000845758244395256,0.0001238565891981125
1717858365673519600,2.17751953125,0.0008271837141364813,-0.0007999520748853683,0.0007941741496324539
1717858365683559700,2.1875595703125,0.0009088905062526464,-0.0014319466426968575,-0.0015335665084421635
1717858365693600800,2.197600830078125,-0.0001867339015007019,-0.0008969176560640335,-0.0012201122008264065
1717858365703640600,2.207640625,-0.0009873013477772474,0.00029275473207235336,-0.000012219883501529694
1717858365713681700,2.217681640625,-0.00045387027785182,0.0002402905374765396,-0.0009661638177931309
1717858365723722800,2.22772265625,0.00005340320058166981,-0.0005167853087186813,-0.0007858653552830219
1717858365733762800,2.2377626953125,-0.00046298373490571976,-0.00014341063797473907,-0.0005525723099708557
1717858365743803600,2.2478037109375,-0.0005000075325369835,-0.0001230323687195778,-0.0004995795898139477
1717858365753844700,2.2578447265625,-0.00033302721567451954,0.00038749538362026215,0.00002240017056465149
1717858365763884800,2.267884765625,-0.001264479011297226,0.00030624307692050934,-0.0004480388015508652
1717858365773926000,2.27792578125,-0.0004567422438412905,-0.0004458334296941757,-0.00041528185829520226
1717858365783966700,2.287966796875,0.00017384858801960945,-0.0005227904766798019,-0.00036752456799149513
1717858365794006800,2.2980068359375,0.000565333291888237,-0.0008958997204899788,-0.0000881589949131012
1717858365804048000,2.3080478515625,-0.00004116143099963665,0.0004495689645409584,-0.00047365715727210045
1717858365814088700,2.318088623046875,0.0008422092068940401,0.0019252263009548187,-0.0000627315603196621
1717858365824128800,2.328128662109375,-0.000495103420689702,-0.000431024469435215,-0.0010039634071290493
1717858365834169900,2.338169921875,-0.0009281334932893515,0.00002437550574541092,0.00036703189834952354
1717858365844211000,2.3482109375,0.0009243378881365061,-0.0004626251757144928,0.0010602599941194057
1717858365854251000,2.3582509765625,0.0005413752514868975,0.0016695009544491768,-0.0013016974553465843
1717858365864291800,2.368291748046875,0.00007131905294954777,-0.0010843295603990555,0.0012846472673118114
1717858365874332000,2.378331787109375,0.0013704090379178524,0.0003010472282767296,-0.00026211701333522797
1717858365884373000,2.388373046875,-0.0008460984099656343,0.0007794871926307678,-0.000559530220925808
1717858365894413800,2.398413818359375,0.0009174467995762825,0.0011667106300592422,0.000732901506125927
1717858365904453600,2.40845361328125,-0.0006273835897445679,0.0002360474318265915,-0.00039740465581417084
1717858365914494700,2.41849462890625,-0.0007400352042168379,-0.001849474385380745,-0.0013303100131452084
1717858365924535800,2.428535888671875,0.000025602290406823158,0.0004844348877668381,-0.0012980345636606216
1717858365934575900,2.438575927734375,-0.0006159532349556684,-0.0008143885061144829,0.0005770968273282051
1717858365944616700,2.44861669921875,-0.00025177234783768654,0.0005851835012435913,-0.0005566482432186604
1717858365954657800,2.45865771484375,0.001919503090903163,0.001750050112605095,-0.0018964842893183231
1717858365964697900,2.46869775390625,0.0019875154830515385,-0.0001903744414448738,0.00019886763766407967
1717858365974739000,2.478739013671875,0.0000761647243052721,-0.0002806559205055237,-0.0005337679758667946
1717858365984779800,2.48877978515625,-0.00031669135205447674,-0.0010732272639870644,0.00118295568972826
1717858365994819800,2.49881982421875,-0.00010816589929163456,-0.00019837915897369385,0.001215179916471243
1717858366004861000,2.50886083984375,-0.000026868656277656555,0.0005347812548279762,-0.0008811736479401588
1717858366014901800,2.51890185546875,-0.0006425916217267513,0.00004316214472055435,-0.0009645307436585426
1717858366024941800,2.52894189453125,0.0002701471094042063,-0.00002093147486448288,-0.00004123896360397339
1717858366034983000,2.53898291015625,0.0005007770378142595,-0.0008925842121243477,-0.0010074339807033539
1717858366045023000,2.54902294921875,0.000670168548822403,-0.0011223219335079193,-0.0006261318922042847
1717858366055064000,2.55906396484375,0.00017801625654101372,-0.0007697194814682007,0.0011544576846063137
1717858366065105000,2.56910498046875,-0.000025406479835510254,-0.0008997740224003792,-0.0021512415260076523
1717858366075144700,2.579144775390625,-0.0003130277618765831,-0.0004190737381577492,0.0005337577313184738
1717858366085185800,2.589185791015625,-0.0011318717151880264,-0.0013682246208190918,0.0003582015633583069
1717858366095227000,2.599226806640625,-0.000036513665691018105,0.00041635986417531967,-0.0009305020794272423
1717858366105266700,2.6092666015625,0.00008786306716501713,-0.0003190375864505768,-0.001210773829370737
1717858366115307800,2.619307861328125,-0.0018407981842756271,0.0004197238013148308,-0.0005026389844715595
1717858366125348900,2.629348876953125,-0.0005178034771233797,0.00009691156446933746,0.0003074249252676964
1717858366135389000,2.639388916015625,0.002190364757552743,0.0002987785264849663,0.0004533659666776657
1717858366145429800,2.6494296875,-0.0005901651456952095,-0.00041783973574638367,-0.00040885666385293007
1717858366155470800,2.659470947265625,0.001415727660059929,0.00014009233564138412,-0.00024667009711265564
1717858366165511000,2.669510986328125,0.0011771870777010918,0.0004849284887313843,-0.001344671007245779
1717858366175552000,2.679552001953125,0.00007676915265619755,-0.0010562427341938019,-0.0011374768801033497
1717858366185592800,2.6895927734375,-0.0012551366817206144,-0.0008291164413094521,0.001749956514686346
1717858366195633000,2.6996328125,0.0004463568329811096,-0.0007931636646389961,-0.0004439558833837509
1717858366205674000,2.709674072265625,-0.0002309218980371952,-0.0004402715712785721,-0.0006213011220097542
1717858366215713800,2.7197138671875,-0.0011505114380270243,0.000546162948012352,0.0002349051646888256
1717858366225754600,2.729754638671875,0.00021453923545777798,-0.0012910114601254463,0.0005606063641607761
1717858366235795700,2.739795654296875,0.0001231927890330553,0.0007726717740297318,-0.000219699926674366
1717858366245835800,2.749835693359375,0.000042913248762488365,0.000978381372988224,-0.0009657423943281174
1717858366255876900,2.759876953125,0.0005901928525418043,-0.0007758429273962975,-0.0012765335850417614
1717858366265917700,2.769917724609375,-0.000409889267757535,-0.0006150892004370689,0.00017071934416890144
1717858366275957800,2.779957763671875,-0.00027060601860284805,-0.0008284086361527443,0.000006935093551874161
1717858366285998800,2.789998779296875,0.0010280683636665344,0.0002284431830048561,-0.0007472080178558826
1717858366296040000,2.8000400390625,0.0009127533994615078,0.0005640015006065369,-0.0007472080178558826
1717858366306079700,2.810079833984375,0.0007169127929955721,-0.0014600781723856926,-0.00005370704457163811
1717858366316120800,2.820120849609375,-0.00022558006457984447,-0.0010483535006642342,-0.00048567168414592743
1717858366326162000,2.830161865234375,0.0010551721788942814,-0.000007427297532558441,0.0009524542838335037
1717858366336202000,2.840201904296875,-0.0011472618207335472,-0.0003951834514737129,0.00011355848982930183
1717858366346242800,2.850242919921875,-0.0011657478753477335,-0.0005571246147155762,-0.0003553684800863266
1717858366356284000,2.860283935546875,-0.0007217989768832922,-0.00013128481805324554,0.0004883208312094212
1717858366366324000,2.870323974609375,0.0006846757605671883,0.0000814506784081459,0.00008251424878835678
1717858366376365000,2.880364990234375,0.00022208504378795624,-0.0006064437329769135,-0.0001249462366104126
1717858366386406000,2.890406005859375,-0.0005348280537873507,0.00029894616454839706,0.0005513238720595837
1717858366396445700,2.90044580078125,0.00016957824118435383,0.0004456862807273865,0.001261322759091854
1717858366406486800,2.91048681640625,-0.0003944491036236286,-0.0007755616679787636,-0.0003206338733434677
1717858366416528000,2.92052783203125,0.0003355233930051327,0.0006202002987265587,0.00024289079010486603
1717858366426567700,2.930567626953125,0.0009931784588843584,-0.000429653562605381,-0.000019001774489879608
1717858366436608800,2.94060888671875,-0.00008007558062672615,-0.00031114276498556137,0.0003865975886583328
1717858366446648800,2.95064892578125,0.0003234876785427332,-0.0001909276470541954,0.00009269453585147858
1717858366456690000,2.96068994140625,-0.00015215273015201092,0.0012509077787399292,0.0007371795363724232
1717858366466730800,2.970730712890625,0.00027595553547143936,0.00029046274721622467,0.0011008870787918568
1717858366476770800,2.980770751953125,0.0006157746538519859,0.00003905966877937317,-0.0001654457300901413
1717858366486812000,2.99081201171875,-0.00007350766099989414,0.0006570369005203247,-0.0005783890374004841
1717858366496853000,3.00085302734375,0.000023431377485394478,-0.0005432497709989548,-0.0010151471942663193
1717858366506892800,3.010892822265625,-0.00007306714542210102,0.0010080598294734955,0.0005973707884550095
1717858366516934000,3.020933837890625,0.0003945839125663042,-0.0002678604796528816,0.00030815135687589645
1717858366526975000,3.03097509765625,0.000581677071750164,-0.00008716993033885956,-0.00014084437862038612
1717858366537015000,3.04101513671875,-0.0012721491511911154,-0.001171874813735485,0.00011242227628827095
1717858366547055900,3.051055908203125,-0.00029177009128034115,-0.0006840825080871582,-0.0005887402221560478
1717858366557097000,3.061096923828125,0.00003579864278435707,-0.00022548623383045197,-0.0004763547331094742
1717858366567136800,3.07113671875,0.0005304443184286356,0.00008398480713367462,-0.0005951919592916965
1717858366577177900,3.081177734375,-0.0006141820922493935,-0.0012832814827561378,-0.0010295533575117588
1717858366587218700,3.09121875,-0.00008294708095490932,-0.0005222782492637634,-0.0015056370757520199
1717858366597258800,3.1012587890625,0.0006693957839161158,0.0008569732308387756,-0.0003218618221580982
1717858366607299800,3.1112998046875,0.0005908098537474871,0.0005819201469421387,0.0013008620589971542
1717858366617341000,3.1213408203125,0.0016395628917962313,0.0005824528634548187,0.0008294824510812759
1717858366627380700,3.131380615234375,0.0011601336300373077,0.0008892184123396873,0.0010871673002839088
1717858366637421800,3.141421875,-0.00010406877845525742,-0.0015869885683059692,-0.001020990777760744
1717858366647462000,3.1514619140625,0.001985250972211361,-0.0006339093670248985,0.0002328525297343731
1717858366657503000,3.1615029296875,0.0010054740123450756,-0.0003292439505457878,0.00022299867123365402
1717858366667543800,3.171543701171875,0.001395749393850565,-0.0009143492206931114,0.000057452358305454254
1717858366677584000,3.181583984375,0.0012170514091849327,-0.0005553551018238068,-0.0003502778708934784
1717858366687625000,3.191625,0.0002049559261649847,-0.00007420312613248825,0.0011224779300391674
1717858366697666000,3.201666015625,0.000688852509483695,-0.00014238059520721436,0.0005794595927000046
1717858366707705900,3.211705810546875,0.0007721763104200363,0.000005424953997135162,-0.001632066909223795
1717858366717747000,3.221746826171875,-0.001513082068413496,-0.0008033765479922295,-0.0004283185116946697
1717858366727788000,3.2317880859375,-0.000511671882122755,-0.000552876852452755,0.0009168232791125774
1717858366737827800,3.241827880859375,-0.0003116684965789318,-0.0006841709837317467,-0.000049637630581855774
1717858366747869000,3.251868896484375,-0.0005651866085827351,-0.0008113253861665726,0.00043193716555833817
1717858366757910000,3.261909912109375,0.0001868903636932373,-0.00033648405224084854,0.0005368655547499657
1717858366767950000,3.2719501953125,-0.00027334270998835564,-0.0017867493443191051,0.0013509527780115604
1717858366777991200,3.2819912109375,-0.0001463100779801607,-0.00004371069371700287,0.0008721165359020233
1717858366788032000,3.292031982421875,0.002046761568635702,-0.00033618509769439697,-0.000058908481150865555
1717858366798071800,3.30207177734375,0.0011151880025863647,-0.0005748048424720764,0.0007283221930265427
1717858366808113200,3.312113037109375,-0.00046560936607420444,-0.0012229299172759056,0.001255934126675129
1717858366818154000,3.322154052734375,0.0015874214004725218,-0.0006189253181219101,0.0002761571668088436
1717858366828193800,3.33219384765625,0.0009986909572035074,-0.00006115436553955078,-0.0007741297595202923
1717858366838235000,3.34223486328125,0.0007696591783314943,0.0006075659766793251,0.001835768111050129
1717858366848276000,3.35227587890625,-0.0007611061446368694,-0.0005053495988249779,-0.0018137264996767044
1717858366858316000,3.36231591796875,-0.0001957169733941555,-0.00024782121181488037,-0.0001428592950105667
1717858366868356900,3.37235693359375,-0.0008349625859409571,-0.00013807788491249084,0.00007630977779626846
1717858366878397000,3.38239697265625,-0.0011870323214679956,-0.0002323538064956665,0.000212131068110466
1717858366888438000,3.39243798828125,-0.00037303660064935684,-0.0003993706777691841,0.00034112296998500824
1717858366898479000,3.40247900390625,-0.000039875274524092674,-0.0005088271573185921,0.0009267521090805531
1717858366908519000,3.412518798828125,-0.0006062095053493977,-0.0007046200335025787,0.00022883340716362
1717858366918560000,3.42256005859375,0.0007836944423615932,-0.0015903878957033157,-0.0018012942746281624
1717858366928601000,3.43260107421875,0.00015129824168980122,0.001155160367488861,0.001069619320333004
1717858366938641200,3.44264111328125,-0.0004937194753438234,-0.0006131790578365326,-0.00007500732317566872
1717858366948682000,3.452681884765625,0.0020874831825494766,-0.0008253781124949455,0.0007262649014592171
1717858366958723000,3.46272314453125,-0.0010571773163974285,-0.0010429583489894867,0.0006748661398887634
1717858366968763000,3.472762939453125,0.0021079666912555695,-0.0014150319620966911,0.0006635687313973904
1717858366978804000,3.482803955078125,-0.0007096575573086739,-0.00042460206896066666,0.002075310330837965
1717858366988844800,3.4928447265625,-0.0005413137841969728,0.00014463067054748535,-0.0012053181417286396
1717858366998884900,3.502884765625,0.0008326107636094093,-0.0013169124722480774,0.0012732860632240772
1717858367008926000,3.512926025390625,0.0012398252729326487,0.001336405985057354,0.00043299514800310135
1717858367018967000,3.522967041015625,-0.0007487570401281118,0.0003497051075100899,0.0014609755016863346
1717858367029006800,3.5330068359375,0.0006347952876240015,0.0015267673879861832,0.0017215418629348278
1717858367039048000,3.5430478515625,-0.001071491977199912,0.00019438844174146652,-0.0007043317891657352
1717858367049089000,3.553089111328125,0.0005061097908765078,-0.0000032298266887664795,0.0005370369181036949
1717858367059129000,3.563129150390625,-0.0011905902065336704,0.00020289886742830276,0.00041240081191062927
1717858367069170000,3.573169921875,-0.00029139360412955284,-0.001886430662125349,0.0003359103575348854
1717858367079211000,3.5832109375,-0.0004911306314170361,-0.00044459570199251175,-0.00020657572895288467
1717858367089251000,3.5932509765625,0.00006509292870759964,-0.0001527499407529831,-0.00016777217388153076
1717858367099292200,3.603292236328125,-0.00011653476394712925,0.00015351362526416779,-0.0006540650501847267
1717858367109333000,3.6133330078125,0.0010972353629767895,0.001119174063205719,-0.00042595621198415756
1717858367119373000,3.623373046875,0.00035980576649308205,0.0010089194402098656,0.00012931320816278458
1717858367129414100,3.6334140625,-0.00045652175322175026,0.0005168681964278221,0.001290157437324524
1717858367139454000,3.643453857421875,0.0003325727302581072,0.00038903672248125076,0.0010944153182208538
1717858367149494800,3.653494873046875,0.00022353138774633408,-0.00019529461860656738,0.00028487248346209526
1717858367159535900,3.663535888671875,-0.001348000019788742,0.0008814213797450066,0.00025344686582684517
1717858367169576000,3.673575927734375,0.00015394273214042187,-0.00013314653187990189,0.0012578177265822887
1717858367179617000,3.683616943359375,-0.00031557236798107624,0.0002934923395514488,0.00001784972846508026
1717858367189657900,3.693657958984375,0.0008227643556892872,-0.00040907319635152817,0.0006000320427119732
1717858367199698000,3.703697998046875,0.00016256654635071754,-0.001237582415342331,0.0018373364582657814
1717858367209739000,3.713739013671875,0.0003879982978105545,-0.00008878298103809357,-0.0015279250219464302
1717858367219780000,3.723780029296875,-0.0005134819075465202,0.0002550315111875534,0.0009163240902125835
1717858367229820000,3.73381982421875,0.0005036841612309217,-0.001492655836045742,-0.0003326497972011566
1717858367239861000,3.743861083984375,-0.0009080574382096529,-0.0008130166679620743,0.000010365620255470276
1717858367249902000,3.753902099609375,-0.001027541933581233,0.0004057129845023155,-0.0011328011751174927
1717858367259942100,3.763942138671875,-0.0004214064683765173,-0.000037969090044498444,0.0001894584856927395
1717858367269983000,3.77398291015625,0.0016802509780973196,0.001073325052857399,0.0006338697858154774
1717858367280024000,3.784024169921875,0.0009116625878959894,0.00019821058958768845,-0.001858848612755537
1717858367290064100,3.794064208984375,-0.0005466758739203215,0.000383167527616024,0.0006574001163244247
1717858367300105200,3.804105224609375,0.0016232680063694715,-0.0017548180185258389,-0.00043183285742998123
1717858367310146000,3.81414599609375,0.00021235761232674122,-0.0010095424950122833,-0.0002574813552200794
1717858367320185900,3.824185791015625,0.000024338485673069954,-0.0011741258203983307,0.0002487855963408947
1717858367330227000,3.83422705078125,-0.0016821809113025665,0.0005422523245215416,0.002302217995747924
1717858367340267800,3.844267822265625,0.0009466253686696291,-0.0002681482583284378,0.0004451959393918514
1717858367350307800,3.854307861328125,0.0014219782315194607,0.00005917530506849289,0.0027203215286135674
1717858367360349000,3.864348876953125,0.0007681720890104771,-0.0004252539947628975,0.0009181606583297253
1717858367370390000,3.87439013671875,-0.0007723597809672356,0.0002825828269124031,0.0008377488702535629
1717858367380430000,3.88443017578125,-0.0008842125535011292,-0.0004242202267050743,0.00015997420996427536
1717858367390471000,3.894470947265625,0.0005985705647617579,-0.0003438824787735939,0.000497093889862299
1717858367400512000,3.904511962890625,0.00010854913853108883,-0.0004890244454145432,-0.0017418256029486656
1717858367410552000,3.914552001953125,0.00010705320164561272,0.0009268615394830704,-0.000776147935539484
1717858367420593000,3.924593017578125,-0.0011733947321772575,-0.00023720599710941315,0.000060084741562604904
1717858367430634000,3.934634033203125,-0.0004794748965650797,-0.0007610069587826729,0.0006855176761746407
1717858367440674000,3.944674072265625,-0.001348997000604868,0.001531708985567093,-0.001930772326886654
1717858367450715100,3.954715087890625,-0.001138161402195692,-0.00037291180342435837,-0.0006565027870237827
1717858367460755000,3.9647548828125,0.0004512129817157984,-0.0012898379936814308,0.0005267392843961716
1717858367470795800,3.974795654296875,0.0009269341826438904,0.00025964807718992233,-0.0005058078095316887
1717858367480836900,3.9848369140625,0.0003487616777420044,-0.0002476843073964119,-0.0010461634956300259
1717858367490877000,3.994876953125,-0.00014271168038249016,0.00033814646303653717,0.0007889177650213242
1717858367500918000,4.00491796875,0.0008517126552760601,0.00028887856751680374,0.0005787946283817291
1717858367510958800,4.014958740234375,0.0008194055408239365,-0.001101289875805378,0.002040974795818329
1717858367520999000,4.0249990234375,0.0025214320048689842,-0.0002424204722046852,-0.0005782442167401314
1717858367531040000,4.0350400390625,-0.00020314822904765606,-0.0012813899666070938,0.0006186715327203274
1717858367541080800,4.045080810546875,0.000670901034027338,-0.0009924368932843208,-0.00003167241811752319
1717858367551121000,4.055120849609375,-0.0006116626318544149,0.0006416738033294678,0.0004962165839970112
1717858367561162000,4.065161865234375,-4.670582711696625e-7,-0.0006688674911856651,-0.0005884887650609016
1717858367571203000,4.075203125,0.0014845365658402443,-0.0008927555754780769,0.00047922879457473755
1717858367581243100,4.0852431640625,0.0006094221025705338,0.0004649236798286438,-0.000404940452426672
1717858367591284000,4.095283935546875,-0.0008039386011660099,-0.0006714854389429092,0.0002221427857875824
1717858367601325000,4.105324951171875,0.00004188111051917076,0.0011599697172641754,0.0000612875446677208
1717858367611365000,4.115365234375,0.0011048447340726852,-0.0012415917590260506,-0.0013947905972599983
1717858367621406000,4.125406005859375,0.00016821129247546196,-0.0003204047679901123,0.001742679625749588
1717858367631447000,4.135447021484375,0.0005441531538963318,-0.0009579556062817574,0.00010116398334503174
1717858367641486800,4.14548681640625,-0.0003112542908638716,0.00010943878442049026,0.00020928867161273956
1717858367651528000,4.15552783203125,0.0007896390743553638,-0.00008659344166517258,0.00048202089965343475
1717858367661568800,4.16556884765625,0.0006420998834073544,-0.00023892614990472794,-0.00035820621997117996
1717858367671608800,4.17560888671875,0.00016116350889205933,-0.00033919699490070343,0.0013878922909498215
1717858367681650000,4.18564990234375,0.000480476301163435,-0.000721360556781292,0.001307731494307518
1717858367691691000,4.19569091796875,-0.000994314206764102,-0.0022765304893255234,0.0018053618259727955
1717858367701731000,4.20573095703125,-0.0011122922878712416,-0.0008498746901750565,-0.0003350209444761276
1717858367711772000,4.21577197265625,0.001066291704773903,-0.0006291819736361504,-0.00007476331666111946
1717858367721813000,4.22581298828125,-0.0005726178642362356,-0.00008057150989770889,-0.0011347015388309956
1717858367731853000,4.23585302734375,0.0005083647556602955,0.0001733824610710144,0.0003660731017589569
1717858367741894000,4.245893798828125,0.00034591183066368103,0.00013849511742591858,0.0007833903655409813
1717858367751935000,4.25593505859375,-0.0013156782370060682,-0.00008168444037437439,0.0009343279525637627
1717858367761974800,4.265974853515625,-0.0006248543504625559,-0.0008236411958932877,-0.00037541473284363747
1717858367772015900,4.276015869140625,-0.0003487041685730219,0.0002392185851931572,0.0001559155061841011
1717858367782056700,4.286056640625,-0.0008371279109269381,-0.0002302965149283409,0.0010608579032123089
1717858367792096800,4.2960966796875,0.000024828128516674042,-0.00002831965684890747,-0.0001171845942735672
1717858367802137900,4.306137939453125,-0.0005538766272366047,-0.000766548328101635,-0.0001049339771270752
1717858367812178000,4.316177978515625,-0.0002507849130779505,-0.0016735116951167583,0.0006071603856980801
1717858367822219000,4.326218994140625,0.0006187371909618378,0.0005070846527814865,-0.0011377427726984024
1717858367832259800,4.336259765625,-0.0009423494338989258,0.00028136931359767914,-0.0000021345913410186768
1717858367842300000,4.3462998046875,-0.0005822901148349047,-0.00009466893970966339,0.0013073417358100414
1717858367852341000,4.356341064453125,-0.002163739874958992,0.0005773045122623444,0.00038596848025918007
1717858367862381800,4.3663818359375,-0.00004253210499882698,0.0010952893644571304,0.0007521533407270908
1717858367872422000,4.376421875,-0.00023694289848208427,0.0019496316090226173,0.0005540139973163605
1717858367882463000,4.386462890625,0.0011976859532296658,0.0005016783252358437,0.00014027906581759453
1717858367892504000,4.396504150390625,0.0018455241806805134,0.0005421778187155724,-0.00024930620566010475
1717858367902544000,4.4065439453125,0.0006724018603563309,-0.0001252107322216034,0.0010447241365909576
1717858367912584700,4.416584716796875,0.0004949239082634449,-0.00022132135927677155,-0.0016400441527366638
1717858367922625800,4.426625732421875,-0.0009493082761764526,0.0011038677766919136,0.0001645139418542385
1717858367932665900,4.436665771484375,-0.0004410119727253914,-0.0005926154553890228,0.0019353292882442474
1717858367942707000,4.44670703125,-0.0010543379466980696,-0.0004456089809536934,8.093193173408508e-7
1717858367952747800,4.456747802734375,-0.0009584086947143078,-0.00047010648995637894,-0.0012321234680712223
1717858367962787800,4.466787841796875,-0.000087022315710783,-0.0009462796151638031,0.0002720300108194351
1717858367972829000,4.476828857421875,0.00043832138180732727,0.00047099683433771133,-0.00007211975753307343
1717858367982869800,4.486869873046875,0.0007634935900568962,-0.000012898817658424377,-0.0007384424097836018
1717858367992909800,4.496909912109375,0.0011684023775160313,-0.0015464229509234428,0.0001568053849041462
1717858368002951000,4.506950927734375,0.0006655976176261902,0.0001899581402540207,-0.000605657696723938
1717858368012992000,4.516991943359375,0.0008493498899042606,0.0003372766077518463,0.001051172148436308
1717858368023032000,4.527031982421875,0.0005721151828765869,-0.00011945609003305435,0.0010349270887672901
1717858368033073000,4.537072998046875,-0.0006008960772305727,-0.0012575183063745499,0.00043053552508354187
1717858368043114000,4.547114013671875,-0.00026373984292149544,0.000883396714925766,-0.0014099753461778164
1717858368053154000,4.557154052734375,0.0010956432670354843,0.0013234000653028488,-0.0002548624761402607
1717858368063195000,4.56719482421875,0.0006532920524477959,-0.0005727708339691162,0.00007030973210930824
1717858368073236000,4.577236083984375,0.00036274176090955734,0.00033440999686717987,0.00010671978816390038
1717858368083275800,4.58727587890625,0.00012252433225512505,0.00015571247786283493,0.00042336946353316307
1717858368093316900,4.59731689453125,0.0007376931607723236,0.0005967356264591217,0.0007490743882954121
1717858368103357700,4.607357666015625,0.00006417976692318916,-0.0005987575277686119,0.0012060729786753654
1717858368113397800,4.617397705078125,0.00015746988356113434,-0.00001921970397233963,0.0016339668072760105
1717858368123438800,4.62743896484375,0.0001561385579407215,0.000022059306502342224,0.0010621864348649979
1717858368133480000,4.63747998046875,0.0013080965727567673,-0.0004619089886546135,-0.0009311223402619362
1717858368143520000,4.64752001953125,0.00012032687664031982,-0.00005844049155712128,-0.00035028671845793724
1717858368153560800,4.657560791015625,0.000575740821659565,-0.00004327110946178436,-0.00037304265424609184
1717858368163602000,4.667601806640625,-0.0000511673279106617,-0.0018334477208554745,0.0019231345504522324
1717858368173642000,4.67764208984375,0.0007431330159306526,-0.00047197379171848297,-0.000018518883734941483
1717858368183682800,4.687682861328125,0.0014275657013058662,-0.0002506645396351814,0.0008483398705720901
1717858368193723000,4.697722900390625,0.0009784242138266563,-0.0008012643083930016,-0.00011110957711935043
1717858368203764000,4.707763916015625,-0.0000452948734164238,0.0001462884247303009,-0.0007105870172381401
1717858368213805000,4.71780517578125,0.0002464526332914829,0.0012355893850326538,-0.0009103403426706791
1717858368223845000,4.72784521484375,0.0008208965882658958,0.001668618991971016,-0.0011726617813110352
1717858368233886000,4.737885986328125,-0.0014847430866211653,0.0005106125026941299,-0.0014923755079507828
1717858368243927000,4.747927001953125,0.0005760109052062035,-0.0010334886610507965,-0.0013062204234302044
1717858368253966800,4.757966796875,0.0008379803039133549,-0.000001953914761543274,-0.0014939084649085999
1717858368264007700,4.768007568359375,0.0012252037413418293,-0.00023391470313072205,0.00014446862041950226
1717858368274048800,4.778048828125,-0.0003561598714441061,-0.00013261381536722183,-0.0009998129680752754
1717858368284088800,4.7880888671875,0.0006257477216422558,-0.0009312955662608147,0.0009208586998283863
1717858368294130000,4.7981298828125,-0.00033936486579477787,-0.0010005943477153778,-0.0002959687262773514
1717858368304170800,4.808170654296875,0.0009583937935531139,-0.0012032603845000267,0.0013637132942676544
1717858368314210800,4.8182109375,-0.0008242339827120304,-0.00010996498167514801,-0.0005028275772929192
1717858368324252000,4.828251953125,0.0008418397046625614,0.0004104161635041237,-0.0003544893115758896
1717858368334293000,4.83829296875,0.0015056440606713295,-0.0009431792423129082,0.001887415535748005
1717858368344333000,4.8483330078125,-0.0005151624791324139,0.0009399419650435448,0.0011017830111086369
1717858368354374000,4.858373779296875,0.0001317276619374752,0.0002212459221482277,-0.0004507852718234062
1717858368364415000,4.8684150390625,-0.0004427162930369377,-0.00014547165483236313,0.000545769464224577
1717858368374455000,4.878455078125,0.00023873336613178253,0.0009398087859153748,-0.0015843873843550682
1717858368384495900,4.888495849609375,0.0013567283749580383,-0.0011284016072750092,0.000023363158106803894
1717858368394537000,4.898536865234375,0.000015279743820428848,0.00014100782573223114,0.0003522592596709728
1717858368404576800,4.90857666015625,-0.00044198473915457726,-0.0004222514107823372,-0.000513534527271986
1717858368414618000,4.9186181640625,-0.0008246167562901974,0.001155490055680275,0.0002611861564218998
1717858368424659000,4.928658935546875,0.0005399868823587894,-0.0013177869841456413,0.0005197790451347828
1717858368434698800,4.93869873046875,0.0000026971101760864258,-0.00018079672008752823,-0.002498563379049301
1717858368444739800,4.94873974609375,-0.00010010111145675182,0.00009510666131973267,-0.0006820210255682468
1717858368454781000,4.958781005859375,0.0019268295727670193,0.0014619827270507812,0.000893937423825264
1717858368464820700,4.96882080078125,0.000005891546607017517,-0.00015588756650686264,0.0004257536493241787
1717858368474861800,4.97886181640625,-0.00015754136256873608,0.0007677655667066574,-0.0016878079622983932
1717858368484903000,4.98890283203125,-0.001239849952980876,-0.0011728797107934952,-0.0010457197204232216
1717858368494943000,4.99894287109375,0.0006450093351304531,0.00016448460519313812,0.0010999520309269428
1717858368504983800,5.00898388671875,0.00005911383777856827,-0.001184673048555851,-0.0002292315475642681
1717858368515025000,5.01902490234375,0.0001440807245671749,-0.0010765502229332924,0.00020133238285779953
1717858368525065000,5.02906494140625,0.00006445217877626419,0.0006680870428681374,-0.0010373038239777088
1717858368535106000,5.03910595703125,0.0003625759854912758,0.0008198395371437073,0.0007710671052336693
1717858368545147000,5.04914697265625,0.00018680747598409653,0.0014363611117005348,0.00019955262541770935
1717858368555187000,5.05918701171875,0.0005732038989663124,-0.0011689728125929832,-0.0006854599341750145
1717858368565228000,5.06922802734375,0.0003825216554105282,0.0004616808146238327,-0.0006140870973467827
1717858368575268900,5.079268798828125,-0.0016969921998679638,-0.0009128889068961143,-0.0009533129632472992
1717858368585308700,5.08930859375,-0.0004916454199701548,-0.0005304589867591858,0.00006161769852042198
1717858368595349800,5.099349853515625,0.0012692599557340145,-0.0003543626517057419,-0.000594098586589098
1717858368605390800,5.109390869140625,0.00018695136532187462,-0.0020574540831148624,-0.0001035439781844616
1717858368615431000,5.119430908203125,-0.00019113905727863312,-0.0006747851148247719,-0.0012609879486262798
1717858368625471700,5.1294716796875,0.000033365096896886826,-0.0012462995946407318,0.0002881726250052452
1717858368635512800,5.139512939453125,0.0009942068718373775,0.0012707309797406197,-0.0000968053936958313
1717858368645553000,5.149552978515625,-0.001268148422241211,-0.0006126565858721733,0.001117063220590353
1717858368655594000,5.159593994140625,-0.0005001542158424854,0.000016148202121257782,-0.00012281863018870354
1717858368665634800,5.169634765625,0.0010623224079608917,-0.0011708224192261696,-0.0008836835622787476
1717858368675675000,5.1796748046875,-0.0010128121357411146,-0.0009934278205037117,-0.0003437558189034462
1717858368685716000,5.189716064453125,0.0000844104215502739,0.000007920898497104645,-0.0010268567129969597
1717858368695756000,5.199756103515625,0.00047900527715682983,-0.0008495887741446495,-0.00013119028881192207
1717858368705796900,5.209796875,0.000008957460522651672,0.0006971750408411026,0.0005473834462463856
1717858368715838000,5.219837890625,0.0005141636356711388,-0.0001364992931485176,-0.0006777127273380756
1717858368725878000,5.2298779296875,-0.00040063238702714443,0.0008400818333029747,-0.0007024803198873997
1717858368735919000,5.239919189453125,0.0009430884383618832,-0.0005213450640439987,0.0010411455295979977
1717858368745960000,5.2499599609375,0.001013928558677435,0.0003750752657651901,-0.0002486235462129116
1717858368756000300,5.260000244140625,0.0003540324978530407,-0.00020727235823869705,-0.0011295592412352562
1717858368766041300,5.270041259765625,0.0004959790967404842,0.001345616765320301,-0.0005678986199200153
1717858368776082400,5.28008251953125,0.00045942794531583786,0.0007662046700716019,0.0006472701206803322
1717858368786122200,5.290122314453125,0.0006256089545786381,-0.000766444019973278,-0.00017005391418933868
1717858368796163300,5.300163330078125,-0.0015551322139799595,-0.0010011214762926102,-0.0003576502203941345
1717858368806204400,5.310204345703125,0.0006973692215979099,-0.0013225646689534187,-0.0000407341867685318
1717858368816244500,5.320244384765625,-0.0006463655736297369,-0.0014010677114129066,0.0008192588575184345
1717858368826285300,5.330285400390625,-0.0008860500529408455,-0.0007296847179532051,-0.0007940838113427162
1717858368836326400,5.340326416015625,-0.0003335871733725071,0.00031867530196905136,-0.0000014938414096832275
1717858368846366500,5.350366455078125,0.0006054434925317764,-0.0011908039450645447,0.0009910664521157742
1717858368856407300,5.3604072265625,0.0009783999994397163,-0.0015742052346467972,-0.0010054870508611202
1717858368866448400,5.370448486328125,-0.0000032410025596618652,-0.0001315716654062271,-0.0003972211852669716
1717858368876488400,5.380488525390625,0.0023737759329378605,-0.0024226652458310127,0.00023074261844158173
1717858368886529500,5.390529541015625,-0.0008462523110210896,-0.0005240980535745621,-0.0010590259917080402
1717858368896570400,5.4005703125,0.0006559630855917931,-0.001748948823660612,-0.00003913836553692818
1717858368906610400,5.4106103515625,0.0002583530731499195,0.00022365432232618332,-0.00008041737601161003
1717858368916651500,5.420651611328125,-0.000984163023531437,-0.0014262739568948746,0.0002376600168645382
1717858368926692600,5.430692626953125,-0.00043448666110634804,-0.0005684690549969673,0.0011508581228554249
1717858368936732400,5.440732421875,-0.0013429590035229921,-0.0010654749348759651,0.001433574128895998
1717858368946773200,5.450773193359375,-0.00035599153488874435,0.000548134557902813,0.0023470381274819374
1717858368956814300,5.460814453125,0.0005812104791402817,-0.0006945747882127762,0.0003859447315335274
1717858368966854400,5.4708544921875,0.0011141090653836727,0.0006335433572530746,0.0011526686139404774
1717858368976895200,5.480895263671875,0.0003875093534588814,-0.0013525793328881264,0.0003894129768013954
1717858368986936300,5.490936279296875,-0.00045910943299531937,-0.0009059673175215721,0.00014972873032093048
1717858368996976400,5.500976318359375,-0.00037754024378955364,-0.00002637971192598343,0.0003210543654859066
1717858369007017500,5.511017578125,0.00041395099833607674,-0.0005307821556925774,0.00010533817112445831
1717858369017058300,5.521058349609375,-0.0016596957575529814,-0.00032082945108413696,-0.0005400562658905983
1717858369027098400,5.531098388671875,0.00023194728419184685,-0.00025877729058265686,-0.00016508344560861588
1717858369037139500,5.541139404296875,0.0005526095628738403,-0.0007723821327090263,-0.00035211723297834396
1717858369047180300,5.55118017578125,0.0003717811778187752,-0.00085467379540205,-0.0002791467122733593
1717858369057220400,5.561220458984375,0.00040447479113936424,-0.0017049210146069527,0.0004067998379468918
1717858369067261400,5.571261474609375,0.000956015195697546,-0.0011395318433642387,-0.0003668484278023243
1717858369077302500,5.581302490234375,-0.0009453997481614351,-0.001247413456439972,-0.0006306851282715797
1717858369087342600,5.591342529296875,0.00004742667078971863,-0.0003797551617026329,0.00029902439564466476
1717858369097383400,5.601383544921875,-0.00009931670501828194,0.0006461217999458313,-0.00006300723180174828
1717858369107424500,5.611424560546875,0.00021813204512000084,-0.0008140895515680313,-0.0003668740391731262
1717858369117464300,5.62146435546875,-0.00008985772728919983,-0.0013443492352962494,0.000019220635294914246
1717858369127505400,5.63150537109375,0.00038951123133301735,-0.0010583261027932167,-0.00027505867183208466
1717858369137546200,5.641546142578125,-0.0008646892383694649,0.0008454862982034683,-0.0009147888049483299
1717858369147586300,5.65158642578125,-0.00019011041149497032,-0.0003428161144256592,0.0013478328473865986
1717858369157627400,5.66162744140625,0.0005362187512218952,-0.000036872923374176025,0.0011929948814213276
1717858369167668200,5.671668212890625,0.0006049280054867268,-0.0011468781158328056,0.00006834231317043304
1717858369177708300,5.681708251953125,0.002305408474057913,-0.0003572637215256691,-0.0015196176245808601
1717858369187749400,5.691749267578125,-0.00036867172457277775,0.0010970886796712875,0.0012287646532058716
1717858369197790500,5.70179052734375,0.0006792903877794743,0.0007796976715326309,0.0010901344940066338
1717858369207830500,5.71183056640625,-0.00008477037772536278,-0.00015267450362443924,-0.0007306686602532864
1717858369217871400,5.721871337890625,0.0006636376492679119,0.00022433418780565262,-0.00014080805703997612
1717858369227912400,5.731912353515625,-0.0009654178284108639,-0.00021109264343976974,0.00023123575374484062
1717858369237952500,5.741952392578125,-0.00039151497185230255,-0.0012197839096188545,0.0004450562410056591
1717858369247993300,5.751993408203125,-0.001058903057128191,-0.000937487930059433,0.0009201639331877232
1717858369258034400,5.762034423828125,-0.00036914763040840626,-0.00004375632852315903,-0.0011558844707906246
1717858369268074500,5.772074462890625,0.000037783291190862656,-0.0004062121734023094,-0.0004155258648097515
1717858369278115600,5.782115478515625,-0.0004288007039576769,0.001218179240822792,0.0009846985340118408
1717858369288156400,5.792156494140625,-0.0007403905037790537,-0.00034296605736017227,0.00004540150985121727
1717858369298196200,5.8021962890625,-0.0003219032660126686,-0.000284513458609581,-0.00030194688588380814
1717858369308237300,5.8122373046875,0.0015977034345269203,0.0008486611768603325,0.0007105870172381401
1717858369318278400,5.8222783203125,-0.00202944315969944,0.00016931816935539246,0.0006750915199518204
1717858369328318500,5.832318359375,-0.0005346108227968216,0.0006353715434670448,-0.0001331781968474388
1717858369338359300,5.842359375,0.00025606341660022736,-0.0002474803477525711,0.0005277465097606182
1717858369348399400,5.8523994140625,-0.00028269411996006966,-0.0020871921442449093,0.0005221539177000523
1717858369358440400,5.8624404296875,-0.0002589891664683819,-0.0023730434477329254,-0.0005573974922299385
1717858369368481300,5.872481201171875,0.00016312208026647568,-0.0010316092520952225,0.0009672623127698898
1717858369378521300,5.882521240234375,0.000667261891067028,0.00027741212397813797,0.0000026226043701171875
1717858369388562400,5.8925625,0.00046672578901052475,-0.0005447054281830788,0.0018026530742645264
1717858369398603500,5.902603515625,0.0006957682780921459,-0.0010968483984470367,0.0006123320199549198
1717858369408643600,5.9126435546875,0.001030527986586094,-0.0007218746468424797,-0.000496874563395977
1717858369418684400,5.922684326171875,0.00026227161288261414,0.00041880644857883453,0.00006492296233773232
1717858369428725500,5.9327255859375,-0.0006631768774241209,-0.000787605531513691,0.0006939619779586792
1717858369438765300,5.942765380859375,0.0009447033517062664,-0.0002997489646077156,-0.00025667715817689896
1717858369448806400,5.952806396484375,0.0015958459116518497,-0.0010371776297688484,-0.00016426527872681618
1717858369458847200,5.96284716796875,-0.0005666643846780062,0.0008100317791104317,-0.0006579682230949402
1717858369468887300,5.97288720703125,-0.0007690645288676023,-0.00130425114184618,0.000613158568739891
1717858369478928400,5.982928466796875,-0.00025489390827715397,-0.0010145260021090508,-0.0004747984930872917
1717858369488969200,5.99296923828125,0.0006921263411641121,-0.0012297090142965317,-0.0002209995873272419
1717858369499009300,6.00300927734375,0.0003875182010233402,0.0002136537805199623,-0.0016362029127776623
1717858369509050400,6.01305029296875,0.0008658217266201973,0.0004051355645060539,0.0003081709146499634
1717858369519091500,6.023091552734375,0.0005925996229052544,-0.00001529790461063385,0.0007281703874468803
1717858369529131500,6.033131591796875,-0.00001673167571425438,-0.0016520759090781212,0.0010272436775267124
1717858369539172400,6.04317236328125,0.0002345610409975052,-0.0004215296357870102,0.0016106516122817993
1717858369549213400,6.05321337890625,0.0012249904684722424,-0.0015557697042822838,0.0007115686312317848
1717858369559253500,6.06325341796875,0.0003997916355729103,0.0002598501741886139,0.0000030454248189926147
1717858369569294300,6.07329443359375,-0.000055076321586966515,0.00026144832372665405,0.0010262317955493927
1717858369579335400,6.08333544921875,-0.00025529717095196247,-0.0006050067022442818,-0.00026252446696162224
1717858369589375500,6.09337548828125,-0.0012875385582447052,-0.0007227184250950813,-0.000012720003724098206
1717858369599416600,6.10341650390625,0.000001980923116207123,-0.0013987086713314056,-0.0004576975479722023
1717858369609457400,6.11345751953125,-0.0006153399590402842,-0.00010094977915287018,-0.0013474593870341778
1717858369619497200,6.123497314453125,0.00018637720495462418,-0.0013145292177796364,0.0005943472497165203
1717858369629538300,6.133538330078125,-0.00045304768718779087,-0.00025033019483089447,-0.0013380427844822407
1717858369639579400,6.143579345703125,-0.000243418850004673,-0.001308436505496502,0.0000432492233812809
1717858369649619500,6.153619384765625,-0.0002745778765529394,-0.0005760667845606804,-0.0009024394676089287
1717858369659660300,6.163660400390625,-0.00022809579968452454,-0.0005236128345131874,0.00011606747284531593
1717858369669701400,6.173701416015625,-0.001315730856731534,-0.0009036455303430557,0.0020588436163961887
1717858369679741400,6.183741455078125,-0.0006073589902371168,-0.0008367029950022697,0.0003840327262878418
1717858369689782300,6.1937822265625,-0.0007881876081228256,-0.0003445511683821678,-0.0003307596780359745
1717858369699823400,6.2038232421875,0.0013086525723338127,-0.0017880727536976337,-0.000643956009298563
1717858369709863400,6.213863525390625,-0.002041338011622429,-0.0010229460895061493,-0.0007560751400887966
1717858369719904500,6.223904541015625,0.001056512352079153,-0.00023852568119764328,0.0002979123964905739
1717858369729945300,6.2339453125,0.0001515704207122326,-0.0012393416836857796,-0.0019228975288569927
1717858369739985400,6.2439853515625,0.001473553478717804,-0.0006463676691055298,-0.0013781357556581497
1717858369750026500,6.254026611328125,0.00045915553346276283,0.0001405961811542511,0.0008919425308704376
1717858369760067600,6.264067626953125,-0.00015312316827476025,0.0002026846632361412,0.0001246216706931591
1717858369770107400,6.274107421875,0.0006375694647431374,0.00029482971876859665,0.0008263648487627506
1717858369780148500,6.2841484375,-0.00006364239379763603,0.00035724882036447525,0.0001252777874469757
1717858369790189600,6.294189453125,-0.0007102577947080135,0.0005354145541787148,-0.0010523721575737
1717858369800229600,6.304229736328125,-0.0020026443526148796,-0.00026043783873319626,-0.0006636208854615688
1717858369810270500,6.3142705078125,-0.00039462768472731113,0.00035874731838703156,-0.00004763202741742134
1717858369820311600,6.3243115234375,0.0006200713105499744,-0.00003117229789495468,0.0002133278176188469
1717858369830351600,6.3343515625,-0.00021802540868520737,-0.0003523491322994232,0.0005068080499768257
1717858369840392700,6.344392822265625,0.0005022254772484303,0.00008101947605609894,0.0019539552740752697
1717858369850433500,6.35443359375,0.00030568428337574005,0.00043229013681411743,-0.0006663291715085506
1717858369860473300,6.364473388671875,-0.000651841051876545,0.0003476189449429512,0.0018605892546474934
1717858369870514400,6.374514404296875,0.0004043686203658581,-0.0003762282431125641,-0.0011495817452669144
1717858369880555300,6.38455517578125,-0.00017712311819195747,-0.0015365337021648884,-0.0001226845197379589
1717858369890595300,6.39459521484375,-0.0005036266520619392,-0.00035835150629282,0.0004874453879892826
1717858369900636400,6.404636474609375,-0.00039418204687535763,2.8870999813079834e-8,-0.000665406696498394
1717858369910677500,6.414677490234375,-0.0005875276401638985,0.0003670128062367439,0.00017641857266426086
1717858369920717600,6.424717529296875,-0.0015504916664212942,-0.0005260007455945015,-0.0006221486255526543
1717858369930758400,6.43475830078125,0.0021731401793658733,-0.0005973735824227333,-0.0009049763903021812
1717858369940798500,6.444798583984375,-0.0005332028958946466,0.0003320304676890373,-0.0007535633631050587
1717858369950839600,6.454839599609375,0.00018718233332037926,0.0012622727081179619,-0.0005924422293901443
1717858369960880600,6.464880615234375,0.0003382456488907337,-0.0013107741251587868,0.001016560010612011
1717858369970920400,6.47492041015625,0.000005616806447505951,0.0010415958240628242,0.002421377692371607
1717858369980961500,6.48496142578125,0.0010337438434362411,0.00039794761687517166,0.0015528630465269089
1717858369991002600,6.495002685546875,-0.0006227423436939716,0.0004663905128836632,0.00040317606180906296
1717858370001042400,6.50504248046875,0.0007005510851740837,-0.00019331462681293488,-0.001230490393936634
1717858370011083300,6.515083251953125,0.00041798967868089676,-0.0014252923429012299,0.001660637091845274
1717858370021124400,6.525124267578125,0.00014728959649801254,0.0016102064400911331,0.0006497511640191078
1717858370031164400,6.535164306640625,-0.0004186320584267378,-0.000552014447748661,-0.0007452121935784817
1717858370041205500,6.54520556640625,-0.0006642211228609085,-0.0012114541605114937,0.0007711984217166901
1717858370051246300,6.555246337890625,-0.0012754166964441538,-0.00034885574132204056,-0.0007111169397830963
1717858370061286400,6.565286376953125,-0.0013252191711217165,0.0006065778434276581,0.00038387812674045563
1717858370071327500,6.575327392578125,-0.000636259326711297,-0.001685071736574173,0.0009825564920902252
1717858370081368300,6.585368408203125,0.00007021939381957054,0.0008115833625197411,0.00013233302161097527
1717858370091408400,6.595408447265625,0.0014577265828847885,0.000022222287952899933,0.00020477129146456718
1717858370101449500,6.605449462890625,-0.0000012861564755439758,-0.00006833020597696304,0.0011031245812773705
1717858370111490600,6.615490478515625,-0.0007373841945081949,-0.0006510298699140549,0.000900723971426487
1717858370121530600,6.625530517578125,-0.00014845584519207478,-0.0001232549548149109,0.00047438405454158783
1717858370131571500,6.635571533203125,0.0006550201214849949,-0.0007525598630309105,0.00048370519652962685
1717858370141612500,6.645612548828125,-0.0007869284600019455,-0.001041053794324398,-0.00021250871941447258
1717858370151652600,6.655652587890625,-0.00006467918865382671,0.00010303966701030731,0.0009632767178118229
1717858370161693700,6.665693603515625,-0.00017396803013980389,0.00038721319288015366,0.0005540894344449043
1717858370171734500,6.675734619140625,-0.00017689750529825687,0.0001778881996870041,0.000010005664080381393
1717858370181774300,6.6857744140625,-0.0009205762762576342,0.00003524497151374817,0.0004885261878371239
1717858370191815400,6.6958154296875,-0.0012510744854807854,-0.00035570748150348663,0.0006549735553562641
1717858370201856300,6.705856201171875,-0.0008921767584979534,0.00026145949959754944,-0.0009125755168497562
1717858370211896300,6.715896240234375,-0.0007073534652590752,-0.0005723759531974792,-0.00041056983172893524
1717858370221937400,6.7259375,-0.0020208635833114386,-0.0014342721551656723,-0.0004066028632223606
1717858370231978500,6.735978515625,0.0007946304976940155,-0.00048698578029870987,0.00027543259784579277
1717858370242018600,6.7460185546875,0.0001797713339328766,-0.0004135565832257271,0.0008966033346951008
1717858370252059400,6.756059326171875,-0.0006242371164262295,0.00011481437832117081,-0.000233375933021307
1717858370262100500,6.7661005859375,0.0008510267361998558,-0.0005716681480407715,-0.0003459453582763672
1717858370272140500,6.776140625,-0.0015671232249587774,-0.0006654113531112671,0.0006040041334927082
1717858370282181400,6.786181396484375,0.00006341887637972832,-0.0000229664146900177,-0.00006320793181657791
1717858370292222500,6.796222412109375,-0.0010087697301059961,0.00010646320879459381,0.0000427858904004097
1717858370302262500,6.806262451171875,0.0007387432269752026,-0.0014140289276838303,-0.0006903982721269131
1717858370312303600,6.8163037109375,0.00033048028126358986,-0.00011387374252080917,0.00030562421306967735
1717858370322344400,6.826344482421875,-0.0009299218654632568,-0.0007292004302144051,0.000877926591783762
1717858370332384500,6.836384521484375,0.0001537185162305832,-0.0009768744930624962,0.000312271062284708
1717858370342425600,6.846425537109375,0.0014757513999938965,-0.0005479929968714714,-0.0009857588447630405
1717858370352466700,6.856466796875,-0.0005756814498454332,-0.00040684547275304794,-0.00035139359533786774
1717858370362506500,6.866506591796875,-0.0019131558947265148,0.00009950995445251465,0.0005498440004885197
1717858370372547300,6.87654736328125,0.0006088577210903168,-0.000627533532679081,0.0018585212528705597
1717858370382588400,6.88658837890625,-0.0004755663685500622,-0.00012324191629886627,0.000054963864386081696
1717858370392628500,6.89662841796875,-0.0005746360402554274,0.0010581370443105698,0.000778544694185257
1717858370402669300,6.90666943359375,0.000727715902030468,-0.0002588527277112007,0.000584024004638195
1717858370412710400,6.91671044921875,0.00014874432235956192,-0.0004378175362944603,-0.0003307717852294445
1717858370422750500,6.92675048828125,0.0006344467401504517,0.0005262019112706184,0.001175842247903347
1717858370432791600,6.93679150390625,-0.0012255050241947174,-0.0004525100812315941,0.0014783777296543121
1717858370442832400,6.946832275390625,0.0009785434231162071,0.0004077395424246788,0.0006688921712338924
1717858370452872400,6.95687255859375,-0.00016528437845408916,-0.0002255598083138466,0.0003804718144237995
1717858370462913500,6.96691357421875,0.000601199921220541,-0.0008340710774064064,0.000035779550671577454
1717858370472954600,6.97695458984375,-0.0006211909931153059,-0.0003930516541004181,0.00008424930274486542
1717858370482994400,6.986994384765625,0.0005785995163023472,-0.0007156217470765114,-0.0002258080057799816
1717858370493035500,6.997035400390625,0.00005608703941106796,0.0006260788068175316,0.0003478368744254112
1717858370503076600,7.00707666015625,-0.0006007414776831865,0.0010705823078751564,0.0002449518069624901
1717858370513116700,7.01711669921875,-0.0006257751956582069,-0.0002522096037864685,-0.0006440114229917526
1717858370523157500,7.027157470703125,0.0011664950288832188,-0.0007301848381757736,-0.00015168823301792145
1717858370533198600,7.037198486328125,-0.0018910802900791168,0.00045652035623788834,-0.00018045073375105858
1717858370543238400,7.04723828125,0.002244499046355486,-0.0005473988130688667,0.0009419349953532219
1717858370553279500,7.057279541015625,-0.0009523592889308929,-0.0002139713615179062,-0.0008895206265151501
1717858370563320300,7.0673203125,0.000988589134067297,-0.000319615937769413,0.0012942464090883732
1717858370573360400,7.0773603515625,-0.00025670486502349377,0.000023132190108299255,-0.0011308281682431698
1717858370583401500,7.0874013671875,-1.9371509552001953e-7,-0.0006707208231091499,0.00020926492288708687
1717858370593442600,7.097442626953125,-0.0007567976135760546,-0.0002070646733045578,0.0010207300074398518
1717858370603482400,7.107482421875,-0.00009706849232316017,-0.0006252611055970192,0.0003053378313779831
1717858370613523500,7.1175234375,-0.0005053309723734856,-0.0003514885902404785,0.0018254700116813183
1717858370623564500,7.127564453125,0.000036768149584531784,-0.0009023603051900864,-0.001293084118515253
1717858370633604600,7.1376044921875,0.0005350452847778797,-0.00036333687603473663,0.0016393223777413368
1717858370643645400,7.1476455078125,0.00012455647811293602,-0.0004577990621328354,-0.0005121366120874882
1717858370653685500,7.157685546875,-0.0008520248811691999,-0.0008074725046753883,0.00017123064026236534
1717858370663726600,7.1677265625,0.00006708363071084023,-0.0014473143965005875,0.000801874790340662
1717858370673767700,7.177767578125,-0.0006554317660629749,0.00045365002006292343,-0.0021225428208708763
1717858370683808500,7.18780859375,-0.002078816294670105,-0.00043159257620573044,0.0005992506630718708
1717858370693848300,7.197848388671875,-0.0008937094826251268,-0.00037966109812259674,0.0005028443410992622
1717858370703889400,7.207889404296875,0.001608891412615776,0.0006314190104603767,0.000038440804928541183
1717858370713929500,7.217929443359375,0.0004323069006204605,0.0019827065989375114,0.00010395469143986702
1717858370723970300,7.22797021484375,0.0006309929303824902,0.0009461371228098869,0.001754146534949541
1717858370734011400,7.238011474609375,-0.0009775562211871147,-0.0002200612798333168,-0.0016035670414566994
1717858370744051500,7.248051513671875,-0.0008709235116839409,-0.001058824360370636,-0.00029888423159718513
1717858370754092300,7.25809228515625,-0.0006876981351524591,-0.00031340494751930237,0.0006073894910514355
1717858370764133000,7.268133056640625,0.0012524728663265705,-0.0008334135636687279,0.00038402294740080833
1717858370774173200,7.278173095703125,0.000864450354129076,-0.00002834014594554901,0.0001810900866985321
1717858370784214300,7.28821435546875,-0.001034747576341033,0.0006101895123720169,0.0007251622155308723
1717858370794255400,7.29825537109375,-0.00045444490388035774,-0.0011893082410097122,0.0013994746841490269
1717858370804295400,7.30829541015625,0.0002793986350297928,-0.0005769087001681328,-0.0010169069282710552
1717858370814336300,7.318336181640625,-0.0005216801073402166,-0.001004612073302269,0.0008867206051945686
1717858370824377300,7.32837744140625,0.0002125455066561699,-0.000044372864067554474,-0.000051709823310375214
1717858370834417400,7.33841748046875,0.00036194920539855957,0.0004967814311385155,0.0003903750330209732
1717858370844458200,7.348458251953125,0.0014452454634010792,0.00033720117062330246,0.0012278100475668907
1717858370854499300,7.358499267578125,-0.0009569257963448763,-0.0017608371563255787,-0.0007051127031445503
1717858370864539400,7.368539306640625,-0.0003965371288359165,-0.0009345747530460358,0.0003752307966351509
1717858370874580500,7.37858056640625,-0.0006700437515974045,0.00009526964277029037,0.000382421538233757
1717858370884621300,7.388621337890625,0.0006643617525696754,-0.0002211686223745346,0.00025551812723279
1717858370894661000,7.3986611328125,0.001291003543883562,-0.00030425935983657837,0.0004310202784836292
1717858370904702200,7.4087021484375,-0.000983492936939001,-0.0011844374239444733,0.0005219313316047192
1717858370914743300,7.418743408203125,-0.00020611612126231194,0.0005948198959231377,0.0007211356423795223
1717858370924783000,7.428783203125,-0.0013092164881527424,-0.0006336094811558723,0.0000375150702893734
1717858370934824200,7.43882421875,0.0009451494552195072,-0.0013049924746155739,0.000056955963373184204
1717858370944865300,7.448865234375,-0.000030225375667214394,-0.00044734589755535126,-0.0003689173609018326
1717858370954905300,7.4589052734375,0.00045926356688141823,-0.0008947569876909256,0.0010987506248056889
1717858370964946200,7.4689462890625,-0.0003147916868329048,-0.00023980438709259033,0.0006391690112650394
1717858370974987300,7.4789873046875,-0.00031612347811460495,0.00006273016333580017,0.0001866980455815792
1717858370985027300,7.48902734375,0.001008815597742796,0.0002558566629886627,-0.0007605869323015213
1717858370995068400,7.499068359375,0.0014527644962072372,0.000046798959374427795,0.0004966915585100651
1717858371005109200,7.509109130859375,-0.0001361374743282795,-0.0009998828172683716,0.0002762093208730221
1717858371015149300,7.5191494140625,-0.0015380254480987787,-0.0006981464102864265,-0.0002673417329788208
1717858371025190400,7.5291904296875,0.0014610332436859608,0.0001986054703593254,0.0005401670932769775
1717858371035231200,7.539231201171875,-0.0005081081762909889,0.00012430362403392792,0.0011862502433359623
1717858371045271000,7.54927099609375,0.0005129429046064615,-0.0018522660247981548,0.0007006069645285606
1717858371055312100,7.55931201171875,-0.00012301979586482048,0.00037440285086631775,0.0018508262000977993
1717858371065353200,7.569353271484375,-0.000060197897255420685,0.0010672183707356453,0.00020362669602036476
1717858371075393300,7.579393310546875,0.00024153804406523705,-0.0007354747503995895,0.0009836666285991669
1717858371085434000,7.58943408203125,0.0005826412234455347,-0.0004636840894818306,0.00032953545451164246
1717858371095475200,7.59947509765625,0.0000846299808472395,0.0008039800450205803,-0.0010209535248577595
1717858371105515300,7.609515380859375,-0.00037464406341314316,0.0011604195460677147,-0.0007427353411912918
1717858371115556400,7.619556396484375,-0.00024068704806268215,0.000116727314889431,0.0026823559310287237
1717858371125597200,7.62959716796875,-0.0019967076368629932,-0.0008483827114105225,-0.00009107450023293495
1717858371135637200,7.63963720703125,-0.00017350749112665653,-0.0009607682004570961,0.0005534105002880096
1717858371145678300,7.64967822265625,-0.0003584746737033129,0.00013042427599430084,0.0003919042646884918
1717858371155719200,7.65971923828125,0.0003030544612556696,0.0007578656077384949,-0.00008293753489851952
1717858371165759200,7.66975927734375,-0.00024582352489233017,-0.00008843094110488892,0.000789047684520483
1717858371175800300,7.67980029296875,0.0006798913236707449,-0.0012338561937212944,-0.0009627793915569782
1717858371185841400,7.68984130859375,0.0013316422700881958,-0.0007489211857318878,0.0014313259162008762
1717858371195881500,7.699881591796875,0.00030685821548104286,0.0004263315349817276,0.0003018793649971485
1717858371205922300,7.70992236328125,0.0003190431743860245,-0.00040270015597343445,0.00032472237944602966
1717858371215963400,7.71996337890625,0.0010625976137816906,-0.0009752791374921799,0.0007428382523357868
1717858371226003200,7.730003173828125,-0.0007891100831329823,-0.0003841239959001541,-0.0013393266126513481
1717858371236044300,7.740044189453125,0.00024233246222138405,-0.0004285983741283417,0.00017627840861678123
1717858371246085000,7.750085205078125,-0.00019443570636212826,0.0005019279196858406,-0.0000613178126513958
1717858371256125200,7.760125244140625,-0.00277024507522583,0.00022149644792079926,0.0009565423242747784
1717858371266166300,7.770166259765625,-0.000332751777023077,0.0011872220784425735,0.00046619540080428123
1717858371276207000,7.78020703125,0.00007338030263781548,-0.0006357114762067795,0.0011868467554450035
1717858371286247200,7.7902470703125,-0.00034616165794432163,-0.0010142000392079353,-0.001013152301311493
1717858371296288300,7.800288330078125,0.0002402663230895996,-0.000399542972445488,-0.0010445774532854557
1717858371306329300,7.810329345703125,-0.0008733922149986029,0.000681580975651741,-0.0002209283411502838
1717858371316369400,7.820369384765625,0.0011367618571966887,0.0006227251142263412,0.0010033268481492996
1717858371326410200,7.83041015625,-0.0012248307466506958,-0.00006496254354715347,-0.00034862756729125977
1717858371336451300,7.840451416015625,-0.00093481270596385,-0.0008932054042816162,-0.0001382376067340374
1717858371346491400,7.850491455078125,0.000695306807756424,-0.0000554034486413002,0.00062191067263484
1717858371356532200,7.8605322265625,0.000048158224672079086,-0.0002833707258105278,-0.0003759758546948433
1717858371366573300,7.8705732421875,-0.00013180961832404137,0.0001933276653289795,0.0018872153013944626
1717858371376613400,7.88061328125,-0.0005246258806437254,0.00009665451943874359,0.00020915735512971878
1717858371386654500,7.890654541015625,-0.0008685593493282795,-0.00011902954429388046,0.000009432900696992874
1717858371396695300,7.9006953125,-0.00140571896918118,0.0015204120427370071,-0.00009789224714040756
1717858371406735000,7.910735107421875,-0.00011354358866810799,0.0005553439259529114,0.00012691179290413857
1717858371416776200,7.920776123046875,0.0004787435755133629,0.0006746528670191765,0.0003918963484466076
1717858371426817300,7.9308173828125,0.0020663293544203043,-0.0002672523260116577,-0.00019831117242574692
1717858371436857300,7.940857421875,0.0006604467052966356,-0.00019135233014822006,-0.00007314281538128853
1717858371446898200,7.950898193359375,0.0005874033086001873,-0.0003700796514749527,-0.00011107698082923889
1717858371456939300,7.960939208984375,0.0011317534372210503,-0.00008592009544372559,0.00001009693369269371
1717858371466979300,7.970979248046875,0.0008497810922563076,0.00012836605310440063,-0.00015830760821700096
1717858371477020200,7.981020263671875,-0.000029328512027859688,0.001321195624768734,0.0017586355097591877
1717858371487061200,7.991061279296875,0.0008852246683090925,-0.0002491781488060951,0.00008593592792749405
1717858371497101300,8.001101318359375,-0.0005302457138895988,0.0006509702652692795,-0.00011593149974942207
1717858371507142400,8.011142333984376,0.0006942970212548971,-0.0007399683818221092,0.0001407098025083542
1717858371517182500,8.021182373046875,-0.0008218404836952686,0.0007490050047636032,0.001268558669835329
1717858371527223300,8.031223388671876,0.00095540308393538,-0.0005888389423489571,-0.0008046398870646954
1717858371537264400,8.041264404296875,0.002350633265450597,-0.0009089512750506401,0.00024943938478827477
1717858371547304200,8.05130419921875,0.00156842777505517,-0.00041949283331632614,0.0010488443076610565
1717858371557345300,8.06134521484375,-0.0014760978519916534,0.00048545002937316895,0.0013234163634479046
1717858371567386400,8.071386474609374,-0.00016591185703873634,-0.0004858998581767082,0.0007083178497850895
1717858371577426200,8.08142626953125,0.001012270338833332,0.0001649763435125351,0.00011869380250573158
1717858371587467300,8.09146728515625,0.00012260791845619678,0.0015976456925272942,0.00025916192680597305
1717858371597508000,8.101508056640625,-0.0007570344023406506,0.00008257385343313217,0.000559832900762558
1717858371607548200,8.111548095703125,0.001891084248200059,-0.000943218357861042,-0.0006627822294831276
1717858371617589200,8.12158935546875,-0.0010112288873642683,-0.00006464123725891113,0.00007358146831393242
1717858371627630300,8.13163037109375,0.00016677030362188816,-0.0005351277068257332,0.0002940273843705654
1717858371637670400,8.14167041015625,-0.0002833041362464428,0.0002744728699326515,-0.00015737814828753471
1717858371647711200,8.151711181640625,-0.0012937525752931833,0.0007069464772939682,-0.00017282692715525627
1717858371657752300,8.16175244140625,0.000045018503442406654,-0.0008904179558157921,-0.00041410932317376137
1717858371667792400,8.17179248046875,-0.0020966429729014635,-0.0003366013988852501,0.0013119596987962723
1717858371677833200,8.181833251953124,-0.00005692802369594574,-0.0009307526051998138,0.0009732055477797985
1717858371687874300,8.191874267578125,-0.000732281943783164,0.0007019117474555969,-0.0005957232788205147
1717858371697914400,8.201914306640624,0.0004903753288090229,-0.0002666795626282692,0.0014575738459825516
1717858371707955500,8.21195556640625,0.002249977085739374,0.0007644565775990486,-0.0009488929063081741
1717858371717996300,8.221996337890625,-0.00017509725876152515,-0.00003342609852552414,0.0005850875750184059
1717858371728036000,8.2320361328125,0.000641870079562068,-0.00005766190588474274,0.0001880149357020855
1717858371738077200,8.2420771484375,-0.0003458964638411999,-0.0006017452105879784,0.0015717935748398304
1717858371748118300,8.2521181640625,0.00015613669529557228,-0.0013514040037989616,0.00008670613169670105
1717858371758158000,8.262157958984375,0.0005140653811395168,-0.0011047953739762306,0.0004923054948449135
1717858371768199200,8.27219921875,0.0006355608347803354,-0.0008299592882394791,0.0005891923792660236
1717858371778240300,8.282240234375,-0.00003129499964416027,-0.00018627289682626724,0.0003484426997601986
1717858371788280300,8.2922802734375,-0.0006641771178692579,-0.0005341256037354469,0.0012706685811281204
1717858371798321200,8.302321044921875,0.0007582174148410559,-0.0005200104787945747,0.001659756526350975
1717858371808362200,8.3123623046875,-0.0007068060804158449,0.00039790477603673935,0.00007859617471694946
1717858371818402300,8.32240234375,-0.0009733883198350668,-0.00023539457470178604,0.00155638437718153
1717858371828443400,8.332443359375,-0.001297591021284461,-0.0001955302432179451,0.001219379249960184
1717858371838484200,8.342484130859376,0.0000289292074739933,0.0011261971667408943,-0.0007929052226245403
1717858371848524300,8.352524169921875,-0.0000035658013075590134,-0.00023075565695762634,-0.00016697868704795837
1717858371858565400,8.3625654296875,-0.00021635228767991066,0.0008025513961911201,0.000006126705557107925
1717858371868606200,8.372606201171875,0.0018156867008656263,-0.0008736755698919296,-0.00014046067371964455
1717858371878646300,8.382646240234376,0.0004508167039602995,0.0003556394949555397,-0.000012895092368125916
1717858371888687400,8.392687255859375,0.002336521865800023,0.0014104004949331284,0.0014481008984148502
1717858371898728400,8.402728515625,-0.0006635291501879692,0.00006310734897851944,0.0010542194359004498
1717858371908768300,8.412768310546875,0.0010199884418398142,0.0010994328185915947,0.0005578771233558655
1717858371918809000,8.42280908203125,-0.00008176127448678017,-0.00022149458527565002,0.00010300939902663231
1717858371928850200,8.43285009765625,-0.00004592863842844963,0.0001650182530283928,0.000632979441434145
1717858371938890200,8.44289013671875,0.00034955074079334736,-0.0001700073480606079,0.0011429749429225922
1717858371948931300,8.452931396484376,-0.00016490393318235874,-0.00039780791848897934,-0.0002800137735903263
1717858371958972200,8.46297216796875,-0.0009228393901139498,-0.00013495422899723053,0.0016353316605091095
1717858371969012200,8.47301220703125,0.0008596135303378105,-0.0005056820809841156,0.0004583820700645447
1717858371979053300,8.48305322265625,0.00003936002030968666,0.000048255547881126404,-0.00010061543434858322
1717858371989094100,8.49309423828125,-0.0000930391252040863,-0.0005336441099643707,-0.0014599324204027653
1717858371999134200,8.50313427734375,0.0004071025177836418,-0.0007272558286786079,0.0005379710346460342
1717858372009175300,8.51317529296875,0.00000288989394903183,-0.0007874341681599617,-0.0011944086290895939
1717858372019216400,8.52321630859375,-0.0017132512293756008,-0.00031339190900325775,-0.0009320871904492378
1717858372029256400,8.53325634765625,0.0011607022024691105,-0.0007668621838092804,-0.0001506023108959198
1717858372039297300,8.54329736328125,-0.00011921278201043606,0.0000832192599773407,0.002023602370172739
1717858372049338400,8.55333837890625,0.00012793391942977905,-0.000980558805167675,0.0011236928403377533
1717858372059378400,8.56337841796875,-0.0007138913497328758,0.0009694080799818039,-0.0005205427296459675
1717858372069419300,8.573419189453125,0.0012308508157730103,0.0008388590067625046,0.00013452069833874702
1717858372079460400,8.58346044921875,0.001265471801161766,0.00041408464312553406,-0.000021540559828281403
1717858372089500200,8.593500244140625,0.0006406414322555065,-0.0007681380957365036,0.0010854098945856094
1717858372099541200,8.603541259765626,0.000836916733533144,0.0004854118451476097,0.00002680346369743347
1717858372109582000,8.61358203125,0.00010860664770007133,0.0005178675055503845,0.00056125083938241
1717858372119622100,8.6236220703125,0.0005741273052990437,0.0004664687439799309,0.000612117350101471
1717858372129663200,8.633663330078125,0.0012801815755665302,-0.0007044542580842972,-0.0006930464878678322
1717858372139704300,8.643704345703124,0.00007004104554653168,0.0005067512392997742,0.0010316167026758194
1717858372149744400,8.653744384765625,-0.00046797306276857853,-0.0004501333460211754,0.0003811735659837723
1717858372159785200,8.66378515625,0.0011794581077992916,-0.000023495405912399292,0.0000810353085398674
1717858372169826300,8.673826416015626,0.0006416467949748039,-0.0003966735675930977,0.0009412514045834541
1717858372179866400,8.683866455078125,-0.0004917946644127369,0.00022384244948625565,-0.00028540054336190224
1717858372189907200,8.6939072265625,0.0005717547610402107,-0.0010036444291472435,-0.0004727141931653023
1717858372199948300,8.7039482421875,-0.001074344851076603,0.000041913241147994995,-0.0002631233073771
1717858372209988400,8.71398828125,0.00024804379791021347,-0.0007521770894527435,0.0010543260723352432
1717858372220029400,8.724029541015625,-0.0005189466755837202,0.0015179021283984184,-0.0007680747658014297
1717858372230070300,8.7340703125,0.0008729123510420322,0.000621468760073185,0.0005943132564425468
1717858372240110000,8.744110107421875,-0.0012624100781977177,-0.00024805404245853424,0.0006214776076376438
1717858372250151200,8.754151123046874,-0.0016362606547772884,-0.0009219590574502945,-0.00025683222338557243
1717858372260192300,8.764192138671875,-0.0000897629652172327,-0.00045111216604709625,-0.0010006530210375786
1717858372270232300,8.774232421875,-0.0013849721290171146,0.00022635143250226974,0.0005529136396944523
1717858372280273200,8.784273193359375,-0.0005785669200122356,-0.0004514222964644432,-0.0009491089731454849
1717858372290314200,8.794314208984375,0.00020079361274838448,0.0007587261497974396,-0.0007536550983786583
1717858372300354300,8.804354248046875,-0.0013638134114444256,-0.00007244665175676346,-0.0002119680866599083
1717858372310395100,8.81439501953125,0.000029845163226127625,-0.0010668300092220306,-0.00033631501719355583
1717858372320436200,8.824436279296876,-0.000447393162176013,0.0003803325816988945,-0.0008463100530207157
1717858372330476300,8.834476318359375,0.00019226549193263054,0.0002829208970069885,0.0008058985695242882
1717858372340517400,8.844517333984374,-0.0007142745889723301,-0.00048832967877388,0.00016034813597798347
1717858372350558200,8.85455810546875,-0.0018773642368614674,0.0009458279237151146,0.0009548594243824482
1717858372360598300,8.864598388671874,-0.002760468516498804,0.0003921566531062126,-0.00019296305254101753
1717858372370639400,8.874639404296875,-0.0021411872003227472,-0.0004035644233226776,-0.00007597403600811958
1717858372380679400,8.884679443359374,0.0009235786274075508,0.0010609077289700508,0.0007440131157636642
1717858372390720300,8.89472021484375,0.0012065842747688293,-0.0008509336039423943,-0.0005339649505913258
1717858372400761300,8.90476123046875,0.0007852721028029919,0.00029475800693035126,0.00016564736142754555
1717858372410802400,8.914802490234376,0.0000596814788877964,0.0003162641078233719,-0.0003947415389120579
1717858372420842200,8.92484228515625,0.0005473061464726925,-0.0007394133135676384,0.0008076755329966545
1717858372430883000,8.934883056640626,-0.000026003923267126083,0.0006496850401163101,-0.00010534469038248062
1717858372440923100,8.944923095703125,0.0003931773826479912,-0.0005127852782607079,-0.00042013032361865044
1717858372450964200,8.954964111328126,0.0009501902386546135,0.0004466278478503227,0.0004397355951368809
1717858372461005300,8.96500537109375,-0.0005169452633708715,0.0014133555814623833,0.0008203014731407166
1717858372471046100,8.975046142578124,-0.0000035422854125499725,-0.0011775977909564972,-0.00009456556290388107
1717858372481086200,8.985086181640625,0.0007650456391274929,0.0010290974751114845,-0.0007880525663495064
1717858372491127300,8.995127197265624,0.0001508910208940506,0.00019429996609687805,-0.0019301269203424454
1717858372501167400,9.00516748046875,0.00040495675057172775,-0.0012744339182972908,0.00024114875122904778
1717858372511208200,9.015208251953124,-0.00007867556996643543,-0.0007578041404485703,0.0007231719791889191
1717858372521249300,9.025249267578126,-0.00048107909969985485,-0.00029068533331155777,-0.0004574074409902096
1717858372531289300,9.035289306640625,-0.000996116315945983,0.00009377580136060715,-0.00033214176073670387
1717858372541330400,9.045330322265626,0.0003285398706793785,0.00036941375583410263,0.000506221316754818
1717858372551371300,9.055371337890625,0.00013949908316135406,0.000363021157681942,-0.000402077566832304
1717858372561411300,9.065411376953126,0.0006976979784667492,0.0003233402967453003,-0.0020934515632689
1717858372571452400,9.075452392578125,0.00040849577635526657,-0.0011341478675603867,0.0010408316738903522
1717858372581493500,9.085493408203124,0.0015576495788991451,-0.001089140772819519,-0.0005080625414848328
1717858372591533300,9.095533203125,-0.0016205208376049995,-0.0006260164082050323,-0.00038481177762150764
1717858372601574100,9.10557421875,0.000365398358553648,-0.0005684914067387581,-0.00046337535604834557
1717858372611615200,9.115615234375,-0.0005291271954774857,-0.00023025553673505783,0.0003591352142393589
1717858372621655300,9.1256552734375,0.0010402733460068703,-0.00014902837574481964,-0.0001857476308941841
1717858372631696100,9.135696044921875,0.000892002135515213,-0.00014964211732149124,0.0011746808886528015
1717858372641737200,9.1457373046875,-0.0011911226902157068,-0.00021009612828493118,0.00044204527512192726
1717858372651777300,9.15577734375,-0.0012843422591686249,-0.000023908913135528564,-0.0008078375831246376
1717858372661818400,9.165818359375,0.0023165177553892136,0.00002269633114337921,0.00033598998561501503
1717858372671859200,9.175859130859376,0.00023096567019820213,-0.00022264011204242706,0.0014734524302184582
1717858372681899300,9.185899169921875,-0.0005850270390510559,-0.0004356931895017624,-0.0007654670625925064
1717858372691940400,9.1959404296875,0.00043246569111943245,-0.0004461091011762619,0.001542482990771532
1717858372701981200,9.205981201171875,0.00031555304303765297,-0.0019633122719824314,0.0005877395160496235
1717858372712021200,9.216021240234374,-0.00014867051504552364,-0.00010885950177907944,-0.0004912870936095715
1717858372722062300,9.226062255859375,0.0010119350627064705,-0.0009243199601769447,0.0010110018774867058
1717858372732103400,9.236103515625,0.000253243837505579,0.000055320560932159424,-0.0012564263306558132
1717858372742143200,9.246143310546875,-0.00021680421195924282,-0.00013882387429475784,-0.00009475508704781532
1717858372752184000,9.25618408203125,-0.0005259911995381117,0.00022963900119066238,0.0000987914390861988
1717858372762225200,9.26622509765625,-0.0006921724416315556,0.00032178498804569244,0.0005677742883563042
1717858372772265200,9.27626513671875,0.0013478230684995651,-0.00011436361819505692,-0.00037449365481734276
1717858372782306300,9.286306396484376,0.00022024055942893028,-0.0009332858026027679,-0.00041523994877934456
1717858372792347100,9.29634716796875,0.000723718199878931,0.00013254210352897644,0.0016941968351602554
1717858372802387000,9.306386962890626,0.0013458323664963245,-0.0003801165148615837,-0.00012607360258698463
1717858372812428000,9.316427978515625,-0.0008279969915747643,-0.00024050939828157425,0.00023630214855074883
1717858372822469000,9.32646923828125,-0.00035288906656205654,0.0009451303631067276,-0.00017409073188900948
1717858372832509000,9.336509033203125,0.0009410656057298183,-0.00006643310189247131,0.0013796216808259487
1717858372842550000,9.346550048828124,0.001069696620106697,0.0019253455102443695,-0.0003421120345592499
1717858372852591000,9.356591064453125,-0.0005289795808494091,-0.00022043194621801376,-0.0015626614913344383
1717858372862631200,9.366631103515624,-0.0008176662959158421,-0.000660652294754982,-0.0007229666225612164
1717858372872672000,9.376672119140625,0.0004467754624783993,0.0007978221401572227,-0.002675301395356655
1717858372882713000,9.386713134765625,0.00013198982924222946,0.00017810426652431488,-0.00045262696221470833
1717858372892753200,9.396753173828126,-0.0012042606249451637,-0.00015055853873491287,0.00014798995107412338
1717858372902794200,9.406794189453125,0.0010437136515974998,0.0006470577791333199,0.00043081771582365036
1717858372912835000,9.4168349609375,-0.001182664418593049,-0.0007165493443608284,-0.0005857748910784721
1717858372922875100,9.426875244140625,-0.0006985017098486423,0.00023872684687376022,0.0008978722617030144
1717858372932916200,9.436916259765624,-0.0008527645841240883,-0.0012093707919120789,-0.00006310129538178444
1717858372942957000,9.44695703125,0.0007206308655440807,0.00012886803597211838,0.0008793915621936321
1717858372952997000,9.4569970703125,0.0010674037039279938,-0.000821099616587162,-0.00020039640367031097
1717858372963038200,9.4670380859375,-0.0005014643538743258,-0.0003382684662938118,0.000010525807738304138
1717858372973079300,9.477079345703125,-0.0007928851991891861,-0.00005607306957244873,0.0007399190217256546
1717858372983119000,9.487119140625,-0.0005223080515861511,-0.00008669961243867874,0.0005122185684740543
1717858372993160000,9.497159912109375,-0.0003244334366172552,-0.0005297362804412842,0.00027240999042987823
1717858373003201000,9.507200927734376,-0.0007268371991813183,0.00039597880095243454,-0.00038645602762699127
1717858373013241000,9.517240966796875,-0.0014618695713579655,0.0006191516295075417,0.00040982943028211594
1717858373023282200,9.5272822265625,0.0004249406047165394,-0.0007655229419469833,-0.00038129137828946114
1717858373033323000,9.537322998046875,-0.00022665876895189285,-0.000004322268068790436,-0.000185391865670681
1717858373043363000,9.547363037109376,-0.000855164835229516,-0.0004589240998029709,0.0013488554395735264
1717858373053404200,9.557404052734375,-0.00009673670865595341,-0.0007408875972032547,-0.0005507818423211575
1717858373063445000,9.567445068359374,0.001263339538127184,0.0013765916228294373,-0.0003284076228737831
1717858373073485000,9.577485107421875,-0.00016111833974719048,-0.0004693577066063881,0.00005039246752858162
1717858373083526100,9.587526123046874,-0.0005078618414700031,0.0002781916409730911,-0.0004742504097521305
1717858373093567200,9.597567138671875,-0.0006792398635298014,-0.00020662043243646622,0.0009605134837329388
1717858373103607300,9.607607177734375,-0.00005526118911802769,-0.000015937723219394684,0.0011621145531535149
1717858373113648000,9.617648193359376,-0.0003603128716349602,0.00012896861881017685,0.00003334926441311836
1717858373123689200,9.627689208984375,0.00027964450418949127,0.0006059408187866211,-0.0007333750836551189
1717858373133729300,9.637729248046876,0.001076498068869114,0.0006733974441885948,0.0007129576988518238
1717858373143770000,9.64777001953125,-0.0009882505983114243,-0.0008999984711408615,0.0006772712804377079
1717858373153811200,9.657811279296874,-0.0014905428979545832,-0.00020531564950942993,-0.00047789420932531357
1717858373163851000,9.66785107421875,-0.0013224973808974028,-0.001204267144203186,0.0006784503348171711
1717858373173892000,9.67789208984375,0.0010692616924643517,0.0008131731301546097,-0.001712009310722351
1717858373183933000,9.687932861328125,0.0011124047450721264,0.0003777462989091873,0.0004986808635294437
1717858373193973000,9.697972900390624,0.000009628478437662125,0.0007313825190067291,-0.00038545532152056694
1717858373204014000,9.70801416015625,0.00034065963700413704,0.00052605289965868,0.0000670156441628933
1717858373214055200,9.71805517578125,-0.0009664243552833796,0.0006195055320858955,0.0014919023960828781
1717858373224095200,9.72809521484375,0.0006112321279942989,-0.0005424320697784424,-0.00035153748467564583
1717858373234136000,9.738135986328125,-0.00001991214230656624,-0.00035959668457508087,-0.000277835875749588
1717858373244177200,9.74817724609375,0.0006184475496411324,-0.0001726420596241951,-0.00023202970623970032
1717858373254217200,9.75821728515625,0.0016659917309880257,0.0008898191154003143,0.00026760343462228775
1717858373264258000,9.768258056640626,0.0008713044226169586,0.0003803567960858345,0.000434050802141428
1717858373274299100,9.778299072265625,-0.0008598989807069302,-0.0013685757294297218,0.00039388518780469894
1717858373284339200,9.788339111328124,-0.0007592313922941685,-0.0009065167978405952,0.0006910939700901508
1717858373294380300,9.79838037109375,-0.0008596335537731647,0.0007174666970968246,0.0007779132574796677
1717858373304421000,9.808421142578124,-0.0006186175160109997,-0.0009549986571073532,0.0013880431652069092
1717858373314461000,9.8184609375,-0.0002731753047555685,0.00021132361143827438,-0.0005302946083247662
1717858373324502000,9.828501953125,6.51925802230835e-8,0.00009840540587902069,0.0004731845110654831
1717858373334543000,9.838543212890626,-0.00021891901269555092,0.000647200271487236,0.0003226893022656441
1717858373344583000,9.8485830078125,-0.00023862626403570175,-0.0014622900635004044,0.0016774395480751991
1717858373354624000,9.8586240234375,-0.00007486948743462563,-0.0009891856461763382,-0.0011114277876913548
1717858373364665000,9.8686650390625,0.00032806675881147385,0.0007977951318025589,-0.001014222390949726
1717858373374705200,9.878705078125,0.0016933041624724865,0.0003367839381098747,0.0011381474323570728
1717858373384746000,9.88874609375,-0.0006247113924473524,0.00019616913050413132,0.0003943266347050667
1717858373394787000,9.898787109375,0.000038105063140392303,-0.0006560655310750008,0.00031407829374074936
1717858373404827100,9.9088271484375,0.0007542292587459087,0.0008353050798177719,0.0014658956788480282
1717858373414868200,9.9188681640625,0.00023127347230911255,-0.0005824128165841103,-0.00008896971121430397
1717858373424909000,9.928908935546875,0.0013793623074889183,-0.000677221454679966,0.0011022626422345638
1717858373434949000,9.93894921875,0.0001424797810614109,-0.0005575092509388924,0.0000735144130885601
1717858373444990200,9.948990234375,-0.000319046201184392,-0.0004978543147444725,0.0009560859762132168
1717858373455031000,9.959031005859375,-0.0008400743827223778,0.0006812075152993202,-0.0022640028037130833
1717858373465071000,9.969071044921876,-0.0013942783698439598,-0.0011947229504585266,0.0001751868985593319
1717858373475112200,9.9791123046875,0.0001890989951789379,-0.0016376087442040443,0.00018111104145646095
1717858373485153300,9.9891533203125,-0.00031290692277252674,0.0010756198316812515,-0.0002620392479002476
1717858373495193000,9.999193115234375,0.00021860701963305473,-0.0025950446724891663,-0.0010550743900239468
1717858373505234000,10.00923388671875,0.0012849364429712296,-0.00019500404596328735,0.0004967497661709785
1717858373515275000,10.01927490234375,-0.0008968212641775608,-0.00006328709423542023,0.0007916460745036602
1717858373525315000,10.029315185546874,0.0002771001309156418,-0.0004446515813469887,0.0014177551493048668
1717858373535356200,10.039356201171875,-0.0004351092502474785,0.0008842367678880692,0.00023244228214025497
1717858373545397000,10.04939697265625,0.0005659731104969978,0.0001180451363325119,0.000251084566116333
1717858373555437000,10.05943701171875,0.0013963021337985992,-0.001088060438632965,-0.00045101623982191086
1717858373565478100,10.06947802734375,0.0014357171021401882,-0.0001301215961575508,0.0006153136491775513
1717858373575519000,10.07951904296875,-0.00032757106237113476,-0.00016924645751714706,-0.00006711436435580254
1717858373585559000,10.08955908203125,0.00010039890184998512,-0.0011956281960010529,-0.00007909862324595451
1717858373595600100,10.09960009765625,-0.0009131315164268017,0.00035525672137737274,0.0002669990062713623
1717858373605641200,10.10964111328125,0.0006168545223772526,-0.0013542268425226212,0.0010441094636917114
1717858373615681300,10.119681396484374,-0.0018698221538215876,0.0006840554997324944,0.000657492782920599
1717858373625722000,10.12972216796875,-0.0006093480624258518,-0.0011335518211126328,0.00125057902187109
1717858373635763200,10.13976318359375,-0.000003411434590816498,-0.0001214686781167984,-0.001038160640746355
1717858373645803300,10.14980322265625,-0.000938979908823967,0.0006103683263063431,0.000012456439435482025
1717858373655844000,10.159843994140624,0.0003103818744421005,-0.0005014678463339806,0.0005605337209999561
1717858373665885200,10.16988525390625,-0.002207370474934578,-0.00008814502507448196,0.00046199653297662735
1717858373675925000,10.179925048828125,-0.001164197688922286,0.0005365693941712379,0.00007671862840652466
1717858373685966000,10.189966064453126,-0.00041584926657378674,-0.0010133907198905945,-0.00011582812294363976
1717858373696007000,10.2000068359375,0.00006881030276417732,-0.0010821027681231499,0.0016738292761147022
1717858373706047000,10.210046875,-0.00038792192935943604,0.000049474649131298065,0.00001547904685139656
1717858373716088000,10.220088134765625,0.00037832465022802353,0.0009436914697289467,-0.0001482316292822361
1717858373726129200,10.230129150390624,0.00026034703478217125,-0.000812663696706295,0.000351643655449152
1717858373736169200,10.240169189453125,-0.001663219416514039,-0.0008181389421224594,0.00021896930411458015
1717858373746210000,10.2502099609375,-0.0005508172325789928,-0.00012997817248106003,-0.0008572139777243137
1717858373756251400,10.26025146484375,0.0005124416202306747,0.0002869153395295143,-0.00011751195415854454
1717858373766291500,10.27029150390625,0.00031110644340515137,-0.0007964586839079857,-0.0007324358448386192
1717858373776332300,10.280332275390625,0.0004162164404988289,-0.0008036214858293533,0.0005392562597990036
1717858373786373400,10.290373291015625,-0.00007726741023361683,-0.0009024245664477348,-0.0005574333481490612
1717858373796413400,10.300413330078126,-0.000044982414692640305,-0.0007046535611152649,0.00008998159319162369
1717858373806454500,10.31045458984375,0.0005350541323423386,-0.0005632396787405014,0.00001088576391339302
1717858373816495400,10.320495361328126,-0.001035184133797884,-0.00032865628600120544,-0.0003668437711894512
1717858373826535400,10.330535400390625,-0.0015419835690408945,0.00007268227636814117,0.0008494220674037933
1717858373836576500,10.340576416015624,0.0000538448803126812,0.00036761630326509476,-0.0006420519202947617
1717858373846617300,10.350617431640625,-0.0010100877843797207,-0.0011655651032924652,0.00024984031915664673
1717858373856657200,10.3606572265625,-0.0001684573944658041,-0.00007123593240976334,0.0012049567885696888
1717858373866698200,10.3706982421875,0.000013436656445264816,0.0002041347324848175,0.0009913709945976734
1717858373876739300,10.3807392578125,0.0008787480182945728,-0.00013964902609586716,0.0006875498220324516
1717858373886779400,10.390779296875,0.0003876611590385437,0.00020043645054101944,0.001092083752155304
1717858373896820200,10.4008203125,0.0010823574848473072,-0.000562586821615696,0.0014982935972511768
1717858373906861300,10.410861328125,0.00020324811339378357,-0.00027549825608730316,0.0008133286610245705
1717858373916901400,10.4209013671875,0.0003844914026558399,-0.0007238974794745445,0.0008332286961376667
1717858373926942500,10.4309423828125,0.00040632952004671097,0.0006337817758321762,0.000790884718298912
1717858373936983300,10.4409833984375,0.0020505585707724094,0.00004309415817260742,-0.0007657837122678757
1717858373947023400,10.4510234375,0.0008329614065587521,0.0003227265551686287,-0.0006872205995023251
1717858373957064400,10.461064453125,-0.0008060154505074024,0.0011666296049952507,0.0007599140517413616
1717858373967105300,10.471105224609374,0.0007306286133825779,0.000597778707742691,-0.00024143466725945473
1717858373977145300,10.481145263671875,0.00042830733582377434,-0.0000665225088596344,-0.0013663447462022305
1717858373987186400,10.4911865234375,0.0003971485421061516,-0.00016612466424703598,0.0010448810644447803
1717858373997227500,10.5012275390625,-0.0014186722692102194,-0.0007034484297037125,0.0011763512156903744
1717858374007267300,10.511267333984375,0.0019076159223914146,-0.0013958700001239777,-0.00022420519962906837
1717858374017308400,10.521308349609376,-0.0006804903969168663,-0.0009696902707219124,0.000582253560423851
1717858374027349500,10.531349609375,0.0010034264996647835,-0.000496978871524334,0.0007604188285768032
1717858374037389300,10.541389404296876,-0.0008412729948759079,0.00013682618737220764,-0.00013137003406882286
1717858374047430400,10.551430419921875,-0.0008252940606325865,0.0006979545578360558,-0.00016279565170407295
1717858374057471200,10.56147119140625,0.0005080155096948147,-0.0002972455695271492,-0.0002598026767373085
1717858374067511300,10.57151123046875,-0.00009945174679160118,-0.0006325375288724899,-0.0013253334909677505
1717858374077552400,10.581552490234374,-0.00003698142245411873,0.000007470138370990753,0.0015078266151249409
1717858374087593200,10.59159326171875,0.000307631678879261,0.0007904395461082458,-0.0005257632583379745
1717858374097633300,10.60163330078125,0.0007628160528838634,-0.00003793276846408844,0.0003683711402118206
1717858374107674400,10.61167431640625,-0.00202604616060853,-0.00007042288780212402,-0.0007485589012503624
1717858374117715500,10.621715576171875,0.00018872390501201153,-0.0012956708669662476,0.00150692043825984
1717858374127755500,10.631755615234376,-0.0005851904861629009,0.0013318033888936043,0.000685335136950016
1717858374137796400,10.64179638671875,-0.0005916745867580175,0.001318756490945816,0.002538509899750352
1717858374147837400,10.65183740234375,-0.00019592884927988052,-0.00017287954688072205,0.00107510294765234
1717858374157877500,10.66187744140625,0.001132987905293703,-0.00015934370458126068,0.0008455300703644753
1717858374167918300,10.67191845703125,0.000115926843136549,-0.0010371217504143715,0.0000955839641392231
1717858374177959400,10.68195947265625,-0.0007017822936177254,-0.0009747529402375221,-0.001241828314960003
1717858374187999200,10.691999267578124,-0.0003427881747484207,-0.0004956498742103577,-0.0011337040923535824
1717858374198040300,10.702040283203125,0.0002364965621381998,0.0003493260592222214,-0.0006430954672396183
1717858374208081200,10.7120810546875,-0.00022715982049703598,-0.0020083701238036156,0.0002304217778146267
1717858374218121200,10.722121337890625,0.0006754705682396889,0.0002304157242178917,0.0006175138987600803
1717858374228162300,10.732162353515625,-0.0004992494359612465,-0.001206359826028347,0.0003908788785338402
1717858374238203400,10.742203369140626,0.00034982780925929546,0.0003741644322872162,-0.00023452471941709518
1717858374248243500,10.752243408203125,0.001075539505109191,0.00016537215560674667,-0.0021954099647700787
1717858374258284300,10.7622841796875,0.0009933041874319315,0.00002819392830133438,-0.00002440856769680977
1717858374268325400,10.772325439453125,0.000297952676191926,0.00040689483284950256,0.00024670129641890526
1717858374278365400,10.782365478515626,0.0008651227690279484,-0.0005345437675714493,0.00001062639057636261
1717858374288406300,10.79240625,0.00024780211970210075,0.00038504600524902344,-0.000600302591919899
1717858374298447400,10.802447265625,-0.00018920470029115677,-0.0003066863864660263,0.0015043900348246098
1717858374308487400,10.8124873046875,-0.00004752445966005325,-0.000047295354306697845,0.0007038437761366367
1717858374318528500,10.822528564453124,-0.0010307054035365582,0.000057095661759376526,0.0007784590125083923
1717858374328569300,10.8325693359375,0.0005663924384862185,-0.00031654536724090576,0.00027991505339741707
1717858374338609400,10.842609375,0.00029867119155824184,0.00021278951317071915,0.00020379433408379555
1717858374348650500,10.852650390625,0.0006438165437430143,-0.00031132064759731293,-0.00042045069858431816
1717858374358691300,10.86269140625,0.00046825013123452663,-0.0008171992376446724,-0.002059360034763813
1717858374368731100,10.872731201171876,0.00013375724665820599,0.00045099854469299316,0.0012706564739346504
1717858374378772200,10.882772216796875,-0.0007112049497663975,0.001050058752298355,-0.00004557613283395767
1717858374388813300,10.892813232421876,0.00033222162164747715,-0.001187262125313282,-0.0006660926155745983
1717858374398853400,10.902853271484375,0.001979929395020008,0.0005961861461400986,0.0004485519602894783
1717858374408894200,10.912894287109374,-0.001215597614645958,0.00017540622502565384,-0.0006105871871113777
1717858374418935300,10.922935302734375,-0.00018532387912273407,-0.00011186767369508743,0.0008549243211746216
1717858374428975400,10.932975341796874,-0.00046042841859161854,-0.0003904346376657486,0.001058922614902258
1717858374439016400,10.943016357421875,-0.00018590549007058144,0.0002856580540537834,0.0006696935743093491
1717858374449057300,10.953057373046875,0.0003949301317334175,-0.0006946511566638947,0.0001343982294201851
1717858374459097300,10.963097412109375,0.00013154535554349422,0.0016417615115642548,-0.0007873778231441975
1717858374469138400,10.973138427734375,0.0018325059209018946,0.0004241643473505974,-0.000408942811191082
1717858374479179300,10.98317919921875,-0.0005737841129302979,0.0006714183837175369,0.0008394056931138039
1717858374489219300,10.99321923828125,0.0002025272697210312,0.00037820450961589813,0.002038094215095043
1717858374499260400,11.003260498046876,0.0014349455013871193,0.0014084354043006897,0.00044927652925252914
1717858374509301500,11.013301513671875,0.002029629424214363,0.0005303910002112389,-0.0011057434603571892
1717858374519341600,11.023341552734376,-0.0005267143715173006,-0.00040446873754262924,0.0007030051201581955
1717858374529382400,11.03338232421875,0.0010536054614931345,-0.0006939545273780823,0.0004473412409424782
1717858374539423500,11.043423583984374,-0.0006632369477301836,-0.0009260987862944603,-0.0002973973751068115
1717858374549463300,11.05346337890625,-0.00120625551789999,0.0000829724594950676,-0.0018838420510292053
1717858374559504400,11.06350439453125,0.00020236847922205925,0.00004366971552371979,0.00048685958608984947
1717858374569545200,11.073545166015625,0.0002527022734284401,-0.0013968339189887047,-0.000719019677489996
1717858374579585300,11.083585205078125,-0.00010144012048840523,0.00014310423284769058,0.0012241275981068611
1717858374589626400,11.09362646484375,0.000204823212698102,-0.0002691531553864479,-0.00045952294021844864
1717858374599667200,11.103667236328125,-0.0009510095696896315,-0.0001237243413925171,-0.00001650257036089897
1717858374609707300,11.113707275390626,-0.0008822998497635126,-0.0009032320231199265,0.000574186909943819
1717858374619748400,11.123748291015625,0.0007716338150203228,-0.00039992667734622955,0.0005264678038656712
1717858374629789400,11.13378955078125,-0.0001415642909705639,-0.000022557564079761505,0.0003344537690281868
1717858374639829500,11.14382958984375,-0.0005339973140507936,0.0015031695365905762,-0.0006550885736942291
1717858374649870300,11.153870361328124,0.0011794804595410824,0.0005566822364926338,-0.0006249947473406792
1717858374659911400,11.163911376953125,-0.0007199447136372328,0.0013818303123116493,0.000054002273827791214
1717858374669951500,11.173951416015624,-0.0009756081271916628,-0.0008994331583380699,-0.0015734555199742317
1717858374679992300,11.183992431640625,-0.0003673105966299772,-0.0011414485052227974,-0.00045512570068240166
1717858374690033400,11.194033447265625,0.00011338992044329643,-0.001013350673019886,0.00022078491747379303
1717858374700073200,11.2040732421875,0.00009095040149986744,-0.00041232816874980927,-0.0012380038388073444
1717858374710114300,11.2141142578125,-0.0006163851357996464,0.0007333634421229362,0.0004168846644461155
1717858374720155100,11.224155029296876,0.0012234591413289309,-0.00088517926633358,-0.00035119103267788887
1717858374730195200,11.2341953125,-0.0008660571184009314,-0.0013429764658212662,0.0007004914805293083
1717858374740236300,11.244236328125,-0.00029117404483258724,-0.0006452957168221474,-0.00034209107980132103
1717858374750277400,11.25427734375,-0.0009702800307422876,0.0005544582381844521,-0.0001431526616215706
1717858374760317400,11.2643173828125,0.00027223932556807995,-0.0006200745701789856,-0.000057606957852840424
1717858374770358500,11.274358642578125,0.001074117375537753,-0.0004967702552676201,-0.000683982390910387
1717858374780399600,11.284399658203125,-0.000990458531305194,-0.0007121171802282333,-0.00017437199130654335
1717858374790439700,11.294439697265625,-0.00005435757339000702,-0.000848737545311451,0.001363337505608797
1717858374800480500,11.30448046875,0.0006531199906021357,0.0009438395500183105,-0.0007146340794861317
1717858374810521600,11.314521484375,0.0012235690373927355,0.001331329345703125,0.0004712715744972229
1717858374820561700,11.324561767578125,-0.0012023532763123512,-0.0009201811626553535,-0.00007353350520133972
1717858374830602800,11.334602783203126,-0.0012590785045176744,-0.0008125891909003258,-0.00041068997234106064
1717858374840643600,11.3446435546875,0.0004112944006919861,0.0006532389670610428,-0.0005458733066916466
1717858374850683600,11.35468359375,-0.0009722176473587751,0.00014191213995218277,0.0007095411419868469
1717858374860724700,11.364724853515625,0.0007260611746460199,-0.0004259040579199791,-0.001526393461972475
1717858374870765600,11.374765625,-0.0003482580650597811,0.00009021628648042679,0.00013461988419294357
1717858374880805400,11.384805419921875,-0.0014455323107540607,0.0012549106031656265,0.00003208965063095093
1717858374890846500,11.394846435546874,0.00024557486176490784,-0.002054865937680006,0.001077380497008562
1717858374900887600,11.404887451171875,0.00041644065640866756,0.00015242025256156921,0.000666335690766573
1717858374910927600,11.414927734375,-0.00007358076982200146,-0.0002771476283669472,0.0004681963473558426
1717858374920968400,11.424968505859376,0.00017890240997076035,-0.00008665584027767181,-0.00036458857357501984
1717858374931009500,11.435009521484375,0.0009935633279383183,-0.000014483928680419922,0.001195224467664957
1717858374941049600,11.445049560546876,0.0006182496435940266,-0.000502927228808403,0.0007361313328146935
1717858374951090700,11.455090576171875,-0.0004507433623075485,-0.001247812993824482,0.0009156283922493458
1717858374961131500,11.465131591796874,-0.0012366813607513905,0.001157953403890133,0.0005233855918049812
1717858374971171600,11.475171630859375,-0.0008646377827972174,-0.0007467400282621384,-0.000741083174943924
1717858374981212700,11.485212646484374,0.00044020358473062515,-0.00011958181858062744,0.0008756383322179317
1717858374991253500,11.49525341796875,-0.0015220132190734148,-0.00024182070046663284,0.00006710272282361984
1717858375001293600,11.50529345703125,-0.00046738283708691597,0.00024682097136974335,0.0005279271863400936
1717858375011334700,11.515334716796875,-0.00007696333341300488,0.000006870366632938385,-0.00022015487775206566
1717858375021375700,11.525375732421875,-0.0014838604256510735,0.00005012191832065582,-0.0004563387483358383
1717858375031415800,11.535415771484375,-0.001896384172141552,0.000049056485295295715,-0.0009287837892770767
