time,seconds_elapsed,z,y,x
1716738008758591200,0.11959130859375,-0.05449962615966797,-0.010005109012126923,-0.01716277003288269
1716738008768591400,0.12959130859375,-0.054500579833984375,-0.009993035346269608,-0.01710503175854683
1716738008778591200,0.13959130859375,-0.054500579833984375,-0.010026998817920685,-0.017077729105949402
1716738008788591400,0.14959130859375,-0.05449962615966797,-0.010062631219625473,-0.0171503946185112
1716738008798591200,0.15959130859375,-0.054500579833984375,-0.010030888020992279,-0.01709708943963051
1716738008808591400,0.16959130859375,-0.05450153350830078,-0.00983119010925293,-0.0170997753739357
1716738008818591200,0.17959130859375,-0.05450153350830078,-0.009823072701692581,-0.017061371356248856
1716738008828591400,0.18959130859375,-0.05450153350830078,-0.009846139699220657,-0.017076600342988968
1716738008838591200,0.19959130859375,-0.05450153350830078,-0.009888548403978348,-0.017087556421756744
1716738008848591400,0.20959130859375,-0.05450153350830078,-0.009876538068056107,-0.017029788345098495
1716738008858591200,0.21959130859375,-0.05450725555419922,-0.00994027778506279,-0.01611318439245224
1716738008868591400,0.22959130859375,-0.05451011657714844,-0.010034177452325821,-0.015430957078933716
1716738008878591500,0.239591552734375,-0.05451393127441406,-0.010063949972391129,-0.014822661876678467
1716738008888591400,0.24959130859375,-0.05451488494873047,-0.01020776480436325,-0.01437024399638176
1716738008898591500,0.259591552734375,-0.05451488494873047,-0.010192837566137314,-0.014393478631973267
1716738008908591400,0.26959130859375,-0.0545196533203125,-0.010293688625097275,-0.01364944875240326
1716738008918591500,0.279591552734375,-0.05452251434326172,-0.010402698069810867,-0.012943889945745468
1716738008928591400,0.28959130859375,-0.054526329040527344,-0.010518480092287064,-0.012176770716905594
1716738008938591500,0.299591552734375,-0.054526329040527344,-0.010422877967357635,-0.012197181582450867
1716738008948591400,0.30959130859375,-0.054526329040527344,-0.010346271097660065,-0.012213557958602905
1716738008958591500,0.319591552734375,-0.054526329040527344,-0.010320417582988739,-0.012279268354177475
1716738008968591400,0.32959130859375,-0.054526329040527344,-0.010292991995811462,-0.012245044112205505
1716738008978591500,0.339591552734375,-0.054526329040527344,-0.010277882218360901,-0.012268371880054474
1716738008988591400,0.34959130859375,-0.054526329040527344,-0.010438017547130585,-0.01217375323176384
1716738008998591500,0.359591552734375,-0.054526329040527344,-0.010467570275068283,-0.012127596884965897
1716738009008591400,0.36959130859375,-0.05452728271484375,-0.010397519916296005,-0.01208261027932167
1716738009018591500,0.379591552734375,-0.05452728271484375,-0.010420940816402435,-0.012097593396902084
1716738009028591400,0.38959130859375,-0.05452728271484375,-0.010412782430648804,-0.012059122323989868
1716738009038591500,0.399591552734375,-0.05452728271484375,-0.010434567928314209,-0.011974204331636429
1716738009048591400,0.40959130859375,-0.054528236389160156,-0.010421983897686005,-0.0119168721139431
1716738009058591500,0.419591552734375,-0.05452728271484375,-0.010449681431055069,-0.011950869113206863
1716738009068591400,0.42959130859375,-0.05452728271484375,-0.010423704981803894,-0.012016646564006805
1716738009078591500,0.439591552734375,-0.054528236389160156,-0.010341368615627289,-0.011914007365703583
1716738009088591400,0.44959130859375,-0.05452919006347656,-0.010320864617824554,-0.011818066239356995
1716738009098591500,0.459591552734375,-0.05453014373779297,-0.010250907391309738,-0.01177295297384262
1716738009108591400,0.46959130859375,-0.05453014373779297,-0.010155152529478073,-0.01179351657629013
1716738009118591500,0.479591552734375,-0.05452919006347656,-0.010201752185821533,-0.011823616921901703
1716738009128591400,0.48959130859375,-0.054531097412109375,-0.010298557579517365,-0.011341385543346405
1716738009138591500,0.499591552734375,-0.0018587112426757812,0.0015107207000255585,-0.00416400283575058
1716738009148591400,0.50959130859375,-0.0018587112426757812,-0.0009178295731544495,-0.004136513918638229
1716738009158591500,0.519591552734375,-0.004254341125488281,-0.001023121178150177,-0.0036925002932548523
1716738009168591400,0.52959130859375,-0.006649017333984375,-0.0009271912276744843,-0.001318957656621933
1716738009178591500,0.539591552734375,-0.006649017333984375,0.0014754720032215118,-0.0012807957828044891
1716738009188591400,0.54959130859375,-0.006649971008300781,0.006352715194225311,-0.0012394972145557404
1716738009198591500,0.559591552734375,-0.0066509246826171875,0.003676731139421463,-0.0031719207763671875
1716738009208591400,0.56959130859375,-0.006651878356933594,0.003684837371110916,-0.0031334087252616882
1716738009218591500,0.579591552734375,-0.006651878356933594,0.0013113245368003845,-0.003037571907043457
1716738009228591400,0.58959130859375,-0.006651878356933594,0.00367547944188118,-0.0005968064069747925
1716738009238591500,0.599591552734375,-0.006651878356933594,0.0036411434412002563,-0.000569317489862442
1716738009248591400,0.60959130859375,-0.006651878356933594,0.003330197185277939,-0.0002414397895336151
1716738009258591500,0.619591552734375,-0.00665283203125,0.0009507313370704651,-0.0026586875319480896
1716738009268591400,0.62959130859375,-0.009045600891113281,0.003314889967441559,-0.002612125128507614
1716738009278591500,0.639591552734375,-0.00665283203125,0.005843054503202438,-0.0002465769648551941
1716738009288591400,0.64959130859375,-0.009046554565429688,0.005758021026849747,-0.00026829540729522705
1716738009298591500,0.659591552734375,-0.006653785705566406,0.005782801657915115,-0.0001533403992652893
1716738009308591400,0.66959130859375,-0.006653785705566406,0.0036529116332530975,-0.002624478191137314
1716738009318591500,0.679591552734375,-0.006653785705566406,0.0035420507192611694,-0.00018637999892234802
1716738009328591400,0.68959130859375,-0.009047508239746094,0.0011819899082183838,-0.00021367892622947693
1716738009338591500,0.699591552734375,-0.009045600891113281,0.0007339231669902802,-0.000056918710470199585
1716738009348591400,0.70959130859375,-0.00665283203125,0.003210458904504776,-0.004742681980133057
1716738009358591500,0.719591552734375,-0.006653785705566406,0.0008476302027702332,-0.004689190536737442
1716738009368591400,0.72959130859375,-0.009047508239746094,0.005701690912246704,-0.007057357579469681
1716738009378591500,0.739591552734375,-0.0066547393798828125,0.0028366819024086,-0.004240870475769043
1716738009388591400,0.74959130859375,-0.004260063171386719,0.0028446801006793976,-0.0065964944660663605
1716738009398591500,0.759591552734375,-0.004261016845703125,0.002669684588909149,-0.006197728216648102
1716738009408591400,0.76959130859375,-0.004261016845703125,0.0026970282196998596,-0.006163373589515686
1716738009418591500,0.779591552734375,-0.004261016845703125,0.00031775981187820435,-0.0013982057571411133
1716738009428591400,0.78959130859375,-0.004261970520019531,0.00034510716795921326,-0.001363854855298996
1716738009438591500,0.799591552734375,-0.0018682479858398438,0.0026900582015514374,0.0010809823870658875
1716738009448591400,0.80959130859375,-0.004261016845703125,0.0027244538068771362,-0.0013407506048679352
1716738009458591500,0.819591552734375,-0.0018682479858398438,0.0026134178042411804,0.0010974518954753876
1716738009468591400,0.82959130859375,-0.0018672943115234375,0.00456705316901207,0.0014729760587215424
1716738009478591500,0.839591552734375,-0.0018672943115234375,0.002191942185163498,-0.0009252205491065979
1716738009488591400,0.84959130859375,0.00052642822265625,0.0045518092811107635,-0.003291931003332138
1716738009498591500,0.859591552734375,0.0005273818969726562,0.004635166376829147,-0.0033699236810207367
1716738009508591400,0.86959130859375,0.0005273818969726562,0.0046542249619960785,-0.0033739805221557617
1716738009518591500,0.879591552734375,-0.0018663406372070312,0.004676260054111481,-0.0010649263858795166
1716738009528591400,0.88959130859375,-0.004261016845703125,0.004691224545240402,-0.0010881014168262482
1716738009538591500,0.899591552734375,-0.004260063171386719,0.004667986184358597,-0.003497384488582611
1716738009548591400,0.90959130859375,-0.006655693054199219,-0.00004402920603752136,-0.005907826125621796
1716738009558591500,0.919591552734375,-0.006655693054199219,0.002316005527973175,-0.0010920315980911255
1716738009568591400,0.92959130859375,-0.006655693054199219,0.002335064113140106,-0.0010960884392261505
1716738009578591500,0.939591552734375,-0.004261016845703125,0.0023626871407032013,-0.005850464105606079
1716738009588591400,0.94959130859375,-0.004261016845703125,0.004772130399942398,-0.005873963236808777
1716738009598591500,0.959591552734375,-0.0018682479858398438,0.001934494823217392,-0.003023214638233185
1716738009608591400,0.96959130859375,-0.0018682479858398438,0.00439879298210144,-0.0029782652854919434
1716738009618591500,0.979591552734375,0.0005254745483398438,0.0044877901673316956,-0.00772552564740181
1716738009628591600,0.989591552734375,-0.00186920166015625,0.004515103995800018,-0.010085433721542358
1716738009638591500,0.999591552734375,-0.004261970520019531,0.0041194818913936615,-0.007385414093732834
1716738009648591600,1.009591552734375,-0.0042629241943359375,0.003711644560098648,-0.006856177002191544
1716738009658591500,1.019591552734375,-0.0042629241943359375,0.001387234777212143,-0.006810955703258514
1716738009668591600,1.029591552734375,-0.0042629241943359375,0.0013530664145946503,-0.006783567368984222
1716738009678591500,1.039591552734375,-0.00426483154296875,0.0037034712731838226,-0.006613597273826599
1716738009688591400,1.04959130859375,-0.004265785217285156,0.003621380776166916,-0.006154358386993408
1716738009698591500,1.059591552734375,-0.004267692565917969,0.0010194778442382812,-0.008022397756576538
1716738009708591400,1.06959130859375,-0.004268646240234375,0.0008444115519523621,-0.007623493671417236
1716738009718591500,1.079591552734375,-0.004268646240234375,0.0008018240332603455,-0.007634345442056656
1716738009728591400,1.08959130859375,-0.0018768310546875,-0.004139762371778488,-0.009433623403310776
1716738009738591500,1.099591552734375,-0.0018796920776367188,-0.0017969459295272827,-0.006346274167299271
1716738009748591400,1.10959130859375,-0.0018796920776367188,-0.001714613288640976,-0.008637845516204834
1716738009758591500,1.119591552734375,0.00051116943359375,-0.0040961019694805145,-0.0056243762373924255
1716738009768591400,1.12959130859375,-0.0018873214721679688,-0.006427973508834839,-0.004774995148181915
1716738009778591500,1.139591552734375,-0.004283905029296875,-0.0015064142644405365,-0.0019479691982269287
1716738009788591400,1.14959130859375,-0.0018939971923828125,0.0011281408369541168,-0.0012975409626960754
1716738009798591500,1.159591552734375,-0.0018939971923828125,-0.0036452114582061768,-0.0013208389282226562
1716738009808591400,1.16959130859375,-0.0042877197265625,0.0011705122888088226,0.0011076480150222778
1716738009818591500,1.179591552734375,-0.004290580749511719,0.0013476461172103882,0.004045654088258743
1716738009828591400,1.18959130859375,-0.004291534423828125,0.0038144290447235107,0.004009883850812912
1716738009838591500,1.199591552734375,-0.004291534423828125,0.0038391239941120148,0.0041250549256801605
1716738009848591400,1.20959130859375,-0.035416603088378906,0.00619916245341301,0.0041524432599544525
1716738009858591500,1.219591552734375,0.005286216735839844,0.005850013345479965,0.0018131844699382782
1716738009868591400,1.22959130859375,0.010074615478515625,0.003545992076396942,-0.0007207468152046204
1716738009878591500,1.239591552734375,-0.011472702026367188,0.005848504602909088,-0.000680975615978241
1716738009888591400,1.24959130859375,-0.011470794677734375,0.0007476620376110077,-0.0007339939475059509
1716738009898591500,1.259591552734375,0.010077476501464844,0.0005792677402496338,-0.0006777197122573853
1716738009908591400,1.26959130859375,0.00768280029296875,0.005282573401927948,0.001694750040769577
1716738009918591500,1.279591552734375,-0.009076118469238281,0.003028225153684616,0.004179205745458603
1716738009928591400,1.28959130859375,-0.016260147094726562,0.005553767085075378,0.004231370985507965
1716738009938591500,1.299591552734375,0.0028934478759765625,0.007981974631547928,0.001809980720281601
1716738009948591400,1.30959130859375,0.012470245361328125,0.005483701825141907,-0.0006019733846187592
1716738009958591500,1.319591552734375,-0.0018949508666992188,0.005572628229856491,-0.0005608424544334412
1716738009968591400,1.32959130859375,-0.013865470886230469,0.005580935627222061,-0.0005225278437137604
1716738009978591500,1.339591552734375,0.0005016326904296875,0.00508778914809227,0.0018172822892665863
1716738009988591400,1.34959130859375,0.010082244873046875,0.004473898559808731,0.004062853753566742
1716738009998591500,1.359591552734375,-0.0018901824951171875,0.0021686702966690063,0.004103943705558777
1716738010008591400,1.36959130859375,-0.011463165283203125,0.0017066672444343567,0.0014281421899795532
1716738010018591500,1.379591552734375,0.0005083084106445312,-0.0007178448140621185,0.0014749914407730103
1716738010028591400,1.38959130859375,0.0052967071533203125,-0.0032037384808063507,0.0015147589147090912
1716738010038591500,1.399591552734375,-0.006671905517578125,-0.0034505799412727356,0.0012066811323165894
1716738010048591400,1.40959130859375,-0.01385498046875,-0.0033615678548812866,0.006036221981048584
1716738010058591500,1.419591552734375,-0.004279136657714844,-0.005609169602394104,0.006064854562282562
1716738010068591400,1.42959130859375,0.005298614501953125,-0.005658537149429321,0.0037214644253253937
1716738010078591500,1.439591552734375,0.0005092620849609375,-0.005637738853693008,0.006211329251527786
1716738010088591400,1.44959130859375,-0.009068489074707031,-0.0029603764414787292,0.0034553594887256622
1716738010098591500,1.459591552734375,-0.00188446044921875,0.0021713413298130035,0.0006061308085918427
1716738010108591400,1.46959130859375,0.005297660827636719,-0.0002529025077819824,0.0006526969373226166
1716738010118591500,1.479591552734375,0.0005102157592773438,-0.00023797526955604553,0.0030237585306167603
1716738010128591400,1.48959130859375,-0.0066738128662109375,-0.00021732598543167114,0.003119543194770813
1716738010138591500,1.499591552734375,-0.004279136657714844,0.0024477727711200714,0.00030588358640670776
1716738010148591400,1.50959130859375,0.0029039382934570312,0.000017818063497543335,0.00023343786597251892
1716738010158591500,1.519591552734375,0.0005092620849609375,0.000031832605600357056,-0.002003442496061325
1716738010168591400,1.52959130859375,-0.00428009033203125,0.005028381943702698,0.0028204545378684998
1716738010178591500,1.539591552734375,-0.0018835067749023438,0.0023365989327430725,0.0024632029235363007
1716738010188591400,1.54959130859375,0.0005102157592773438,0.0023571662604808807,0.0025591999292373657
1716738010198591500,1.559591552734375,-0.00188446044921875,0.002384491264820099,0.00019928812980651855
1716738010208591000,1.569591064453125,-0.009066581726074219,0.0048553235828876495,0.00018290802836418152
1716738010221237000,1.582237060546875,-0.004279136657714844,0.0025502145290374756,-0.004564568400382996
1716738010231236900,1.59223681640625,0.002902984619140625,0.002565138041973114,-0.0045877061784267426
1716738010241237000,1.602237060546875,0.00051116943359375,0.0020554810762405396,-0.0020434707403182983
1716738010251236900,1.61223681640625,-0.004277229309082031,0.002089865505695343,-0.002071104943752289
1716738010261237000,1.622237060546875,-0.004277229309082031,0.0021048448979854584,-0.002094276249408722
1716738010271236900,1.63223681640625,0.0005121231079101562,-0.0007891878485679626,0.0005881302058696747
1716738010281237000,1.642237060546875,-0.0018825531005859375,-0.0032301023602485657,0.0005582049489021301
1716738010291236900,1.65223681640625,-0.006670951843261719,-0.00319865345954895,0.003005877137184143
1716738010301237000,1.662237060546875,-0.0066699981689453125,-0.0032385289669036865,-0.0018741413950920105
1716738010311236900,1.67223681640625,-0.0018815994262695312,-0.0008867494761943817,-0.00188509002327919
1716738010321237000,1.682237060546875,-0.0018815994262695312,-0.000916946679353714,-0.0018384195864200592
1716738010331236900,1.69223681640625,-0.004275321960449219,-0.0008334629237651825,-0.0019165724515914917
1716738010341237000,1.702237060546875,-0.004275321960449219,0.0015197843313217163,0.0005666613578796387
1716738010351236900,1.71223681640625,-0.004276275634765625,0.0015898533165454865,0.0006115958094596863
1716738010361237000,1.722237060546875,-0.006670951843261719,0.0016241297125816345,0.0005841292440891266
1716738010371236900,1.73223681640625,-0.009064674377441406,-0.0007003955543041229,0.005417913198471069
1716738010381237000,1.742237060546875,-0.004277229309082031,0.0016635581851005554,0.01025303453207016
1716738010391237000,1.752237060546875,-0.0018835067749023438,0.0016225986182689667,0.005553677678108215
1716738010401237000,1.762237060546875,-0.0018835067749023438,0.00398661196231842,0.005600351840257645
1716738010411237000,1.772237060546875,-0.006671905517578125,0.004014242440462112,0.005634419620037079
1716738010421237000,1.782237060546875,-0.004277229309082031,0.006427515298128128,0.00802457332611084
1716738010431237000,1.792237060546875,0.0005140304565429688,0.006221603602170944,0.007627643644809723
1716738010441237000,1.802237060546875,0.0005159378051757812,0.0035490989685058594,0.007266096770763397
1716738010451237000,1.812237060546875,-0.0018777847290039062,0.0011012814939022064,0.007297895848751068
1716738010461237000,1.822237060546875,-0.004271507263183594,0.0011330023407936096,0.007351085543632507
1716738010471237000,1.832237060546875,-0.004269599914550781,0.0033789314329624176,0.004547402262687683
1716738010481237000,1.842237060546875,-0.004265785217285156,-0.0016344450414180756,0.004154428839683533
1716738010491237000,1.852237060546875,-0.009054183959960938,0.0008362941443920135,-0.0006503686308860779
1716738010501237000,1.862237060546875,-0.0066623687744140625,0.0032578594982624054,-0.0006160140037536621
1716738010511237400,1.8722373046875,-0.004265785217285156,0.0032113157212734222,-0.0006461478769779205
1716738010521237500,1.882237548828125,-0.0042667388916015625,0.0007801167666912079,-0.0005378201603889465
1716738010531237400,1.8922373046875,-0.009055137634277344,0.000795215368270874,-0.0029553547501564026
1716738010541237500,1.902237548828125,-0.006661415100097656,0.0007718056440353394,-0.0005761235952377319
1716738010551237400,1.9122373046875,-0.0042667388916015625,0.0008417144417762756,-0.002925187349319458
1716738010561237500,1.922237548828125,-0.0018739700317382812,0.0032700709998607635,-0.002952486276626587
1716738010571237400,1.9322373046875,-0.0018739700317382812,0.0032850131392478943,-0.0029757097363471985
1716738010581237500,1.942237548828125,-0.004267692565917969,0.003309827297925949,-0.0028607025742530823
1716738010591237400,1.9522373046875,-0.001873016357421875,0.000431012362241745,-0.0025959014892578125
1716738010601237500,1.962237548828125,0.000522613525390625,0.0004460550844669342,-0.005013406276702881
1716738010611237400,1.9722373046875,-0.001873016357421875,0.002867579460144043,-0.009767509996891022
1716738010621237500,1.982237548828125,0.0005216598510742188,0.002895064651966095,-0.007339131087064743
1716738010631237400,1.9922373046875,-0.0018720626831054688,0.0004651099443435669,-0.0026231594383716583
1716738010641237500,2.002237548828125,-0.0018739700317382812,0.00032579153776168823,-0.004546061158180237
1716738010651237400,2.0122373046875,-0.0066623687744140625,0.00029551610350608826,-0.004499152302742004
1716738010661237500,2.022237548828125,-0.006663322448730469,-0.002009596675634384,-0.0044582299888134
1716738010671237400,2.0322373046875,-0.0042705535888671875,-0.002040557563304901,-0.003950033336877823
1716738010681237500,2.042237548828125,-0.006665229797363281,-0.004526562988758087,-0.006304290145635605
1716738010691237400,2.0522373046875,-0.0042705535888671875,-0.002179007977247238,-0.006334438920021057
1716738010701237500,2.062237548828125,-0.0042724609375,-0.0020609796047210693,-0.003483932465314865
1716738010711237400,2.0722373046875,-0.004275321960449219,-0.004347652196884155,-0.0005913712084293365
1716738010721237500,2.082237548828125,-0.004275321960449219,-0.006791219115257263,0.001853644847869873
1716738010731237400,2.0922373046875,-0.004276275634765625,-0.006576132029294968,0.004221577197313309
1716738010741237500,2.102237548828125,-0.004277229309082031,-0.004161179065704346,0.0043172687292099
1716738010751237400,2.1122373046875,-0.004277229309082031,-0.004091333597898483,0.004362538456916809
1716738010761237500,2.122237548828125,-0.0042781829833984375,-0.0016696937382221222,0.0020024627447128296
1716738010771237400,2.1322373046875,-0.0066738128662109375,-0.0011835023760795593,0.0018375813961029053
1716738010781237500,2.142237548828125,-0.0066738128662109375,-0.001226082444190979,0.0018267445266246796
1716738010791237400,2.1522373046875,-0.006672859191894531,-0.0012661218643188477,0.00412953644990921
1716738010801237500,2.162237548828125,-0.040192604064941406,0.0012045614421367645,0.0017190687358379364
1716738010811237400,2.1722373046875,0.014875411987304688,0.0009991452097892761,-0.0005104690790176392
1716738010821237500,2.182237548828125,0.0005102157592773438,-0.0012486763298511505,-0.0007627010345458984
1716738010831237400,2.1922373046875,-0.02103900909423828,-0.00356467068195343,-0.003073461353778839
1716738010841237500,2.202237548828125,-0.013856887817382812,-0.0011579729616641998,-0.0030161067843437195
1716738010851237400,2.2122373046875,0.010085105895996094,-0.0011306405067443848,-0.0005876012146472931
1716738010861237500,2.222237548828125,0.005297660827636719,0.0012855976819992065,0.0017214901745319366
1716738010871237400,2.2322373046875,-0.009068489074707031,0.001362346112728119,0.001704934984445572
1716738010881237500,2.242237548828125,-0.009068489074707031,0.0014582276344299316,0.004078410565853119
1716738010891237400,2.2522373046875,0.0076904296875,0.0038155503571033478,0.001792456954717636
1716738010901237500,2.262237548828125,0.0052967071533203125,0.003768879920244217,0.0041567012667655945
1716738010911237400,2.2722373046875,-0.009066581726074219,-0.0011433102190494537,0.0014683455228805542
1716738010921237500,2.282237548828125,-0.0066699981689453125,-0.001331571489572525,0.0009672455489635468
1716738010931237400,2.2922373046875,0.010089874267578125,-0.00129714235663414,0.0009396560490131378
1716738010941237200,2.3022373046875,0.007695198059082031,-0.003627132624387741,-0.0015284977853298187
1716738010951237400,2.3122373046875,-0.009063720703125,-0.0012056604027748108,-0.0014941655099391937
1716738010961237200,2.3222373046875,-0.009064674377441406,-0.0011235438287258148,0.0010029971599578857
1716738010971237400,2.3322373046875,0.0053005218505859375,-0.0010891631245613098,0.0009753555059432983
1716738010981237200,2.3422373046875,0.0029058456420898438,-0.0010700896382331848,0.0009713061153888702
1716738010991237400,2.3522373046875,-0.009065628051757812,-0.003317747265100479,-0.0013941377401351929
1716738011001237200,2.3622373046875,-0.011461257934570312,-0.005580279976129532,-0.0013423822820186615
1716738011011237400,2.3722373046875,-0.00188446044921875,-0.005546007305383682,0.0010243505239486694
1716738011021237200,2.3822373046875,-0.00188446044921875,-0.003081735223531723,-0.001324918121099472
1716738011031237400,2.3922373046875,-0.011461257934570312,-0.005499348044395447,0.0010543130338191986
1716738011041237200,2.4022373046875,-0.011462211608886719,-0.005371980369091034,0.0010871924459934235
1716738011051237400,2.4122373046875,-0.0018863677978515625,-0.005344703793525696,0.0035157278180122375
1716738011061237200,2.4222373046875,-0.0018863677978515625,-0.005267959088087082,0.0034991763532161713
1716738011071237400,2.4322373046875,-0.011464118957519531,-0.005178716033697128,0.0035399794578552246
1716738011081237200,2.4422373046875,-0.011464118957519531,-0.00515960156917572,0.003535982221364975
1716738011091237400,2.4522373046875,-0.00428009033203125,-0.002731282263994217,0.005902830511331558
1716738011101237200,2.4622373046875,-0.004281044006347656,0.0024760067462921143,0.0056120119988918304
1716738011111237400,2.4722373046875,-0.009069442749023438,0.0000901147723197937,0.005650322884321213
1716738011121237200,2.4822373046875,-0.011464118957519531,0.0003649592399597168,0.0028559379279613495
1716738011131237400,2.4922373046875,-0.004281044006347656,0.00027327239513397217,0.0005015097558498383
1716738011141237500,2.502237548828125,-0.0018873214721679688,-0.004445172846317291,-0.0018475912511348724
1716738011151237400,2.5122373046875,-0.004281044006347656,-0.00680498406291008,-0.0018752217292785645
1716738011161237500,2.522237548828125,-0.0042819976806640625,-0.0019976794719696045,-0.004273280501365662
1716738011171237400,2.5322373046875,-0.0018892288208007812,0.0007691271603107452,-0.0043134018778800964
1716738011181237200,2.5422373046875,0.0005054473876953125,-0.0016099736094474792,-0.00433674082159996
1716738011191237400,2.5522373046875,-0.006678581237792969,-0.001513935625553131,-0.004357583820819855
1716738011201237200,2.5622373046875,-0.00907135009765625,-0.001430552452802658,-0.0020414702594280243
1716738011211237400,2.5722373046875,-0.004283905029296875,-0.0014156252145767212,-0.0020646080374717712
1716738011221237200,2.5822373046875,-0.004283905029296875,-0.003675561398267746,0.0003006570041179657
1716738011231237400,2.5922373046875,-0.006678581237792969,0.0010825321078300476,-0.002046700567007065
1716738011241237500,2.602237548828125,-0.006678581237792969,-0.0012909770011901855,0.00044333189725875854
1716738011251237400,2.6122373046875,-0.0042858123779296875,-0.0011401958763599396,0.002885296940803528
1716738011261237500,2.622237548828125,-0.0042858123779296875,-0.005971226841211319,0.0028744861483573914
1716738011271237400,2.6322373046875,-0.006682395935058594,-0.0054796002805233,0.00043466687202453613
1716738011281237500,2.642237548828125,-0.0090789794921875,-0.000056941062211990356,0.0027926005423069
1716738011291237400,2.6522373046875,-0.0066852569580078125,-0.002500481903553009,0.0028434544801712036
1716738011301237500,2.662237548828125,-0.0042896270751953125,-0.002527892589569092,0.002809148281812668
1716738011311237400,2.6722373046875,-0.0090789794921875,-0.0021775178611278534,0.0025733113288879395
1716738011321237500,2.682237548828125,-0.013867378234863281,-0.0021008215844631195,0.004951000213623047
1716738011331237400,2.6922373046875,-0.0090789794921875,0.002715066075325012,0.0025909803807735443
1716738011341237500,2.702237548828125,-0.006684303283691406,0.005291018635034561,-0.00026375800371170044
1716738011351237400,2.7122373046875,-0.011472702026367188,0.005263518542051315,-0.0002978518605232239
1716738011361237500,2.722237548828125,-0.011473655700683594,0.00527619943022728,-0.00024068355560302734
1716738011371237400,2.7322373046875,-0.011473655700683594,0.005296841263771057,-0.00493321567773819
1716738011381237500,2.742237548828125,-0.011474609375,0.00527239590883255,-0.007161673158407211
1716738011391237400,2.7522373046875,-0.013868331909179688,0.005287617444992065,-0.0095793716609478
1716738011401237500,2.762237548828125,-0.013867378234863281,0.0025785788893699646,-0.006876528263092041
1716738011411237400,2.7722373046875,-0.011473655700683594,0.002493802458047867,-0.004504352807998657
1716738011421237500,2.782237548828125,-0.0090789794921875,0.0025020577013492584,0.00032239779829978943
1716738011431237400,2.7922373046875,-0.011473655700683594,-0.00035881996154785156,0.0007638521492481232
1716738011441237500,2.802237548828125,-0.011473655700683594,-0.000331338495016098,-0.001596163958311081
1716738011451237400,2.8122373046875,-0.011473655700683594,-0.002648673951625824,-0.0016128681600093842
1716738011461237200,2.8222373046875,-0.0090789794921875,-0.0026719793677330017,0.0007662847638130188
1716738011471237400,2.8322373046875,-0.0090789794921875,-0.0002695843577384949,0.0008047521114349365
1716738011481237500,2.842237548828125,-0.006686210632324219,-0.00024225562810897827,-0.0015551522374153137
1716738011491237400,2.8522373046875,-0.006686210632324219,-0.00248568132519722,-0.0015073902904987335
1716738011501237500,2.862237548828125,-0.009079933166503906,-0.002589751034975052,-0.0015251301229000092
1716738011511237400,2.8722373046875,-0.011474609375,-0.0026323311030864716,0.0008582249283790588
1716738011521237500,2.882237548828125,-0.009079933166503906,-0.00009137764573097229,0.0008867383003234863
1716738011531237400,2.8922373046875,-0.009081840515136719,0.000052735209465026855,0.003390200436115265
1716738011541237200,2.9022373046875,-0.009081840515136719,0.002467472106218338,0.0034861378371715546
1716738011551237400,2.9122373046875,-0.009081840515136719,0.0024442188441753387,0.0010768510401248932
1716738011561237200,2.9222373046875,-0.009082794189453125,0.00005817413330078125,0.001115269958972931
1716738011571237400,2.9322373046875,-0.009082794189453125,0.0025413334369659424,0.003550637513399124
1716738011581237200,2.9422373046875,-0.009083747863769531,0.002568814903497696,0.003584824502468109
1716738011591237400,2.9522373046875,-0.0066890716552734375,0.00018983334302902222,0.0035613328218460083
1716738011601237500,2.962237548828125,-0.009083747863769531,0.00022128596901893616,0.006008997559547424
1716738011611237400,2.9722373046875,-0.006690025329589844,0.0001678280532360077,0.0060406699776649475
1716738011621237500,2.982237548828125,-0.006687164306640625,0.00003453344106674194,0.005607932806015015
1716738011631237400,2.9922373046875,-0.0090789794921875,0.002318795770406723,0.002796005457639694
1716738011641237500,3.002237548828125,-0.011470794677734375,0.0046287477016448975,0.002312753349542618
1716738011651237400,3.0122373046875,-0.01386260986328125,0.004520118236541748,0.004389327019453049
1716738011661237500,3.022237548828125,-0.011467933654785156,0.0044927410781383514,0.0019608698785305023
1716738011671237400,3.0322373046875,-0.011467933654785156,0.004450317472219467,0.0019499212503433228
1716738011681237500,3.042237548828125,-0.011465072631835938,0.001613374799489975,-0.0007301494479179382
1716738011691237400,3.0522373046875,-0.011465072631835938,0.001702629029750824,-0.0006893351674079895
1716738011701237500,3.062237548828125,-0.011466026306152344,0.0017234459519386292,-0.0005936659872531891
1716738011711237400,3.0722373046875,-0.013860702514648438,-0.0006431527435779572,-0.000559639185667038
1716738011721237500,3.082237548828125,-0.01146697998046875,-0.0006348453462123871,0.001872871071100235
1716738011731237400,3.0922373046875,-0.01146697998046875,-0.0005336590111255646,-0.0004225336015224457
1716738011741237500,3.102237548828125,-0.009069442749023438,-0.003244582563638687,-0.0007756799459457397
1716738011751237400,3.1122373046875,-0.009070396423339844,-0.003212973475456238,0.004066083580255508
1716738011761237500,3.122237548828125,-0.009070396423339844,-0.0032049454748630524,0.004104655236005783
1716738011771237400,3.1322373046875,-0.00907135009765625,-0.003177739679813385,-0.0006492920219898224
1716738011781237500,3.142237548828125,-0.00907135009765625,-0.005544580519199371,-0.0030091479420661926
1716738011791237400,3.1522373046875,-0.00907135009765625,-0.005594000220298767,-0.002958308905363083
1716738011801237500,3.162237548828125,-0.016254425048828125,-0.0031724385917186737,-0.0029239654541015625
1716738011811237400,3.1722373046875,-0.023436546325683594,0.0017048157751560211,-0.0028827227652072906
1716738011821237500,3.182237548828125,0.02444934844970703,-0.0013303272426128387,-0.0027848705649375916
1716738011831237400,3.1922373046875,-0.006676673889160156,0.001382935792207718,-0.0003991350531578064
1716738011841237000,3.202237060546875,-0.03061962127685547,0.003748517483472824,0.0021416693925857544
1716738011851236900,3.21223681640625,-0.018648147583007812,0.0038252659142017365,-0.002663280814886093
1716738011861237000,3.222237060546875,0.014870643615722656,0.0037950724363327026,-0.00022240355610847473
1716738011871236900,3.23223681640625,0.0028982162475585938,0.003922272473573685,-0.0025836117565631866
1716738011881237000,3.242237060546875,-0.02104473114013672,0.004066146910190582,-0.004868250340223312
1716738011891236900,3.25223681640625,-0.01865100860595703,0.00409359484910965,-0.00004571676254272461
1716738011901237000,3.262237060546875,0.007686614990234375,0.0010461769998073578,0.0002756379544734955
1716738011911236900,3.27223681640625,0.0005054473876953125,-0.003727283328771591,0.000252407044172287
1716738011921237000,3.282237060546875,-0.025832176208496094,-0.0035189762711524963,-0.0021064206957817078
1716738011931236900,3.29223681640625,-0.0258331298828125,-0.0011165887117385864,-0.002067945897579193
1716738011941236700,3.30223681640625,-0.0018901824951171875,-0.0011398904025554657,-0.002082992345094681
1716738011951236900,3.31223681640625,-0.009072303771972656,-0.0011821947991847992,0.0003000907599925995
1716738011961237000,3.322237060546875,-0.025834083557128906,-0.0010358132421970367,-0.0020652562379837036
1716738011971236900,3.33223681640625,-0.01865100860595703,0.001328345388174057,0.00037551671266555786
1716738011981236700,3.34223681640625,0.0005035400390625,0.0036184750497341156,0.00035777315497398376
1716738011991236900,3.35223681640625,-0.0018911361694335938,-0.0012041889131069183,0.00038515403866767883
1716738012001236700,3.36223681640625,-0.018650054931640625,-0.0011342242360115051,0.00043025240302085876
1716738012011236900,3.37223681640625,-0.016257286071777344,-0.0034459680318832397,0.0005327127873897552
1716738012021236700,3.38223681640625,-0.00189208984375,-0.005805894732475281,0.0028994493186473846
1716738012031236900,3.39223681640625,-0.0042858123779296875,-0.00824931263923645,0.002950146794319153
1716738012041236700,3.40223681640625,-0.01625823974609375,-0.0034336335957050323,0.0053786709904670715
1716738012051236900,3.41223681640625,-0.01625823974609375,-0.005800347775220871,0.0054128579795360565
1716738012061236700,3.42223681640625,-0.0018930435180664062,-0.00551987811923027,0.0003434792160987854
1716738012071236900,3.43223681640625,0.0005016326904296875,-0.005497992038726807,0.0002584904432296753
1716738012081236700,3.44223681640625,-0.013864517211914062,-0.005409013479948044,0.0026937760412693024
1716738012091236900,3.45223681640625,-0.01865386962890625,-0.0024904385209083557,0.002520725131034851
1716738012101236700,3.46223681640625,-0.006683349609375,-0.00013192370533943176,0.0000539533793926239
1716738012111236900,3.47223681640625,-0.006683349609375,-0.0025178194046020508,0.00009226053953170776
1716738012121236700,3.48223681640625,-0.016260147094726562,-0.00014713779091835022,-0.0047109536826610565
1716738012131236900,3.49223681640625,-0.011471748352050781,-0.0001388341188430786,-0.004672639071941376
1716738012141237500,3.502237548828125,-0.006683349609375,-0.002568669617176056,-0.002351038157939911
1716738012151237400,3.5122373046875,-0.0066852569580078125,0.0001902841031551361,0.0002453438937664032
1716738012161237500,3.522237548828125,-0.011474609375,0.00026006996631622314,0.00029063597321510315
1716738012171237400,3.5322373046875,-0.013868331909179688,0.0026885047554969788,0.000263117253780365
1716738012181237200,3.5422373046875,-0.009079933166503906,-0.002087462693452835,0.0003205984830856323
1716738012191237400,3.5522373046875,-0.009079933166503906,-0.002114720642566681,0.0002861879765987396
1716738012201237500,3.562237548828125,-0.01626300811767578,0.00028778985142707825,0.00032450631260871887
1716738012211237400,3.5722373046875,-0.016263961791992188,0.0004382506012916565,0.00037255510687828064
1716738012221237500,3.582237548828125,-0.009080886840820312,0.002789907157421112,-0.002032436430454254
1716738012231237400,3.5922373046875,-0.009079933166503906,0.00047923997044563293,0.0002835690975189209
1716738012241237500,3.602237548828125,-0.016264915466308594,-0.0018299967050552368,0.00030531734228134155
1716738012251237400,3.6122373046875,-0.01626300811767578,-0.004266619682312012,0.00029436126351356506
1716738012261237200,3.6222373046875,-0.009080886840820312,-0.006690911948680878,0.005129363387823105
1716738012271237400,3.6322373046875,-0.006688117980957031,-0.008995983749628067,0.0051703378558158875
1716738012281237200,3.6422373046875,-0.011476516723632812,-0.008987829089164734,0.0028145574033260345
1716738012291237400,3.6522373046875,-0.013872146606445312,-0.008463297039270401,0.00503559410572052
1716738012301237200,3.6622373046875,-0.009083747863769531,-0.0036664679646492004,0.0074679553508758545
1716738012311237400,3.6722373046875,-0.011479377746582031,-0.0007012896239757538,0.002255525439977646
1716738012321237500,3.682237548828125,-0.016266822814941406,0.002080116420984268,-0.0028769411146640778
1716738012331237400,3.6922373046875,-0.016267776489257812,0.0020993463695049286,-0.002881105989217758
1716738012341237500,3.702237548828125,-0.013873100280761719,0.00211440771818161,-0.002904493361711502
1716738012351237400,3.7122373046875,-0.013873100280761719,-0.00024552643299102783,-0.0029319599270820618
1716738012361237500,3.722237548828125,-0.01626873016357422,-0.002438332885503769,-0.002834778279066086
1716738012371237400,3.7322373046875,-0.013875007629394531,-0.00003189966082572937,-0.00038295984268188477
1716738012381237500,3.742237548828125,-0.00908660888671875,-0.00006607174873352051,-0.002749759703874588
1716738012391237400,3.7522373046875,-0.00908660888671875,-0.0024288110435009003,-0.005090504884719849
1716738012401237500,3.762237548828125,-0.009087562561035156,-0.0022887885570526123,-0.00021195784211158752
1716738012411237400,3.7722373046875,-0.01148223876953125,-0.0022805146872997284,-0.0001736953854560852
1716738012421237500,3.782237548828125,-0.009087562561035156,-0.002310454845428467,-0.00012719258666038513
1716738012431237400,3.7922373046875,-0.009087562561035156,-0.0022338591516017914,-0.00014364346861839294
1716738012441237500,3.802237548828125,-0.01148223876953125,-0.0022613592445850372,0.0022164620459079742
1716738012451237400,3.8122373046875,-0.011483192443847656,-0.00457325205206871,0.004713229835033417
1716738012461237500,3.822237548828125,-0.006695747375488281,-0.0021543502807617188,0.0024341903626918793
1716738012471237400,3.8322373046875,-0.0043010711669921875,0.0027231313288211823,0.002475198358297348
1716738012481237500,3.842237548828125,-0.009089469909667969,0.005070626735687256,0.002445172518491745
1716738012491237400,3.8522373046875,-0.01148223876953125,0.0051373690366744995,-0.00038474053144454956
1716738012501237500,3.862237548828125,-0.011479377746582031,0.007191535085439682,-0.0007529184222221375
1716738012511237400,3.8722373046875,-0.011479377746582031,0.007138200104236603,-0.0007213912904262543
1716738012521237500,3.882237548828125,-0.013871192932128906,0.006687596440315247,-0.003159135580062866
1716738012531237400,3.8922373046875,-0.013869285583496094,0.006239861249923706,-0.0006083659827709198
1716738012541237500,3.902237548828125,-0.011475563049316406,0.006197437644004822,-0.0030135177075862885
1716738012551237400,3.9122373046875,-0.0090789794921875,0.005752209573984146,-0.0029376670718193054
1716738012561237500,3.922237548828125,-0.011471748352050781,0.0051870569586753845,-0.0002815611660480499
1716738012571237400,3.9322373046875,-0.013864517211914062,0.0024050213396549225,0.0021762587130069733
1716738012581237500,3.942237548828125,-0.01386260986328125,-0.0004574321210384369,0.0022368021309375763
1716738012591237400,3.9522373046875,-0.013859748840332031,-0.0033639520406723022,0.004580777138471603
1716738012601237500,3.962237548828125,-0.013856887817382812,-0.003701481968164444,0.006526075303554535
1716738012611237400,3.9722373046875,-0.013856887817382812,-0.003642439842224121,0.009007856249809265
1716738012621237200,3.9822373046875,-0.013857841491699219,-0.003672424703836441,0.004265978932380676
1716738012631237400,3.9922373046875,-0.013856887817382812,-0.001331724226474762,0.0066918134689331055
1716738012641237500,4.002237548828125,-0.013856887817382812,-0.0013783946633338928,0.0018734484910964966
1716738012651237400,4.0122373046875,-0.011461257934570312,-0.003697626292705536,-0.0009181760251522064
1716738012661237500,4.022237548828125,-0.011461257934570312,0.0010989569127559662,0.0015145018696784973
1716738012671237400,4.0322373046875,-0.011462211608886719,0.0035780034959316254,-0.0008577965199947357
1716738012681237500,4.042237548828125,-0.01385498046875,0.0035121627151966095,-0.003277834504842758
1716738012691237400,4.0522373046875,-0.0162506103515625,0.0034822486340999603,-0.003231428563594818
1716738012701237200,4.0622373046875,-0.01385498046875,0.003374006599187851,-0.0032683946192264557
1716738012711237400,4.0722373046875,-0.011461257934570312,0.00816386193037033,-0.0031683072447776794
1716738012721237200,4.0822373046875,-0.013855934143066406,0.005777973681688309,-0.000735800713300705
1716738012731237400,4.0922373046875,-0.018644332885742188,0.003404587507247925,-0.0006401240825653076
1716738012741237200,4.1022373046875,-0.013854026794433594,0.002874404191970825,-0.0005861073732376099
1716738012751237400,4.1122373046875,-0.016248703002929688,-0.0019055679440498352,0.0018462389707565308
1716738012761237500,4.122237548828125,-0.016248703002929688,-0.004342194646596909,-0.0005589164793491364
1716738012771237400,4.1322373046875,-0.013854026794433594,-0.004269696772098541,-0.0005944781005382538
1716738012781237500,4.142237548828125,-0.016248703002929688,-0.0018672235310077667,-0.0005562193691730499
1716738012791237400,4.1522373046875,-0.016249656677246094,-0.001783963292837143,0.0017600581049919128
1716738012801237500,4.162237548828125,-0.016248703002929688,0.0006208047270774841,-0.000676225870847702
1716738012811237400,4.1722373046875,-0.016249656677246094,0.0006906576454639435,-0.0006310530006885529
1716738012821237500,4.182237548828125,-0.016249656677246094,0.0007563680410385132,-0.0006049573421478271
1716738012831237400,4.1922373046875,-0.016249656677246094,-0.001629520207643509,0.0018275529146194458
1716738012841237500,4.202237548828125,-0.016249656677246094,-0.006409492343664169,0.0018657036125659943
1716738012851237400,4.2122373046875,-0.016251564025878906,-0.003932982683181763,0.004362467676401138
1716738012861237500,4.222237548828125,-0.0162506103515625,-0.003992043435573578,0.006669189780950546
1716738012871237400,4.2322373046875,-0.0162506103515625,-0.0015826262533664703,0.0042514801025390625
1716738012881237500,4.242237548828125,-0.035404205322265625,-0.0015101619064807892,-0.0005725361406803131
1716738012891237400,4.2522373046875,-0.0018854141235351562,-0.001615270972251892,-0.0004095695912837982
1716738012901237500,4.262237548828125,-0.011461257934570312,-0.003993339836597443,-0.0006136223673820496
1716738012911237400,4.2722373046875,-0.02822113037109375,-0.003991976380348206,-0.0029077455401420593
1716738012921237500,4.282237548828125,-0.021039962768554688,-0.003971230238676071,-0.0004177503287792206
1716738012931237400,4.2922373046875,-0.0018854141235351562,-0.004079554229974747,0.004333898425102234
1716738012941237200,4.3022373046875,-0.006672859191894531,-0.0017444416880607605,0.0066405609250068665
1716738012951237400,4.3122373046875,-0.023431777954101562,-0.004007034003734589,0.004298247396945953
1716738012961237200,4.3222373046875,-0.01864337921142578,-0.00405362993478775,0.0018738694489002228
1716738012971237400,4.3322373046875,-0.00188446044921875,-0.004045434296131134,-0.0004818625748157501
1716738012981237200,4.3422373046875,-0.0042781829833984375,-0.004030339419841766,-0.002899397164583206
1716738012991237400,4.3522373046875,-0.02103900909423828,-0.003957755863666534,-0.0029351748526096344
1716738013001237200,4.3622373046875,-0.023433685302734375,-0.0039370618760585785,-0.0028393492102622986
1716738013011237400,4.3722373046875,-0.006674766540527344,-0.001489289104938507,-0.0028710998594760895
1716738013021237200,4.3822373046875,-0.0066738128662109375,0.0009265653789043427,-0.002955857664346695
1716738013031237400,4.3922373046875,-0.018647193908691406,-0.0010730326175689697,-0.0027999579906463623
1716738013041237200,4.4022373046875,-0.018648147583007812,0.0013290457427501678,-0.002761267125606537
1716738013051237400,4.4122373046875,-0.009073257446289062,0.0016677118837833405,-0.002493143081665039
1716738013061237200,4.4222373046875,-0.011470794677734375,0.0018285028636455536,0.0003679729998111725
1716738013071237400,4.4322373046875,-0.023441314697265625,0.001851700246334076,-0.0020111091434955597
1716738013081237200,4.4422373046875,-0.021047592163085938,0.0018600113689899445,-0.001972801983356476
1716738013091237400,4.4522373046875,-0.011471748352050781,0.0018106400966644287,-0.0019219890236854553
1716738013101237200,4.4622373046875,-0.009076118469238281,0.0016955360770225525,-0.0018970966339111328
1716738013111237400,4.4722373046875,-0.016259193420410156,0.0017106346786022186,0.0004737637937068939
1716738013121237200,4.4822373046875,-0.018651962280273438,0.0040009282529354095,-0.0019383691251277924
1716738013131237400,4.4922373046875,-0.009075164794921875,0.0016216672956943512,-0.001961600035429001
1716738013141237500,4.502237548828125,-0.0066814422607421875,0.0016256943345069885,-0.0019423551857471466
1716738013151237400,4.5122373046875,-0.013864517211914062,-0.0007479265332221985,0.0005478374660015106
1716738013161237500,4.522237548828125,-0.018652915954589844,-0.0030847154557704926,0.000535525381565094
1716738013171237400,4.5322373046875,-0.011470794677734375,-0.0030628256499767303,0.0004505366086959839
1716738013181237200,4.5422373046875,-0.009076118469238281,-0.0030480027198791504,0.0004274621605873108
1716738013191237400,4.5522373046875,-0.013864517211914062,-0.003043707460165024,0.0004464462399482727
1716738013201237200,4.5622373046875,-0.016259193420410156,-0.0030929148197174072,0.0004971399903297424
1716738013211237400,4.5722373046875,-0.009078025817871094,-0.00026722252368927,0.0005446821451187134
1716738013221237200,4.5822373046875,-0.0090789794921875,0.0022036097943782806,0.0005282983183860779
1716738013231237400,4.5922373046875,-0.011474609375,0.002392701804637909,0.0005677416920661926
1716738013241237200,4.6022373046875,-0.013868331909179688,0.004790812730789185,0.0005871430039405823
1716738013251237400,4.6122373046875,-0.011474609375,0.004748545587062836,0.0005760900676250458
1716738013261237200,4.6222373046875,-0.011471748352050781,0.0020104199647903442,0.0004695020616054535
1716738013271237400,4.6322373046875,-0.016260147094726562,0.002021539956331253,0.00042687729001045227
1716738013281237200,4.6422373046875,-0.021048545837402344,0.0020982474088668823,-0.0019839219748973846
1716738013291237400,4.6522373046875,-0.016260147094726562,0.006840098649263382,0.000380147248506546
1716738013301237200,4.6622373046875,-0.013865470886230469,0.006835907697677612,0.00036109983921051025
1716738013311237400,4.6722373046875,-0.016260147094726562,0.004469148814678192,0.0003952309489250183
1716738013321237200,4.6822373046875,-0.016260147094726562,0.0020091012120246887,-0.002024807035923004
1716738013331237400,4.6922373046875,-0.016260147094726562,-0.00041924789547920227,-0.0019975006580352783
1716738013341237200,4.7022373046875,-0.01865386962890625,-0.00046869367361068726,-0.001946479082107544
1716738013351237400,4.7122373046875,-0.021047592163085938,-0.0005154050886631012,-0.0019765011966228485
1716738013361237200,4.7222373046875,-0.021048545837402344,-0.0005069822072982788,-0.0019383467733860016
1716738013371237400,4.7322373046875,-0.016260147094726562,0.004289731383323669,-0.00429423525929451
1716738013381237500,4.742237548828125,-0.013865470886230469,0.001642473042011261,0.0008094422519207001
1716738013391237400,4.7522373046875,-0.013865470886230469,0.0015957653522491455,0.0007794275879859924
1716738013401237500,4.762237548828125,-0.01625823974609375,-0.0012955479323863983,0.0009868964552879333
1716738013411237400,4.7722373046875,-0.013864517211914062,-0.0011615492403507233,-0.0038301795721054077
1716738013421237200,4.7822373046875,-0.011470794677734375,-0.001153118908405304,-0.003792025148868561
1716738013431237400,4.7922373046875,-0.011470794677734375,-0.003545839339494705,-0.0036921128630638123
1716738013441237200,4.8022373046875,-0.013864517211914062,-0.0011857561767101288,-0.0012705586850643158
1716738013451237400,4.8122373046875,-0.013867378234863281,-0.0010591857135295868,-0.0007762014865875244
1716738013461237200,4.8222373046875,-0.013867378234863281,-0.0010482147336006165,-0.0032129213213920593
1716738013471237400,4.8322373046875,-0.013868331909179688,-0.0009302236139774323,-0.0006435848772525787
1716738013481237200,4.8422373046875,-0.013868331909179688,0.0015364773571491241,0.001715056598186493
1716738013491237400,4.8522373046875,-0.011474609375,-0.0009042732417583466,0.0016849227249622345
1716738013501237200,4.8622373046875,-0.011474609375,-0.003471028059720993,0.0041161999106407166
1716738013511237400,4.8722373046875,-0.013868331909179688,-0.0034434348344802856,0.006544418632984161
1716738013521237200,4.8822373046875,-0.011473655700683594,-0.0035542957484722137,0.006588328629732132
1716738013531237400,4.8922373046875,-0.011474609375,-0.0056036002933979034,0.003838963806629181
1716738013541237200,4.9022373046875,-0.011474609375,-0.005588449537754059,0.0014213845133781433
1716738013551237400,4.9122373046875,-0.01626300811767578,-0.003190111368894577,0.0038346759974956512
1716738013561237200,4.9222373046875,-0.01865673065185547,-0.0028794296085834503,0.0011127367615699768
1716738013571237400,4.9322373046875,-0.016262054443359375,-0.0004702471196651459,0.0034837573766708374
1716738013581237200,4.9422373046875,-0.013868331909179688,-0.0005236230790615082,0.005909431725740433
1716738013591237400,4.9522373046875,-0.013867378234863281,-0.0005086436867713928,0.0034920498728752136
1716738013601237500,4.962237548828125,-0.013868331909179688,-0.0028944239020347595,0.003530208021402359
1716738013611237400,4.9722373046875,-0.011474609375,-0.002947915345430374,0.0035618357360363007
1716738013621237500,4.982237548828125,-0.011474609375,-0.002994585782289505,0.003531869500875473
1716738013631237400,4.9922373046875,-0.011473655700683594,-0.003041241317987442,0.0035018175840377808
1716738013641237500,5.002237548828125,-0.013868331909179688,-0.0029712803661823273,0.0035469159483909607
1716738013651237400,5.0122373046875,-0.013867378234863281,-0.00267048180103302,-0.0017074644565582275
1716738013661237500,5.022237548828125,-0.013867378234863281,-0.004992179572582245,0.0006511658430099487
1716738013671237400,5.0322373046875,-0.016262054443359375,-0.004596427083015442,-0.0020490922033786774
1716738013681237500,5.042237548828125,-0.01626300811767578,-0.0021872855722904205,-0.0020723193883895874
1716738013691237400,5.0522373046875,-0.013868331909179688,-0.002185884863138199,-0.001972205936908722
1716738013701237500,5.062237548828125,-0.013868331909179688,-0.002171061933040619,-0.0019952766597270966
1716738013711237400,5.0722373046875,-0.011476516723632812,-0.0016778483986854553,-0.0019410625100135803
1716738013721237500,5.082237548828125,-0.011477470397949219,0.0031831078231334686,0.0004175342619419098
1716738013731237400,5.0922373046875,-0.011478424072265625,0.0009270310401916504,0.00040803104639053345
1716738013741237500,5.102237548828125,-0.009082794189453125,0.0008738040924072266,0.0028336085379123688
1716738013751237400,5.1122373046875,-0.011478424072265625,0.0008819624781608582,0.0052662193775177
1716738013761237500,5.122237548828125,-0.011477470397949219,0.0008230246603488922,0.007572777569293976
1716738013771237400,5.1322373046875,-0.009082794189453125,0.000850386917591095,0.005212914198637009
1716738013781237200,5.1422373046875,-0.011477470397949219,0.003197997808456421,0.000394333153963089
1716738013791237400,5.1522373046875,-0.011477470397949219,0.003206305205821991,-0.0043557509779930115
1716738013801237200,5.1622373046875,-0.009081840515136719,0.005541566759347916,-0.0020491965115070343
1716738013811237400,5.1722373046875,-0.011477470397949219,0.007944080978631973,0.0003833174705505371
1716738013821237200,5.1822373046875,-0.0641489028930664,0.005445815622806549,-0.004422914236783981
1716738013831237400,5.1922373046875,-0.011473655700683594,0.004922583699226379,0.002751961350440979
1716738013841237200,5.2022373046875,0.00768280029296875,-0.0003962405025959015,0.002525217831134796
1716738013851237400,5.2122373046875,-0.030625343322753906,-0.002588968724012375,0.00022798404097557068
1716738013861237200,5.2222373046875,-0.030625343322753906,-0.002642422914505005,0.00025966763496398926
1716738013871237400,5.2322373046875,0.000499725341796875,-0.0003071613609790802,0.0001720227301120758
1716738013881237500,5.242237548828125,0.0005006790161132812,0.004377014935016632,0.0025485940277576447
1716738013891237400,5.2522373046875,-0.028229713439941406,0.004442684352397919,0.00018041953444480896
1716738013901237200,5.2622373046875,-0.03541088104248047,0.006473828107118607,-0.0023161880671977997
1716738013911237400,5.2722373046875,-0.00907135009765625,0.00829552486538887,-0.002273187041282654
1716738013921237200,5.2822373046875,0.0005054473876953125,0.01058538630604744,-0.0022906549274921417
1716738013931237400,5.2922373046875,-0.023436546325683594,0.005794491618871689,0.004972565919160843
1716738013941237200,5.3022373046875,-0.03062152862548828,0.0059317536652088165,0.0027493946254253387
1716738013951237400,5.3122373046875,-0.011464118957519531,0.005292002111673355,0.00027222931385040283
1716738013961237200,5.3222373046875,-0.0018863677978515625,0.0027935728430747986,0.0002546049654483795
1716738013971237400,5.3322373046875,-0.01864337921142578,0.002387918531894684,0.00014143437147140503
1716738013981237200,5.3422373046875,-0.028217315673828125,-0.0028511621057987213,0.00009801611304283142
1716738013991237400,5.3522373046875,-0.0114593505859375,0.0019386112689971924,-0.0021961070597171783
1716738014001237200,5.3622373046875,-0.004275321960449219,-0.0030153989791870117,-0.002220805734395981
1716738014011237400,5.3722373046875,-0.018640518188476562,-0.0005513578653335571,-0.004569746553897858
1716738014021237200,5.3822373046875,-0.025823593139648438,0.0019097104668617249,-0.007118728011846542
1716738014031237400,5.3922373046875,-0.011458396911621094,0.001647207885980606,-0.004266779869794846
1716738014041237200,5.4022373046875,-0.004276275634765625,-0.0008006095886230469,-0.0018407739698886871
1716738014051237400,5.4122373046875,-0.016246795654296875,-0.003253694623708725,-0.0019284561276435852
1716738014061237200,5.4222373046875,-0.023428916931152344,-0.005571190267801285,-0.00194505974650383
1716738014071237400,5.4322373046875,-0.013852119445800781,-0.0055627599358558655,0.00048727914690971375
1716738014081237200,5.4422373046875,-0.006672859191894531,-0.0028600916266441345,0.0031963661313056946
1716738014091237400,5.4522373046875,-0.016249656677246094,-0.000519387423992157,0.005622204393148422
1716738014101237200,5.4622373046875,-0.02582836151123047,-0.00012483075261116028,0.0031027495861053467
1716738014111237400,5.4722373046875,-0.018645286560058594,-0.00017165392637252808,0.005467098206281662
1716738014121237200,5.4822373046875,-0.011462211608886719,-0.00021832436323165894,0.007831338793039322
1716738014131237400,5.4922373046875,-0.016251564025878906,-0.0001485198736190796,0.007876545190811157
1716738014141237500,5.502237548828125,-0.021039962768554688,0.0023183003067970276,0.00544661283493042
1716738014151237400,5.5122373046875,-0.013856887817382812,0.004720710217952728,0.005485005676746368
1716738014161237500,5.522237548828125,-0.006674766540527344,0.0022224336862564087,0.005467258393764496
1716738014171237400,5.5322373046875,-0.013855934143066406,-0.002619311213493347,0.005498781800270081
1716738014181237200,5.5422373046875,-0.02103900909423828,-0.0026108846068382263,0.0031427331268787384
1716738014191237400,5.5522373046875,-0.016249656677246094,-0.002530571073293686,0.0001895129680633545
1716738014201237200,5.5622373046875,-0.013852119445800781,-0.0001135803759098053,-0.00035711750388145447
1716738014211237400,5.5722373046875,-0.018640518188476562,-0.00014762580394744873,0.0020643137395381927
1716738014221237200,5.5822373046875,-0.021035194396972656,-0.00248853862285614,0.004427030682563782
1716738014231237400,5.5922373046875,-0.018640518188476562,-0.0001367628574371338,0.0020218752324581146
1716738014241237200,5.6022373046875,-0.011458396911621094,-0.002584252506494522,0.004447560757398605
1716738014251237400,5.6122373046875,-0.018640518188476562,-0.004906114190816879,0.002017911523580551
1716738014261237200,5.6222373046875,-0.023427963256835938,-0.00494857132434845,0.004401106387376785
1716738014271237400,5.6322373046875,-0.018639564514160156,-0.0026010386645793915,0.006765346974134445
1716738014281237200,5.6422373046875,-0.013851165771484375,-0.0026478730142116547,0.0019470974802970886
1716738014291237400,5.6522373046875,-0.018639564514160156,-0.002632778137922287,0.004317954182624817
1716738014301237200,5.6622373046875,-0.023427963256835938,-0.0025737695395946503,0.0044054798781871796
1716738014311237400,5.6722373046875,-0.021035194396972656,-0.0025654584169387817,0.004443783313035965
1716738014321237200,5.6822373046875,-0.01863861083984375,-0.002356249839067459,-0.0007708892226219177
1716738014331237400,5.6922373046875,-0.018639564514160156,-0.002290520817041397,-0.0007448866963386536
1716738014341237200,5.7022373046875,-0.021035194396972656,-0.004546206444501877,-0.000754818320274353
1716738014351237400,5.7122373046875,-0.018640518188476562,-0.006936345249414444,-0.0007355175912380219
1716738014361237200,5.7222373046875,-0.013853073120117188,-0.004472061991691589,-0.0006905831396579742
1716738014371237400,5.7322373046875,-0.016246795654296875,-0.0069128163158893585,0.0016734898090362549
1716738014381237500,5.742237548828125,-0.016246795654296875,-0.0068908073008060455,0.0015883371233940125
1716738014391237400,5.7522373046875,-0.013854026794433594,-0.006430588662624359,-0.0009049884974956512
1716738014401237500,5.762237548828125,-0.013854026794433594,-0.0040664635598659515,-0.0032526738941669464
1716738014411237400,5.7722373046875,-0.01385498046875,-0.0016134940087795258,-0.0031648240983486176
1716738014421237500,5.782237548828125,-0.016251564025878906,-0.0011776462197303772,-0.0030983351171016693
1716738014431237400,5.7922373046875,-0.013856887817382812,0.001231703907251358,-0.003121711313724518
1716738014441237200,5.8022373046875,-0.016254425048828125,0.0016811303794384003,-0.0005032271146774292
1716738014451237400,5.8122373046875,-0.016254425048828125,0.003951966762542725,0.0018775202333927155
1716738014461237200,5.8222373046875,-0.018647193908691406,0.0015685707330703735,0.001835118979215622
1716738014471237400,5.8322373046875,-0.018648147583007812,0.0015836693346500397,0.004205979406833649
1716738014481237200,5.8422373046875,-0.01625347137451172,0.0015412457287311554,0.004195023328065872
1716738014491237400,5.8522373046875,-0.016252517700195312,-0.0009611509740352631,-0.0006302893161773682
1716738014501237200,5.8622373046875,-0.016252517700195312,-0.0009460896253585815,0.0017405226826667786
1716738014511237400,5.8722373046875,-0.016252517700195312,-0.0033936351537704468,0.0017720460891723633
1716738014521237200,5.8822373046875,-0.016252517700195312,-0.003440011292695999,0.004135921597480774
1716738014531237400,5.8922373046875,-0.018645286560058594,0.00135098397731781,0.0016610249876976013
1716738014541237200,5.9022373046875,-0.018646240234375,0.0014209374785423279,0.0017061233520507812
1716738014551237400,5.9122373046875,-0.016252517700195312,0.0013866163790225983,-0.0006605759263038635
1716738014561237500,5.922237548828125,-0.013857841491699219,0.003715094178915024,0.0017076246440410614
1716738014571237400,5.9322373046875,-0.013857841491699219,0.0014097467064857483,0.004143070429563522
1716738014581237500,5.942237548828125,-0.01625347137451172,0.0014181770384311676,0.004181221127510071
1716738014591237400,5.9522373046875,-0.018646240234375,-0.0009609274566173553,0.004157882183790207
1716738014601237500,5.962237548828125,-0.018646240234375,-0.000958368182182312,0.004077129065990448
1716738014611237400,5.9722373046875,-0.01864337921142578,0.0037801042199134827,0.0011720992624759674
1716738014621237200,5.9822373046875,-0.01864337921142578,0.003726694732904434,0.0012037493288516998
1716738014631237400,5.9922373046875,-0.021038055419921875,0.003741797059774399,0.001180410385131836
1716738014641237500,6.002237548828125,-0.021038055419921875,0.003756735473871231,0.0011571794748306274
1716738014651237400,6.0122373046875,-0.01864337921142578,0.0012517943978309631,0.003595128655433655
1716738014661237500,6.022237548828125,-0.01864337921142578,0.0012668892741203308,0.0011775866150856018
1716738014671237400,6.0322373046875,-0.018642425537109375,-0.0011356696486473083,0.0011393167078495026
1716738014681237500,6.042237548828125,-0.01864337921142578,-0.005834944546222687,0.003574483096599579
1716738014691237400,6.0522373046875,-0.01864337921142578,-0.005769111216068268,0.0012062080204486847
1716738014701237500,6.062237548828125,-0.021039962768554688,-0.005699310451745987,-0.001142788678407669
1716738014711237400,6.0722373046875,-0.018645286560058594,-0.003296799957752228,-0.0011044777929782867
1716738014721237500,6.082237548828125,-0.018645286560058594,-0.0032310746610164642,-0.0010784752666950226
1716738014731237400,6.0922373046875,-0.021040916442871094,-0.003148730844259262,-0.0009758546948432922
1716738014741237500,6.102237548828125,-0.018646240234375,-0.003133632242679596,-0.0033933892846107483
1716738014751237400,6.1122373046875,-0.021040916442871094,-0.0031253211200237274,-0.0033550821244716644
1716738014761237500,6.122237548828125,-0.018646240234375,-0.0031788237392902374,-0.003323446959257126
1716738014771237400,6.1322373046875,-0.018647193908691406,-0.0007063969969749451,-0.0056342072784900665
1716738014781237500,6.142237548828125,-0.016254425048828125,-0.0030377097427845,-0.003132980316877365
1716738014791237400,6.1522373046875,-0.016254425048828125,-0.0030293986201286316,-0.00548887625336647
1716738014801237500,6.162237548828125,-0.0473785400390625,-0.003063604235649109,-0.0030673332512378693
1716738014811237400,6.1722373046875,-0.013858795166015625,-0.0007352493703365326,-0.005487371236085892
1716738014821237500,6.182237548828125,-0.009069442749023438,-0.003344263881444931,-0.00785556435585022
1716738014831237400,6.1922373046875,-0.035408973693847656,-0.003010794520378113,-0.005031760782003403
1716738014841237500,6.202237548828125,-0.03540992736816406,-0.005396842956542969,-0.0049933381378650665
1716738014851237400,6.2122373046875,-0.011470794677734375,-0.005030620843172073,0.0000972449779510498
1716738014861237200,6.2222373046875,-0.0066852569580078125,-0.004728686064481735,0.00047351792454719543
1716738014871237400,6.2322373046875,-0.025838851928710938,-0.004732798784971237,0.00524265319108963
1716738014881237200,6.2422373046875,-0.035416603088378906,-0.004586257040500641,0.005271397531032562
1716738014891237400,6.2522373046875,-0.01865863800048828,-0.004167083650827408,0.0028671175241470337
1716738014901237200,6.2622373046875,-0.0042934417724609375,-0.004102721810340881,0.00039884448051452637
1716738014911237400,6.2722373046875,-0.018662452697753906,-0.0033876411616802216,0.002759438008069992
1716738014921237500,6.282237548828125,-0.03063488006591797,-0.005592871457338333,0.005193248391151428
1716738014931237400,6.2922373046875,-0.016269683837890625,-0.0033095963299274445,0.0028430745005607605
1716738014941237200,6.3022373046875,-0.009085655212402344,-0.0033493973314762115,0.0003570467233657837
1716738014951237400,6.3122373046875,-0.0186614990234375,-0.0032766610383987427,0.0027153752744197845
1716738014961237200,6.3222373046875,-0.03063488006591797,-0.00519305095076561,0.0025122947990894318
1716738014971237400,6.3322373046875,-0.021059036254882812,0.0020661428570747375,0.00010164082050323486
1716738014981237200,6.3422373046875,-0.013875007629394531,0.0020195916295051575,0.00007151439785957336
1716738014991237400,6.3522373046875,-0.023451805114746094,0.0020155124366283417,0.0000523105263710022
1716738015001237200,6.3622373046875,-0.028240203857421875,0.002100244164466858,0.0024685636162757874
1716738015011237400,6.3722373046875,-0.016269683837890625,0.002157539129257202,0.0048505999147892
1716738015021237200,6.3822373046875,-0.009087562561035156,-0.0002708323299884796,0.00487799197435379
1716738015031237400,6.3922373046875,-0.01627063751220703,-0.0026018433272838593,0.004984665662050247
1716738015041237200,6.4022373046875,-0.0234527587890625,-0.0002487190067768097,0.0026796571910381317
1716738015051237400,6.4122373046875,-0.018663406372070312,0.002199966460466385,-0.002602122724056244
1716738015061237200,6.4222373046875,-0.011481285095214844,0.0021658018231391907,-0.0001805238425731659
1716738015071237400,6.4322373046875,-0.021058082580566406,0.004568275064229965,-0.00014226511120796204
1716738015081237200,6.4422373046875,-0.028240203857421875,0.002188894897699356,0.0022288598120212555
1716738015091237400,6.4522373046875,-0.021058082580566406,0.0021970830857753754,-0.0001268833875656128
1716738015101237200,6.4622373046875,-0.016269683837890625,-0.00013129040598869324,-0.0024951472878456116
1716738015111237400,6.4722373046875,-0.021059036254882812,-0.00017228350043296814,-0.000011954456567764282
1716738015121237200,6.4822373046875,-0.025847434997558594,-0.00016419589519500732,0.002420775592327118
1716738015131237400,6.4922373046875,-0.021059036254882812,-0.00015588849782943726,0.004853293299674988
1716738015141237500,6.502237548828125,-0.01866436004638672,-0.004935987293720245,0.002497401088476181
1716738015151237400,6.5122373046875,-0.023453712463378906,-0.00730949267745018,0.0025932416319847107
1716738015161237500,6.522237548828125,-0.025848388671875,-0.0048494599759578705,0.00022496655583381653
1716738015171237400,6.5322373046875,-0.025848388671875,-0.002167757600545883,-0.00011796131730079651
1716738015181237500,6.542237548828125,-0.01866626739501953,0.00061807781457901,-0.0028373710811138153
1716738015191237400,6.5522373046875,-0.02105998992919922,0.0029778331518173218,-0.0052039362490177155
1716738015201237500,6.562237548828125,-0.023453712463378906,0.002985987812280655,-0.002771317958831787
1716738015211237400,6.5722373046875,-0.021060943603515625,0.0030011385679244995,-0.0004004836082458496
1716738015221237200,6.5822373046875,-0.016271591186523438,0.00539804995059967,-0.002875540405511856
1716738015231237400,6.5922373046875,-0.021059036254882812,0.0029505081474781036,-0.0028440169990062714
1716738015241237200,6.6022373046875,-0.02105998992919922,0.0049382224678993225,-0.00010156258940696716
1716738015251237400,6.6122373046875,-0.01627063751220703,0.004891552031040192,0.002262670546770096
1716738015261237200,6.6222373046875,-0.013875007629394531,0.006825748831033707,0.0023615658283233643
1716738015271237400,6.6322373046875,-0.018660545349121094,0.003961823880672455,0.004716303199529648
1716738015281237500,6.642237548828125,-0.021053314208984375,0.003524579107761383,0.004549678415060043
1716738015291237400,6.6522373046875,-0.021053314208984375,0.0011261813342571259,0.004530623555183411
1716738015301237500,6.662237548828125,-0.018657684326171875,0.0010920166969299316,0.0021638236939907074
1716738015311237400,6.6722373046875,-0.018657684326171875,0.0011002905666828156,0.0022020824253559113
1716738015321237500,6.682237548828125,-0.021053314208984375,0.0011084750294685364,-0.0025478526949882507
1716738015331237400,6.6922373046875,-0.016264915466308594,0.0011126548051834106,-0.002528708428144455
1716738015341237200,6.7022373046875,-0.011476516723632812,-0.001324199140071869,-0.0025394372642040253
1716738015351237400,6.7122373046875,-0.0138702392578125,0.001129012554883957,-0.0024519115686416626
1716738015361237200,6.7222373046875,-0.016265869140625,0.001218300312757492,-0.004805244505405426
1716738015371237400,6.7322373046875,-0.013871192932128906,-0.0012294016778469086,0.0024089887738227844
1716738015381237500,6.742237548828125,-0.011476516723632812,0.001167241483926773,0.0023283883929252625
1716738015391237400,6.7522373046875,-0.016265869140625,0.0012522488832473755,0.0023501887917518616
1716738015401237000,6.762237060546875,-0.018660545349121094,0.0013223253190517426,9.350478649139404e-7
1716738015411237000,6.772237060546875,-0.016265869140625,0.0012139640748500824,-0.0024300813674926758
1716738015421237000,6.782237060546875,-0.016265869140625,0.0012715347111225128,-0.004836700856685638
1716738015431236900,6.79223681640625,-0.016264915466308594,-0.0011693388223648071,-0.007260873913764954
1716738015441237000,6.802237060546875,-0.01865863800048828,0.0012398622930049896,-0.004889935255050659
1716738015451236900,6.81223681640625,-0.018659591674804688,0.00603669136762619,-0.004851777106523514
1716738015461237000,6.822237060546875,-0.016265869140625,0.003650795668363571,-0.0048134662210941315
1716738015471236900,6.83223681640625,-0.016266822814941406,0.003735799342393875,-0.007185865193605423
1716738015481237000,6.842237060546875,-0.018660545349121094,0.00134987011551857,-0.007147602736949921
1716738015491236900,6.85223681640625,-0.018660545349121094,0.0012965276837348938,-0.004721876233816147
1716738015501237000,6.862237060546875,-0.021055221557617188,-0.0037365593016147614,-0.009156811982393265
1716738015511236900,6.87223681640625,-0.018660545349121094,-0.0060540176928043365,-0.011567562818527222
1716738015521237000,6.882237060546875,-0.016267776489257812,-0.005988188087940216,-0.011541634798049927
1716738015531236900,6.89223681640625,-0.016267776489257812,-0.008312705904245377,-0.006707869470119476
1716738015541237000,6.902237060546875,-0.013875961303710938,-0.0033787228167057037,-0.006217539310455322
1716738015551236900,6.91223681640625,-0.01627349853515625,-0.005608167499303818,-0.0033371374011039734
1716738015561237000,6.922237060546875,-0.018671035766601562,-0.007780011743307114,-0.0004690997302532196
1716738015571236900,6.93223681640625,-0.01867389678955078,-0.005014382302761078,-0.000047326087951660156
1716738015581237000,6.942237060546875,-0.016283035278320312,-0.004663363099098206,-0.002115938812494278
1716738015591236900,6.95223681640625,-0.016287803649902344,-0.0017591305077075958,-0.004098348319530487
1716738015601237000,6.962237060546875,-0.01868438720703125,0.00344756618142128,0.001141667366027832
1716738015611236900,6.97223681640625,-0.01868438720703125,0.0034625157713890076,0.0011184290051460266
1716738015621237000,6.982237060546875,-0.021079063415527344,0.00107661634683609,0.0011567436158657074
1716738015631236900,6.99223681640625,-0.01868438720703125,0.0010301731526851654,0.0011264719069004059
1716738015641237000,7.002237060546875,-0.016290664672851562,0.0011616349220275879,0.0011784620583057404
1716738015651236900,7.01223681640625,-0.01629161834716797,0.0011082850396633148,0.0012099891901016235
1716738015661237000,7.022237060546875,-0.01629161834716797,0.0012549348175525665,-0.0011556223034858704
1716738015671236900,7.03223681640625,-0.018685340881347656,0.001137278974056244,-0.0010500624775886536
1716738015681237000,7.042237060546875,-0.01629161834716797,0.003597322851419449,0.0013699941337108612
1716738015691236900,7.05223681640625,-0.018683433532714844,0.0006866678595542908,0.0013005994260311127
1716738015701237200,7.0622373046875,-0.01628875732421875,0.00057167187333107,0.0013253353536128998
1716738015711237400,7.0722373046875,-0.018682479858398438,0.0005799718201160431,0.001363646239042282
1716738015721237200,7.0822373046875,-0.01628875732421875,0.000545799732208252,0.0013910457491874695
1716738015731237400,7.0922373046875,-0.013894081115722656,0.0004909560084342957,0.00371672585606575
1716738015741237200,7.1022373046875,-0.013894081115722656,0.0028441958129405975,0.0038057751953601837
1716738015751237400,7.1122373046875,-0.01628875732421875,-0.0019907616078853607,0.006169848144054413
1716738015761237200,7.1222373046875,-0.01628875732421875,0.00039947032928466797,0.006150495260953903
1716738015771237400,7.1322373046875,-0.01628875732421875,0.00048457086086273193,0.006172150373458862
1716738015781237200,7.1422373046875,-0.013894081115722656,-0.0020204931497573853,0.0038218535482883453
1716738015791237400,7.1522373046875,-0.013894081115722656,0.0027829110622406006,0.006192784756422043
1716738015801237200,7.1622373046875,-0.013894081115722656,0.0028488412499427795,0.0038243643939495087
1716738015811237400,7.1722373046875,-0.06177806854248047,0.002806302160024643,0.006207767874002457
1716738015821237200,7.1822373046875,-0.006710052490234375,0.00741230696439743,0.010613977909088135
1716738015831237400,7.1922373046875,-0.00910186767578125,0.004846643656492233,0.010470371693372726
1716738015841237200,7.2022373046875,-0.037833213806152344,0.00504230335354805,0.008054278790950775
1716738015851237400,7.2122373046875,-0.03304100036621094,0.0022819936275482178,0.007470943033695221
1716738015861237200,7.2222373046875,-0.0019121170043945312,-0.0005113743245601654,0.00433996319770813
1716738015871237400,7.2322373046875,-0.0019083023071289062,-0.0007969066500663757,0.006153646856546402
1716738015881237200,7.2422373046875,-0.030635833740234375,-0.0008632801473140717,0.005566161125898361
1716738015891237400,7.2522373046875,-0.035424232482910156,0.0015967488288879395,0.0031978972256183624
1716738015901237200,7.2622373046875,-0.009084701538085938,0.0037811361253261566,0.0003872774541378021
1716738015911237400,7.2722373046875,0.00049591064453125,0.003520052880048752,-0.0003589801490306854
1716738015921237200,7.2822373046875,-0.021053314208984375,0.0013149827718734741,-0.0027136653661727905
1716738015931237400,7.2922373046875,-0.030631065368652344,0.0038365088403224945,-0.0002866387367248535
1716738015941237200,7.3022373046875,-0.009081840515136719,0.006188288331031799,-0.00029759109020233154
1716738015951237400,7.3122373046875,-0.0042934417724609375,0.0035791434347629547,-0.0002714283764362335
1716738015961237200,7.3222373046875,-0.023447036743164062,-0.0011435821652412415,-0.00024539604783058167
1716738015971237400,7.3322373046875,-0.030631065368652344,-0.0010230131447315216,-0.0025450699031352997
1716738015981237200,7.3422373046875,-0.0138702392578125,-0.0011337623000144958,-0.004895523190498352
1716738015991237400,7.3522373046875,-0.009081840515136719,-0.0012311972677707672,-0.007369019091129303
1716738016001237200,7.3622373046875,-0.023447036743164062,0.0012287162244319916,-0.004948727786540985
1716738016011237400,7.3722373046875,-0.030631065368652344,0.0013563111424446106,-0.002521958202123642
1716738016021237200,7.3822373046875,-0.016266822814941406,0.0013646222651004791,-0.0024836398661136627
1716738016031237400,7.3922373046875,-0.011476516723632812,0.0036000050604343414,-0.0025699809193611145
1716738016041237200,7.4022373046875,-0.021053314208984375,0.00122075155377388,-0.00019901618361473083
1716738016051237400,7.4122373046875,-0.02823638916015625,-0.0009843260049819946,0.004628900438547134
1716738016061237200,7.4222373046875,-0.016264915466308594,0.0033701807260513306,0.0049429722130298615
1716738016071237400,7.4322373046875,-0.009081840515136719,0.0033168941736221313,0.002580258995294571
1716738016081237200,7.4422373046875,-0.013871192932128906,0.005719367414712906,0.0026185214519500732
1716738016091237400,7.4522373046875,-0.021055221557617188,0.003452647477388382,0.0002570413053035736
1716738016101237200,7.4622373046875,-0.009083747863769531,0.0035415031015872955,0.0002982690930366516
1716738016111237400,7.4722373046875,-0.004291534423828125,0.0030234381556510925,0.00012897327542304993
1716738016121237200,7.4822373046875,-0.013866424560546875,0.004965268075466156,-0.002408355474472046
1716738016131237400,7.4922373046875,-0.018654823303222656,0.0050501152873039246,0.000007752329111099243
1716738016141237500,7.502237548828125,-0.013867378234863281,0.002664215862751007,-0.002348136156797409
1716738016151237400,7.5122373046875,-0.013867378234863281,0.002672523260116577,-0.007098231464624405
1716738016161237500,7.522237548828125,-0.02104949951171875,0.0026753582060337067,-0.004785042256116867
1716738016171237400,7.5322373046875,-0.023444175720214844,-0.0021469667553901672,-0.004757959395647049
1716738016181237200,7.5422373046875,-0.018654823303222656,-0.0022126436233520508,-0.00238979235291481
1716738016191237400,7.5522373046875,-0.01626110076904297,-0.00219770148396492,-0.002413026988506317
1716738016201237200,7.5622373046875,-0.02104949951171875,0.0002238638699054718,-0.0023786835372447968
1716738016211237400,7.5722373046875,-0.023444175720214844,0.00034454837441444397,0.00010988488793373108
1716738016221237200,7.5822373046875,-0.021050453186035156,0.0003665611147880554,0.000024750828742980957
1716738016231237400,7.5922373046875,-0.016262054443359375,0.0002554170787334442,0.004857312887907028
1716738016241237500,7.602237548828125,-0.021050453186035156,0.00020219385623931885,0.002494480460882187
1716738016251237400,7.6122373046875,-0.021050453186035156,0.00015564635396003723,0.0000701509416103363
1716738016261237200,7.6222373046875,-0.01626110076904297,0.0024963468313217163,-0.002292424440383911
1716738016271237400,7.6322373046875,-0.011472702026367188,0.00011045858263969421,0.0025342926383018494
1716738016281237200,7.6422373046875,-0.013867378234863281,0.00006113201379776001,0.00258505716919899
1716738016291237400,7.6522373046875,-0.02104949951171875,0.00007222592830657959,0.004936587065458298
1716738016301237200,7.6622373046875,-0.018654823303222656,0.00003659352660179138,0.0048639774322509766
1716738016311237400,7.6722373046875,-0.011471748352050781,0.0024458877742290497,0.00484064593911171
1716738016321237200,7.6822373046875,-0.011472702026367188,0.0024433955550193787,0.0025270767509937286
1716738016331237400,7.6922373046875,-0.013863563537597656,-0.00013063102960586548,0.00685260072350502
1716738016341237200,7.7022373046875,-0.011470794677734375,0.0023976825177669525,0.006823781877756119
1716738016351237400,7.7122373046875,-0.009076118469238281,-0.0024400539696216583,0.004480432718992233
1716738016361237200,7.7222373046875,-0.013864517211914062,0.0023567713797092438,0.0021243877708911896
1716738016371237400,7.7322373046875,-0.016259193420410156,-0.00007174909114837646,0.002151884138584137
1716738016381237500,7.742237548828125,-0.013864517211914062,-0.00013199076056480408,0.00224512442946434
1716738016391237400,7.7522373046875,-0.011467933654785156,-0.0002460367977619171,0.00180821493268013
1716738016401237500,7.762237548828125,-0.01146697998046875,-0.00022865831851959229,0.003817599266767502
1716738016411237400,7.7722373046875,-0.016254425048828125,0.0021188296377658844,0.0037875771522521973
1716738016421237200,7.7822373046875,-0.013859748840332031,0.002069614827632904,0.006232473999261856
1716738016431237400,7.7922373046875,-0.011466026306152344,-0.0003712885081768036,0.0038082487881183624
1716738016441237200,7.8022373046875,-0.013856887817382812,-0.002779390662908554,0.0009755678474903107
1716738016451237400,7.8122373046875,-0.016252517700195312,-0.0003070123493671417,0.0010589659214019775
1716738016461237200,7.8222373046875,-0.01625347137451172,-0.0002986490726470947,-0.0012969598174095154
1716738016471237400,7.8322373046875,-0.013857841491699219,-0.0028038695454597473,-0.0012529492378234863
1716738016481237200,7.8422373046875,-0.011464118957519531,-0.0028507038950920105,-0.001282811164855957
1716738016491237400,7.8522373046875,-0.013857841491699219,-0.0029108375310897827,-0.0035838447511196136
1716738016501237200,7.8622373046875,-0.013857841491699219,-0.0053352005779743195,-0.0011429116129875183
1716738016511237400,7.8722373046875,-0.013857841491699219,-0.007782626897096634,-0.001111552119255066
1716738016521237200,7.8822373046875,-0.013859748840332031,-0.0025173574686050415,-0.0035283081233501434
1716738016531237400,7.8922373046875,-0.016254425048828125,-0.002563904970884323,-0.005952637642621994
1716738016541237200,7.9022373046875,-0.013860702514648438,-0.0024817287921905518,-0.005849909037351608
1716738016551237400,7.9122373046875,-0.01146697998046875,-0.002466857433319092,-0.0034788139164447784
1716738016561237200,7.9222373046875,-0.01146697998046875,-0.0024585463106632233,-0.005834702402353287
1716738016571237400,7.9322373046875,-0.01625537872314453,-0.002454526722431183,-0.005815453827381134
1716738016581237200,7.9422373046875,-0.013864517211914062,0.0002429075539112091,-0.002944864332675934
1716738016591237400,7.9522373046875,-0.013864517211914062,0.0026454180479049683,-0.0029065534472465515
1716738016601237200,7.9622373046875,-0.013867378234863281,0.00042844563722610474,-0.0023629777133464813
1716738016611237400,7.9722373046875,-0.011473655700683594,0.0004435442388057709,0.000007886439561843872
1716738016621237200,7.9822373046875,-0.009079933166503906,0.0005134977400302887,0.000052988529205322266
1716738016631237400,7.9922373046875,-0.0090789794921875,-0.0019342005252838135,0.00008461624383926392
1716738016641237500,8.002237548828125,-0.009079933166503906,-0.0018614642322063446,-0.002345457673072815
1716738016651237400,8.0122373046875,-0.0090789794921875,-0.004309002310037613,0.00008026137948036194
1716738016661237500,8.022237548828125,-0.009079933166503906,-0.004293907433748245,-0.0023372694849967957
1716738016671237400,8.0322373046875,-0.0090789794921875,-0.0019464120268821716,-0.0023672953248023987
1716738016681237200,8.0422373046875,-0.013871192932128906,-0.0015405192971229553,-0.0019731931388378143
1716738016691237400,8.0522373046875,-0.013871192932128906,0.0008069723844528198,0.00039098411798477173
1716738016701237200,8.0622373046875,-0.013872146606445312,-0.0015857815742492676,0.0004910677671432495
1716738016711237400,8.0722373046875,-0.011477470397949219,-0.0015708357095718384,-0.0019263625144958496
1716738016721237200,8.0822373046875,-0.011478424072265625,0.0008274279534816742,0.00048713013529777527
1716738016731237400,8.0922373046875,-0.011478424072265625,0.003249228000640869,-0.0018730349838733673
1716738016741237200,8.1022373046875,-0.013872146606445312,0.0009141787886619568,-0.0017856135964393616
1716738016751237400,8.1122373046875,-0.011478424072265625,0.0033234767615795135,-0.001808948814868927
1716738016761237200,8.1222373046875,-0.009084701538085938,0.0033959411084651947,-0.001844562590122223
1716738016771237400,8.1322373046875,-0.009084701538085938,0.001022428274154663,-0.004142925143241882
1716738016781237200,8.1422373046875,-0.009084701538085938,0.0009689368307590485,-0.0017171017825603485
1716738016791237400,8.1522373046875,-0.009084701538085938,0.0010350346565246582,-0.0016914233565330505
1716738016801237200,8.1622373046875,-0.009085655212402344,0.0011176057159900665,-0.003983307629823685
1716738016811237400,8.1722373046875,-0.009085655212402344,0.0032587163150310516,-0.0036680474877357483
1716738016821237200,8.1822373046875,-0.011481285095214844,0.005680400878190994,-0.0036338642239570618
1716738016831237400,8.1922373046875,-0.03781700134277344,0.008066516369581223,-0.006066609174013138
1716738016841237200,8.2022373046875,-0.004296302795410156,0.007843270897865295,-0.0060787685215473175
1716738016851237400,8.2122373046875,0.000492095947265625,0.005347508937120438,-0.0037830285727977753
1716738016861237200,8.2222373046875,-0.0186614990234375,0.003012455999851227,-0.001301400363445282
1716738016871237400,8.2322373046875,-0.021056175231933594,0.0054273419082164764,-0.0035997703671455383
1716738016881237500,8.242237548828125,-0.00669097900390625,0.0030482374131679535,-0.006017312407493591
1716738016891237400,8.2522373046875,-0.004296302795410156,0.005446735769510269,-0.0036041177809238434
1716738016901237200,8.2622373046875,-0.0186614990234375,0.002669353038072586,-0.0008465945720672607
1716738016911237400,8.2722373046875,-0.023450851440429688,0.00521005317568779,-0.0008178949356079102
1716738016921237200,8.2822373046875,-0.011481285095214844,0.005276143550872803,-0.0007922276854515076
1716738016931237400,8.2922373046875,-0.001903533935546875,0.005229443311691284,0.001571953296661377
1716738016941237200,8.3022373046875,-0.016266822814941406,0.0020653866231441498,0.0018180720508098602
1716738016951237400,8.3122373046875,-0.02344989776611328,0.002269566059112549,0.0018342919647693634
1716738016961237200,8.3222373046875,-0.0138702392578125,0.004022929817438126,0.0019319243729114532
1716738016971237400,8.3322373046875,-0.009081840515136719,0.001575428992509842,-0.00043079257011413574
1716738016981237200,8.3422373046875,-0.018659591674804688,0.0016605444252490997,0.001985054463148117
1716738016991237400,8.3522373046875,-0.023448944091796875,0.0018495172262191772,0.0020246878266334534
1716738017001237200,8.3622373046875,-0.013872146606445312,0.004254579544067383,0.0019823312759399414
1716738017011237400,8.3722373046875,-0.009082794189453125,0.004082061350345612,0.002019435167312622
1716738017021237200,8.3822373046875,-0.0138702392578125,0.001752074807882309,0.0019454769790172577
1716738017031237400,8.3922373046875,-0.021053314208984375,0.001712203025817871,0.0018538571894168854
1716738017041237200,8.4022373046875,-0.01865863800048828,0.004110436886548996,0.004267308861017227
1716738017051237400,8.4122373046875,-0.0138702392578125,0.0016695298254489899,0.0018430836498737335
1716738017061237200,8.4222373046875,-0.016264915466308594,0.0016778334975242615,0.0018813908100128174
1716738017071237400,8.4322373046875,-0.01865863800048828,-0.0006504245102405548,-0.00048703327775001526
1716738017081237200,8.4422373046875,-0.0090789794921875,-0.0011096000671386719,0.003938738256692886
1716738017091237400,8.4522373046875,-0.006682395935058594,-0.00379040464758873,0.0011447519063949585
1716738017101237200,8.4622373046875,-0.013861656188964844,-0.0014717690646648407,-0.0016947723925113678
1716738017111237400,8.4722373046875,-0.01865100860595703,-0.001444406807422638,-0.001660425215959549
1716738017121237200,8.4822373046875,-0.016256332397460938,-0.001497909426689148,-0.0016288012266159058
1716738017131237400,8.4922373046875,-0.013861656188964844,0.0008429475128650665,-0.003991488367319107
1716738017141237200,8.5022373046875,-0.018650054931640625,0.0007960274815559387,-0.004021268337965012
1716738017151237400,8.5122373046875,-0.02104473114013672,-0.0015899911522865295,-0.0015885978937149048
1716738017161237200,8.5222373046875,-0.013861656188964844,0.000757656991481781,-0.0016187205910682678
1716738017171237400,8.5322373046875,-0.009072303771972656,0.0030983611941337585,-0.001587100327014923
1716738017181237200,8.5422373046875,-0.01146697998046875,0.0007124654948711395,-0.0015487894415855408
1716738017191237400,8.5522373046875,-0.013860702514648438,0.0007232837378978729,-0.0015911906957626343
1716738017201237200,8.5622373046875,-0.013860702514648438,-0.0016626082360744476,0.0008413195610046387
1716738017211237400,8.5722373046875,-0.01146697998046875,-0.001635134220123291,-0.0015186965465545654
1716738017221237200,8.5822373046875,-0.016259193420410156,0.0007662661373615265,-0.003412831574678421
1716738017231237400,8.5922373046875,-0.01865386962890625,-0.001671578735113144,-0.0005676746368408203
1716738017241237200,8.6022373046875,-0.013865470886230469,-0.0015990696847438812,0.0017909668385982513
1716738017251237400,8.6122373046875,-0.009077072143554688,-0.0015908032655715942,0.006617631763219833
1716738017261237000,8.622237060546874,-0.011471748352050781,-0.0040259696543216705,0.006706669926643372
1716738017271237000,8.632237060546874,-0.013866424560546875,-0.006354231387376785,0.006732437759637833
1716738017281237000,8.642237060546876,-0.013865470886230469,-0.003601629287004471,0.008648362010717392
1716738017291237000,8.652237060546875,-0.013866424560546875,-0.003597605973482132,0.008667610585689545
1716738017301237000,8.662237060546875,-0.016260147094726562,-0.0034183934330940247,0.008287932723760605
1716738017311237000,8.672237060546875,-0.016260147094726562,-0.0010201632976531982,0.010701380670070648
1716738017321237200,8.6822373046875,-0.011470794677734375,-0.0008424706757068634,0.012615934014320374
1716738017331237000,8.692237060546875,-0.011468887329101562,-0.000703372061252594,0.01186373457312584
1716738017341237200,8.7022373046875,-0.013859748840332031,-0.000562816858291626,0.00881732627749443
1716738017351237000,8.712237060546874,-0.016252517700195312,-0.005258627235889435,0.01071014255285263
1716738017361237200,8.7222373046875,-0.01385498046875,-0.005004484206438065,0.007538981735706329
1716738017371237000,8.732237060546876,-0.016248703002929688,-0.00007126852869987488,0.00451158732175827
1716738017381237200,8.7422373046875,-0.016248703002929688,0.0023271627724170685,0.0021364837884902954
1716738017391237000,8.752237060546875,-0.016246795654296875,0.002474777400493622,0.0017034448683261871
1716738017401237200,8.7622373046875,-0.016246795654296875,0.0024954304099082947,0.0017992332577705383
1716738017411237000,8.772237060546875,-0.013852119445800781,0.004955466836690903,-0.0005690343677997589
1716738017421237200,8.7822373046875,-0.011458396911621094,0.004901990294456482,0.0018568411469459534
1716738017431237000,8.792237060546874,-0.013853073120117188,0.0025160647928714752,0.0018951036036014557
1716738017441237000,8.802237060546876,-0.013854026794433594,0.00008090585470199585,0.0019841454923152924
1716738017451237000,8.812237060546876,-0.011460304260253906,0.004873357713222504,-0.002784963697195053
1716738017461237000,8.822237060546875,-0.013854026794433594,0.002606600522994995,-0.002752285450696945
1716738017471237000,8.832237060546875,-0.01385498046875,0.0026337914168834686,-0.0027178414165973663
1716738017481237000,8.842237060546875,-0.009066581726074219,0.002699330449104309,-0.002691652625799179
1716738017491237000,8.852237060546875,0.005299568176269531,0.021855540573596954,0.0020160600543022156
1716738017501237000,8.862237060546875,-0.006671905517578125,0.00026117265224456787,-0.002802472561597824
1716738017511237000,8.872237060546874,-0.018640518188476562,0.006971243768930435,0.006815768778324127
1716738017521237000,8.882237060546874,-0.004275321960449219,-0.009773198515176773,0.011580996215343475
1716738017531237000,8.892237060546876,-0.0066699981689453125,-0.0025179721415042877,0.011545281857252121
1716738017541237000,8.902237060546875,-0.01864147186279297,-0.0024973154067993164,-0.01230095699429512
1716738017551237000,8.912237060546875,-0.01864147186279297,0.0022995546460151672,-0.012262746691703796
1716738017561237200,8.9222373046875,-0.018640518188476562,0.013862594962120056,-0.00483192503452301
1716738017571237400,8.9322373046875,-0.004273414611816406,0.006239041686058044,0.012022364884614944
1716738017581237200,8.9422373046875,-0.01384735107421875,-0.0014448277652263641,0.0023526623845100403
1716738017591237400,8.9522373046875,-0.021030426025390625,0.005765259265899658,0.019146259874105453
1716738017601237200,8.9622373046875,-0.013845443725585938,-0.016029424965381622,-0.007497861981391907
1716738017611237400,8.9722373046875,-0.01624011993408203,0.000734131783246994,-0.014661386609077454
1716738017621237200,8.9822373046875,-0.013845443725585938,0.0006806664168834686,-0.0026586949825286865
1716738017631237400,8.9922373046875,-0.004269599914550781,0.007883958518505096,-0.012139666825532913
1716738017641237200,9.0022373046875,-0.006664276123046875,0.005504824221134186,-0.009768854826688766
1716738017651237400,9.0122373046875,-0.021030426025390625,0.0005195178091526031,0.0050802081823349
1716738017661237200,9.0222373046875,-0.009058952331542969,0.00047693774104118347,-0.00690164789557457
1716738017671237400,9.0322373046875,-0.01624298095703125,-0.011737443506717682,0.010311372578144073
1716738017681237200,9.0422373046875,-0.004271507263183594,0.0003035217523574829,0.007962271571159363
1716738017691237400,9.0522373046875,-0.013848304748535156,-0.0020866617560386658,-0.013566292822360992
1716738017701237200,9.0622373046875,-0.016243934631347656,0.010011699050664902,-0.018321804702281952
1716738017711237400,9.0722373046875,-0.018637657165527344,0.017147470265626907,0.0008019544184207916
1716738017721237200,9.0822373046875,-0.013849258422851562,0.004831481724977493,-0.00602547824382782
1716738017731237400,9.0922373046875,-0.0018777847290039062,-0.007179562002420425,-0.0037227757275104523
1716738017741237200,9.1022373046875,-0.013849258422851562,-0.009508222341537476,0.0034860335290431976
1716738017751237400,9.1122373046875,-0.018636703491210938,0.009586460888385773,0.015369389206171036
1716738017761237200,9.1222373046875,-0.0018768310546875,0.007162217050790787,-0.006131861358880997
1716738017771237400,9.1322373046875,-0.016241073608398438,0.018787991255521774,0.0011251047253608704
1716738017781237200,9.1422373046875,0.08671188354492188,0.02772810310125351,-0.013123292475938797
1716738017791237400,9.1522373046875,0.09150505065917969,-0.01639740541577339,0.0015840865671634674
1716738017801237200,9.1622373046875,-0.03538799285888672,0.0001142546534538269,-0.0030507035553455353
1716738017811237400,9.1722373046875,-0.10721588134765625,0.0026415251195430756,0.0018895864486694336
1716738017821237200,9.1822373046875,0.04601287841796875,0.024265937507152557,0.001873154193162918
1716738017831237400,9.1922373046875,0.089111328125,0.009320084005594254,0.016242794692516327
1716738017841237200,9.2022373046875,-0.030595779418945312,-0.0031031742691993713,0.006522703915834427
1716738017851237400,9.2122373046875,-0.07129383087158203,0.00866759940981865,0.008638914674520493
1716738017861237200,9.2222373046875,0.017290115356445312,0.006339229643344879,-0.00570036843419075
1716738017871237400,9.2322373046875,0.07475566864013672,0.015325445681810379,0.010925471782684326
1716738017881237200,9.2422373046875,-0.03537464141845703,0.0028392039239406586,-0.006084192544221878
1716738017891237400,9.2522373046875,-0.07846736907958984,0.004858087748289108,-0.006244342774152756
1716738017901237200,9.2622373046875,0.0029382705688476562,0.011517178267240524,-0.011040225625038147
1716738017911237400,9.2722373046875,0.048430442810058594,0.00616174191236496,0.0034872815012931824
1716738017921237200,9.2822373046875,-0.028181076049804688,-0.011055290699005127,-0.006071209907531738
1716738017931237400,9.2922373046875,-0.061699867248535156,-0.001344151794910431,-0.003705982118844986
1716738017941237200,9.3022373046875,-0.006634712219238281,-0.0036741532385349274,-0.0013857297599315643
1716738017951237400,9.3122373046875,0.03167247772216797,-0.001597624272108078,0.015763286501169205
1716738017961237200,9.3222373046875,-0.02339458465576172,-0.011153742671012878,0.01825331524014473
1716738017971237400,9.3322373046875,-0.05691337585449219,-0.0015112608671188354,0.001519959419965744
1716738017981237200,9.3422373046875,-0.0018463134765625,0.010585501790046692,0.015537068247795105
1716738017991237400,9.3522373046875,0.03406810760498047,-0.0014938265085220337,0.008317720144987106
1716738018001237200,9.3622373046875,0.0029449462890625,-0.008641373366117477,-0.006536472588777542
1716738018011237400,9.3722373046875,-0.04254436492919922,-0.01102035865187645,0.012593615800142288
1716738018021237200,9.3822373046875,-0.004237174987792969,-0.0011453405022621155,-0.004550859332084656
1716738018031237400,9.3922373046875,0.0292816162109375,0.005996260792016983,0.007509130984544754
1716738018041237200,9.4022373046875,-0.009023666381835938,-0.01062805950641632,0.014201350510120392
1716738018051237400,9.4122373046875,-0.04733085632324219,0.0039504095911979675,0.0066117458045482635
1716738018061237200,9.4222373046875,-0.013810157775878906,0.0017299056053161621,-0.008252475410699844
1716738018071237400,9.4322373046875,0.02689075469970703,0.011253368109464645,0.0037500448524951935
1716738018081237200,9.4422373046875,-0.011412620544433594,-0.0009592361748218536,0.008068952709436417
1716738018091237400,9.4522373046875,-0.028171539306640625,0.0013882480561733246,0.012827351689338684
1716738018101237200,9.4622373046875,-0.011411666870117188,-0.005860075354576111,-0.0015638656914234161
1716738018111237400,9.4722373046875,0.014925003051757812,-0.001118384301662445,0.005588732659816742
1716738018121237200,9.4822373046875,-0.001834869384765625,-0.0202568918466568,0.012747995555400848
1716738018131237400,9.4922373046875,-0.02577686309814453,-0.01785438135266304,-0.01594412326812744
1716738018141237200,9.5022373046875,-0.009016990661621094,0.00616026297211647,-0.013585645705461502
1716738018151237400,9.5122373046875,0.007740974426269531,-0.010591011494398117,0.008000601083040237
1716738018161237200,9.5222373046875,-0.0042285919189453125,-0.0035167746245861053,0.012752208858728409
1716738018171237400,9.5322373046875,-0.02577686309814453,0.010875619947910309,0.034334518015384674
1716738018181237200,9.5422373046875,-0.011409759521484375,0.0014709755778312683,0.0026110224425792694
1716738018191237400,9.5522373046875,0.014929771423339844,0.001604720950126648,0.01399146392941475
1716738018201237200,9.5622373046875,-0.006615638732910156,0.0016805566847324371,0.008344236761331558
1716738018211237400,9.5722373046875,-0.009006500244140625,-0.0006592832505702972,-0.011302672326564789
1716738018221237200,9.5822373046875,-0.016190528869628906,0.0065823569893836975,-0.0016382932662963867
1716738018231237400,9.5922373046875,-0.0066127777099609375,-0.0006464682519435883,-0.001668740063905716
1716738018241237200,9.6022373046875,0.01732921600341797,-0.0006312280893325806,0.022249750792980194
1716738018251237400,9.6122373046875,-0.016190528869628906,-0.007805701345205307,0.010317176580429077
1716738018261237200,9.6222373046875,-0.016187667846679688,-0.01007593423128128,-0.014353614300489426
1716738018271237400,9.6322373046875,0.010149002075195312,-0.009628381580114365,-0.0004258975386619568
1716738018281237200,9.6422373046875,-0.011399269104003906,-0.004886522889137268,-0.012427035719156265
1716738018291237400,9.6522373046875,-0.009007453918457031,0.009892448782920837,-0.024246226996183395
1716738018301237200,9.6622373046875,-0.00901031494140625,0.00039966776967048645,0.009755969047546387
1716738018311237400,9.6722373046875,-0.0042209625244140625,0.0027405284345149994,-0.002183530479669571
1716738018321237200,9.6822373046875,-0.011404037475585938,-0.004488300532102585,0.002574436366558075
1716738018331237400,9.6922373046875,-0.030557632446289062,0.0075485073029994965,0.0002061016857624054
1716738018341237200,9.7022373046875,-0.0066165924072265625,0.00031256303191185,-0.006944984197616577
1716738018351237400,9.7122373046875,-0.0018281936645507812,0.007503170520067215,0.00027622655034065247
1716738018361237200,9.7222373046875,-0.0018281936645507812,-0.011639464646577835,0.005022119730710983
1716738018371237400,9.7322373046875,-0.0209808349609375,-0.0044417604804039,-0.004578031599521637
1716738018381237200,9.7422373046875,-0.004221916198730469,-0.009157389402389526,-0.002219732850790024
1716738018391237400,9.7522373046875,-0.001827239990234375,0.009892158210277557,-0.007025890052318573
1716738018401237500,9.762237548828125,-0.013797760009765625,0.019422240555286407,-0.009450100362300873
1716738018411237400,9.7722373046875,-0.001827239990234375,-0.002117577940225601,0.002559516578912735
1716738018421237500,9.782237548828125,-0.0042209625244140625,0.005011696368455887,0.00019682198762893677
1716738018431237400,9.7922373046875,-0.009008407592773438,0.004607897251844406,0.012435287237167358
1716738018441237200,9.8022373046875,-0.011403083801269531,-0.00980670377612114,-0.013850122690200806
1716738018451237400,9.8122373046875,-0.018584251403808594,-0.005064968019723892,-0.001909162849187851
1716738018461237200,9.8222373046875,-0.011402130126953125,0.009304434061050415,-0.00428423285484314
1716738018471237400,9.8322373046875,-0.0018253326416015625,0.00213000550866127,0.0029368624091148376
1716738018481237200,9.8422373046875,-0.0042209625244140625,-0.00019807741045951843,0.010145027190446854
1716738018491237400,9.8522373046875,-0.0018253326416015625,-0.007427230477333069,0.002932291477918625
1716738018501237200,9.8622373046875,-0.023372650146484375,-0.009727679193019867,0.01689649373292923
1716738018511237400,9.8722373046875,0.002964019775390625,-0.014562670141458511,0.007289491593837738
1716738018521237000,9.882237060546874,-0.0042171478271484375,-0.01911851391196251,-0.02424633875489235
1716738018531236900,9.89223681640625,-0.01858234405517578,-0.007136382162570953,-0.0027412213385105133
1716738018541237000,9.902237060546875,-0.0018262863159179688,-0.0019312836229801178,0.009300421923398972
1716738018551236900,9.91223681640625,-0.01619434356689453,-0.013246182352304459,-0.012368578463792801
1716738018561237000,9.922237060546875,-0.009015083312988281,0.006491042673587799,0.0021920688450336456
1716738018571236900,9.93223681640625,-0.023380279541015625,-0.005475718528032303,0.014182168990373611
1716738018581237000,9.942237060546875,-0.009014129638671875,0.00877290964126587,-0.0050465427339077
1716738018591236900,9.95223681640625,0.010138511657714844,-0.015084147453308105,-0.00023639574646949768
1716738018601237000,9.962237060546874,-0.009014129638671875,0.0016219355165958405,-0.014570090919733047
1716738018611236900,9.97223681640625,-0.0066204071044921875,0.013601113110780716,-0.00016639381647109985
1716738018621237000,9.982237060546876,-0.030562400817871094,0.008766453713178635,0.006985720247030258
1716738018631236900,9.99223681640625,-0.01619720458984375,-0.015234667807817459,-0.0026786252856254578
1716738018641237000,10.002237060546875,-0.004225730895996094,0.011181291192770004,0.006800513714551926
1716738018651236900,10.01223681640625,0.0005626678466796875,0.004081029444932938,-0.0026736706495285034
1716738018661237000,10.022237060546875,-0.011408805847167969,-0.0007734149694442749,-0.00030517578125
1716738018671236900,10.03223681640625,-0.004225730895996094,0.00881451740860939,-0.0027420707046985626
1716738018681237000,10.042237060546874,-0.025774002075195312,-0.0031413882970809937,0.00920560210943222
1716738018691236900,10.05223681640625,-0.013797760009765625,0.003628663718700409,-0.031828369945287704
1716738018701237000,10.062237060546876,-0.009012222290039062,0.017920225858688354,0.004582051187753677
1716738018711236900,10.07223681640625,-0.004222869873046875,-0.0208883099257946,0.004770249128341675
1716738018721237000,10.082237060546875,-0.01380157470703125,0.0007392950356006622,-0.013918913900852203
1716738018731236900,10.09223681640625,-0.009016990661621094,-0.003943007439374924,-0.029999081045389175
1716738018741237000,10.102237060546875,-0.0018377304077148438,-0.003878127783536911,0.015978313982486725
1716738018751236900,10.11223681640625,-0.00662994384765625,0.0035571083426475525,-0.00993095338344574
1716738018761237000,10.122237060546874,0.0053424835205078125,0.010738309472799301,-0.005242589861154556
1716738018771236900,10.13223681640625,-0.009022712707519531,-0.0012751184403896332,-0.005253549665212631
1716738018781237000,10.142237060546876,-0.006630897521972656,-0.013404712080955505,-0.007172197103500366
1716738018791236900,10.15223681640625,-0.018604278564453125,-0.013276897370815277,-0.0017893128097057343
1716738018801237000,10.162237060546875,-0.023392677307128906,-0.0036848261952400208,0.005369830876588821
1716738018811236900,10.17223681640625,-0.0018482208251953125,0.006309825927019119,0.010329172015190125
1716738018821237200,10.1822373046875,-0.011425018310546875,-0.005707893520593643,-0.004066053777933121
1716738018831237400,10.1922373046875,-0.011424064636230469,-0.003360241651535034,-0.006490394473075867
1716738018841237200,10.2022373046875,-0.009030342102050781,0.0038264207541942596,0.007894132286310196
1716738018851237400,10.2122373046875,-0.009029388427734375,-0.0009470507502555847,0.010265111923217773
1716738018861237200,10.2222373046875,-0.03057861328125,0.006182212382555008,0.0055082254111766815
1716738018871237400,10.2322373046875,-0.0018482208251953125,-0.008155681192874908,-0.011216886341571808
1716738018881237500,10.242237548828125,-0.004241943359375,-0.0010195672512054443,0.015089157968759537
1716738018891237400,10.2522373046875,-0.013818740844726562,-0.005810745060443878,0.005593255162239075
1716738018901237500,10.262237548828125,-0.0018482208251953125,-0.00339585542678833,0.00329488143324852
1716738018911237400,10.2722373046875,-0.011425018310546875,-0.003449324518442154,0.008114978671073914
1716738018921237500,10.282237548828125,-0.011425018310546875,-0.0010468512773513794,0.008153226226568222
1716738018931237400,10.2922373046875,-0.013818740844726562,-0.0031359270215034485,0.0029179416596889496
1716738018941237200,10.3022373046875,-0.018607139587402344,0.0016799680888652802,-0.001836281269788742
1716738018951237400,10.3122373046875,-0.011425018310546875,-0.0030549876391887665,0.01728573441505432
1716738018961237200,10.3222373046875,-0.01860809326171875,0.004155062139034271,-0.001833748072385788
1716738018971237400,10.3322373046875,-0.013818740844726562,-0.00308101624250412,0.012563154101371765
1716738018981237200,10.3422373046875,-0.07367134094238281,-0.002988681197166443,-0.007372647523880005
1716738018991237400,10.3522373046875,0.11786460876464844,0.006602924317121506,-0.002607285976409912
1716738019001237200,10.3622373046875,0.05561637878417969,-0.015172258019447327,-0.007427029311656952
1716738019011237400,10.3722373046875,-0.09522056579589844,-0.00014543160796165466,-0.024188317358493805
1716738019021237200,10.3822373046875,-0.10001468658447266,-0.014174267649650574,0.019536923617124557
1716738019031237400,10.3922373046875,0.048427581787109375,0.00013214722275733948,-0.014069724828004837
1716738019041237200,10.4022373046875,0.08434009552001953,-0.004690591245889664,-0.004465419799089432
1716738019051237400,10.4122373046875,-0.06410026550292969,0.0025454647839069366,0.007474001497030258
1716738019061237200,10.4222373046875,-0.10720062255859375,0.007998477667570114,0.002883587032556534
1716738019071237400,10.4322373046875,0.04123973846435547,0.01518934965133667,0.0005276389420032501
1716738019081237200,10.4422373046875,0.08912372589111328,-0.0016167350113391876,-0.004290726035833359
1716738019091237400,10.4522373046875,-0.04734325408935547,0.0025662407279014587,0.012639172375202179
1716738019101237200,10.4622373046875,-0.10001564025878906,-0.0068830884993076324,-0.008875925093889236
1716738019111237400,10.4722373046875,0.007721900939941406,0.009961333125829697,-0.0016715191304683685
1716738019121237200,10.4822373046875,0.048424720764160156,0.005049817264080048,0.015074092894792557
1716738019131237400,10.4922373046875,-0.04734325408935547,-0.00224115327000618,0.015037287026643753
1716738019141237200,10.5022373046875,-0.08565139770507812,0.007475513964891434,-0.006420288234949112
1716738019151237400,10.5122373046875,0.010117530822753906,0.009872142225503922,0.010258551687002182
1716738019161237200,10.5222373046875,0.041245460510253906,0.007095601409673691,-0.004485972225666046
1716738019171237400,10.5322373046875,-0.03058147430419922,-0.0023919418454170227,0.0027374401688575745
1716738019181237200,10.5422373046875,-0.06409549713134766,-0.0005418471992015839,-0.00961805135011673
1716738019191237400,10.5522373046875,0.010125160217285156,0.004261352121829987,0.002329908311367035
1716738019201237200,10.5622373046875,0.055617332458496094,-0.0034269019961357117,-0.00975283607840538
1716738019211237400,10.5722373046875,-0.023390769958496094,0.003461606800556183,-0.011742707341909409
1716738019221237200,10.5822373046875,-0.06409263610839844,0.001075543463230133,-0.014098476618528366
1716738019231237400,10.5922373046875,-0.004239082336425781,0.0058055296540260315,-0.008836101740598679
1716738019241237200,10.6022373046875,0.03406810760498047,0.0009640492498874664,0.007954470813274384
1716738019251237400,10.6122373046875,-0.025787353515625,-0.01848779246211052,-0.001237187534570694
1716738019261237200,10.6222373046875,-0.05212688446044922,-0.008594181388616562,0.0039043128490448
1716738019271237400,10.6322373046875,0.000545501708984375,-0.013371605426073074,0.008650202304124832
1716738019281237200,10.6422373046875,0.03645801544189453,0.012979414314031601,0.008627157658338547
1716738019291237400,10.6522373046875,-0.02579021453857422,0.003343738615512848,-0.005825746804475784
1716738019301237200,10.6622373046875,-0.049732208251953125,-0.018250491470098495,0.008509144186973572
1716738019311237400,10.6722373046875,-0.006636619567871094,-0.013389628380537033,-0.0011032633483409882
1716738019321237200,10.6822373046875,0.010121345520019531,0.01107693836092949,0.008300438523292542
1716738019331237400,10.6922373046875,-0.018609046936035156,0.008629228919744492,0.00833207368850708
1716738019341237200,10.7022373046875,-0.04255104064941406,0.0038490071892738342,0.003582153469324112
1716738019351237400,10.7122373046875,0.0077266693115234375,0.0015273913741111755,0.01312318816781044
1716738019361237200,10.7222373046875,0.0029382705688476562,-0.02006017044186592,0.003454592078924179
1716738019371237400,10.7322373046875,-0.009030342102050781,-0.019812699407339096,-0.008950736373662949
1716738019381237200,10.7422373046875,-0.03536796569824219,-0.005439344793558121,-0.008912310004234314
1716738019391237400,10.7522373046875,-0.009033203125,0.006963394582271576,-0.004076562821865082
1716738019401237200,10.7622373046875,0.007725715637207031,0.002185668796300888,0.0006696172058582306
1716738019411237400,10.7722373046875,-0.01621723175048828,-0.007314514368772507,0.0006532482802867889
1716738019421237200,10.7822373046875,-0.032975196838378906,-0.0001209750771522522,0.007793281227350235
1716738019431237400,10.7922373046875,-0.018610000610351562,0.014259207993745804,0.01016431674361229
1716738019441237200,10.8022373046875,-0.004246711730957031,-0.000040415674448013306,-0.01135731115937233
1716738019451237400,10.8122373046875,-0.013823509216308594,-0.000032104551792144775,-0.006530601531267166
1716738019461237200,10.8222373046875,-0.03297710418701172,-0.0095880888402462,0.010324463248252869
1716738019471237400,10.8322373046875,-0.018611907958984375,-0.0024657845497131348,-0.006341662257909775
1716738019481237200,10.8422373046875,-0.0066432952880859375,-0.004418924450874329,0.0007459819316864014
1716738019491237400,10.8522373046875,-0.013825416564941406,-0.0020779334008693695,0.005565725266933441
1716738019501237200,10.8622373046875,-0.030584335327148438,-0.004525471478700638,0.007991444319486618
1716738019511237400,10.8722373046875,-0.025796890258789062,-0.0018353350460529327,-0.0018901042640209198
1716738019521237200,10.8822373046875,0.005329132080078125,0.00769505649805069,0.0004737861454486847
1716738019531237400,10.8922373046875,-0.021007537841796875,0.005247388035058975,0.002899676561355591
1716738019541237200,10.9022373046875,-0.028186798095703125,-0.006911847740411758,0.026340574026107788
1716738019551237400,10.9122373046875,-0.0066375732421875,-0.018735375255346298,-0.0028227120637893677
1716738019561237200,10.9222373046875,0.00533294677734375,0.01963764801621437,0.01156836748123169
1716738019571237400,10.9322373046875,0.005335807800292969,0.002751752734184265,-0.0008969418704509735
1716738019581237200,10.9422373046875,-0.0281829833984375,-0.004414599388837814,0.006362605839967728
1716738019591237400,10.9522373046875,-0.025787353515625,0.010005161166191101,0.0010808035731315613
1716738019601237200,10.9622373046875,-0.013815879821777344,0.002826601266860962,-0.015659302473068237
1716738019611237400,10.9722373046875,-0.018604278564453125,0.002841673791408539,-0.0037116892635822296
1716738019621237200,10.9822373046875,-0.025787353515625,-0.004332486540079117,-0.013250358402729034
1716738019631237400,10.9922373046875,-0.028181076049804688,-0.006722640246152878,0.0083167664706707
1716738019641237200,11.0022373046875,0.0029420852661132812,0.01484568789601326,-0.0035583004355430603
1716738019651237400,11.0122373046875,-0.016211509704589844,0.005208887159824371,0.015688300132751465
1716738019661237200,11.0222373046875,-0.020999908447265625,0.00521719828248024,0.008544012904167175
1716738019671237400,11.0322373046875,-0.01621246337890625,0.012358710169792175,-0.005731988698244095
1716738019681237200,11.0422373046875,-0.004237174987792969,-0.004841931164264679,0.013235621154308319
1716738019691237400,11.0522373046875,-0.013813972473144531,0.011932585388422012,0.0036354772746562958
1716738019701237200,11.0622373046875,-0.02099323272705078,0.0019814297556877136,0.015265855938196182
1716738019711237400,11.0722373046875,-0.018591880798339844,-0.017687901854515076,-0.021459059789776802
1716738019721237200,11.0822373046875,-0.013803482055664062,-0.003369223326444626,-0.0023356862366199493
1716738019731237400,11.0922373046875,-0.009015083312988281,0.006222561001777649,-0.011935655027627945
1716738019741237200,11.1022373046875,-0.016199111938476562,-0.010699264705181122,0.005279839038848877
1716738019751237400,11.1122373046875,-0.020986557006835938,0.001289520412683487,0.00038727372884750366
1716738019761237200,11.1222373046875,0.007742881774902344,-0.0011539347469806671,0.00043790414929389954
1716738019771237400,11.1322373046875,-0.016198158264160156,0.0011869333684444427,0.002863619476556778
1716738019781237200,11.1422373046875,-0.0305633544921875,0.0035347342491149902,0.0004390999674797058
1716738019791237400,11.1522373046875,-0.023380279541015625,-0.0036944113671779633,-0.00916784256696701
1716738019801237200,11.1622373046875,0.0005626678466796875,-0.006142091006040573,-0.009136147797107697
1716738019811237400,11.1722373046875,-0.01619720458984375,-0.006062701344490051,-0.004445180296897888
1716738019821237200,11.1822373046875,-0.023380279541015625,0.005916755646467209,0.017140772193670273
1716738019831237400,11.1922373046875,-0.011409759521484375,-0.0084444060921669,-0.025935549288988113
1716738019841236700,11.20223681640625,-0.02337932586669922,0.01073092594742775,-0.0020783990621566772
1716738019851236900,11.21223681640625,-0.016198158264160156,0.013065174221992493,0.0028030425310134888
1716738019861236700,11.22223681640625,-0.0305633544921875,0.010685905814170837,0.007568225264549255
1716738019871236900,11.23223681640625,-0.023377418518066406,0.007789101451635361,0.005262091755867004
1716738019881236700,11.24223681640625,-0.016195297241210938,-0.011356193572282791,-0.004276402294635773
1716738019891236900,11.25223681640625,-0.011407852172851562,-0.0041624754667282104,0.00046930834650993347
1716738019901236700,11.26223681640625,-0.006618499755859375,0.005429264158010483,-0.009130720049142838
1716738019911236900,11.27223681640625,-0.025773048400878906,0.0006489939987659454,0.007667124271392822
1716738019921236700,11.28223681640625,-0.016196250915527344,-0.008923627436161041,-0.004284750670194626
1716738019931236900,11.29223681640625,-0.018590927124023438,-0.0017329715192317963,-0.004246186465024948
1716738019941236700,11.30223681640625,-0.02337932586669922,-0.01118214800953865,-0.0066078417003154755
1716738019951236900,11.31223681640625,-0.05929374694824219,0.012787528336048126,-0.004179578274488449
1716738019961237800,11.32223779296875,0.1011190414428711,0.010278478264808655,-0.004155047237873077
1716738019971238000,11.33223779296875,-0.013802528381347656,-0.021212682127952576,0.008255783468484879
1716738019981237800,11.34223779296875,-0.06408214569091797,0.0028761252760887146,-0.01565781980752945
1716738019991238000,11.35223779296875,-0.018591880798339844,0.007672838866710663,-0.008436907082796097
1716738020001237800,11.36223779296875,0.04844379425048828,-0.0068166255950927734,0.013558853417634964
1716738020011238000,11.37223779296875,-0.013804435729980469,-0.006913721561431885,0.0039025098085403442
1716738020021237800,11.38223779296875,-0.06647777557373047,-0.006854724138975143,-0.0031925663352012634
1716738020031238000,11.39223779296875,-0.018593788146972656,0.0003361925482749939,0.01360514760017395
1716738020041237800,11.40223779296875,0.05083751678466797,-0.011623971164226532,-0.0008023940026760101
1716738020051238000,11.41223779296875,0.010136604309082031,-0.016397442668676376,-0.008008219301700592
1716738020061237800,11.42223779296875,-0.06648063659667969,0.005762618035078049,-0.003170941025018692
1716738020071238000,11.43223779296875,-0.023385047912597656,-0.020569555461406708,0.008819378912448883
1716738020081237800,11.44223779296875,0.031678199768066406,0.008647039532661438,0.011048693209886551
1716738020091238000,11.45223779296875,-0.018599510192871094,0.011524543166160583,-0.003681350499391556
1716738020101237800,11.46223779296875,-0.049724578857421875,-0.012332603335380554,0.0011290349066257477
1716738020111238000,11.47223779296875,-0.03775310516357422,-0.00994250550866127,-0.008467040956020355
1716738020121237800,11.48223779296875,0.012524604797363281,-0.00041224434971809387,0.005868028849363327
1716738020131238000,11.49223779296875,-0.006628990173339844,0.011524345725774765,-0.006075333803892136
1716738020141238300,11.50223828125,-0.044936180114746094,-0.0053460560739040375,-0.027579082176089287
1716738020151238400,11.51223828125,-0.013813972473144531,0.009184278547763824,-0.0007571093738079071
1716738020161238300,11.52223828125,0.00054931640625,0.001909010112285614,-0.009832512587308884
1716738020171238400,11.53223828125,-0.011422157287597656,-0.00280693918466568,-0.009868107736110687
1716738020181238300,11.54223828125,-0.04015541076660156,0.0020503103733062744,0.0026098154485225677
1716738020191238400,11.55223828125,-0.02339649200439453,-0.00022229179739952087,0.0001294650137424469
1716738020201238300,11.56223828125,0.010123252868652344,-0.0026015639305114746,-0.0046821534633636475
1716738020211238400,11.57223828125,0.00293731689453125,0.006944227963685989,-0.011356562376022339
1716738020221238300,11.58223828125,-0.044948577880859375,0.0069118887186050415,0.02017609030008316
1716738020231238400,11.59223828125,-0.018611907958984375,-0.00989406555891037,-0.003796067088842392
1716738020241238300,11.60223828125,0.0053310394287109375,-0.0003639720380306244,-0.008614491671323776
1716738020251238400,11.61223828125,-0.009034156799316406,-0.00034886598587036133,0.008121579885482788
1716738020261237200,11.6222373046875,-0.028186798095703125,-0.0027403421700000763,0.005646519362926483
1716738020271237400,11.6322373046875,-0.03058147430419922,-0.005123600363731384,0.029545966535806656
1716738020281237200,11.6422373046875,-0.001850128173828125,0.002132304012775421,0.007501080632209778
1716738020291237400,11.6522373046875,-0.013818740844726562,-0.0001500844955444336,-0.0001869499683380127
1716738020301237200,11.6622373046875,-0.03297233581542969,0.006979316473007202,0.009421195834875107
1716738020311237400,11.6722373046875,-0.02579021453857422,-0.004971176385879517,0.009517144411802292
1716738020321237200,11.6822373046875,-0.004239082336425781,-0.0025650225579738617,0.023378200829029083
1716738020331237400,11.6922373046875,-0.006630897521972656,0.009410832077264786,-0.0012870021164417267
1716738020341237200,11.7022373046875,-0.02099609375,0.0022366754710674286,0.001145336776971817
1716738020351237400,11.7122373046875,-0.016204833984375,-0.005040768533945084,-0.008872516453266144
1716738020361237200,11.7222373046875,0.0005550384521484375,0.004489317536354065,0.003068476915359497
1716738020371237400,11.7322373046875,-0.0018396377563476562,-0.0027467645704746246,0.007888570427894592
1716738020381237200,11.7422373046875,-0.016204833984375,-0.00992109626531601,0.00553261861205101
1716738020391237400,11.7522373046875,-0.011416435241699219,-0.0074542611837387085,-0.004079908132553101
1716738020401237200,11.7622373046875,-0.011417388916015625,-0.012177012860774994,0.005522940307855606
1716738020411237400,11.7722373046875,-0.0018405914306640625,-0.004620708525180817,0.005302220582962036
1716738020421237200,11.7822373046875,-0.023387908935546875,0.010050930082798004,-0.004621349275112152
1716738020431237400,11.7922373046875,-0.009023666381835938,0.007677100598812103,0.007445786148309708
1716738020441237200,11.8022373046875,-0.00662994384765625,-0.009135644882917404,0.012265697121620178
1716738020451237400,11.8122373046875,-0.00423431396484375,0.007570289075374603,0.0027205832302570343
1716738020461237200,11.8222373046875,-0.020994186401367188,-0.00682888925075531,0.002747759222984314
1716738020471237400,11.8322373046875,-0.009023666381835938,-0.014010019600391388,-0.001940745860338211
1716738020481237200,11.8422373046875,0.000553131103515625,-0.009206641465425491,-0.011540714651346207
