time,seconds_elapsed,z,y,x
1717858487081896700,0.040896728515625,9.839719910430908,0.2947860794067383,0.04369418029785156
1717858487091937800,0.050937744140625,9.820267021942138,0.297479556274414,0.029478607940673827
1717858487101977900,0.060977783203125,9.826252526092528,0.2958335426330566,0.028431144714355466
1717858487112019000,0.07101904296875,9.827599264526366,0.28999767608642574,0.03755903854370117
1717858487122058800,0.081058837890625,9.820267021942138,0.2914940521240234,0.041000703430175776
1717858487132099600,0.091099609375,9.824456874847412,0.30196868438720703,0.04474164352416992
1717858487142139600,0.1011396484375,9.821015209960937,0.29613281784057616,0.04025251541137695
1717858487152180700,0.1111806640625,9.822661223602294,0.28266543350219725,0.0330699104309082
1717858487162221600,0.1212216796875,9.821763397979735,0.28954876327514645,0.03172317199707031
1717858487172261600,0.13126171875,9.828946002960205,0.30256723480224607,0.040701428222656245
1717858487182302700,0.141302734375,9.826551801300049,0.30361469802856444,0.03531447448730469
1717858487192342800,0.1513427734375,9.82520506286621,0.3024175971984863,0.03890577697753906
1717858487202384000,0.1613837890625,9.823858324432372,0.29658173065185545,0.03950432739257812
1717858487212423700,0.171423583984375,9.821464122772216,0.3094505645751953,0.017357962036132813
1717858487222464800,0.18146484375,9.829095640563965,0.31094694061279293,0.03067570877075195
1717858487232505900,0.191505859375,9.832686943054199,0.29269115295410153,0.0330699104309082
1717858487242545700,0.201545654296875,9.835978970336914,0.3055599868774414,0.03336918563842773
1717858487252586800,0.211586669921875,9.823858324432372,0.3012204963684082,0.027682956695556638
1717858487262626600,0.22162646484375,9.840917011260986,0.29553426742553707,0.029927520751953124
1717858487272667600,0.231667724609375,9.829544553375243,0.29718028106689454,0.029628245544433593
1717858487282707700,0.241707763671875,9.836427883148193,0.3010708587646484,0.026036943054199218
1717858487292748800,0.251748779296875,9.82460651245117,0.2883516624450683,0.021098902130126954
1717858487302789600,0.26178955078125,9.822511585998535,0.2959831802368164,0.02663549346923828
1717858487312829700,0.27182958984375,9.8319387550354,0.30361469802856444,0.03980360260009765
1717858487322870800,0.281870849609375,9.829245278167724,0.2893991256713867,0.03651157531738281
1717858487332910800,0.291910888671875,9.830292741394043,0.30151977157592774,0.040402153015136714
1717858487342951700,0.30195166015625,9.81996774673462,0.3007715835571289,0.027832594299316404
1717858487352991700,0.31199169921875,9.827748902130127,0.3058592620849609,0.026036943054199218
1717858487363032800,0.32203271484375,9.835679695129395,0.3016694091796875,0.036062662506103516
1717858487373074000,0.332073974609375,9.829694190979003,0.3042132484436035,0.03666121292114258
1717858487383113700,0.34211376953125,9.821015209960937,0.29448680419921874,0.03366846084594726
1717858487393154600,0.352154541015625,9.82520506286621,0.29269115295410153,0.040402153015136714
1717858487403194600,0.362194580078125,9.837176071166992,0.2962824554443359,0.04249707946777344
1717858487413235700,0.372235595703125,9.831489842224121,0.2995744827270508,0.0330699104309082
1717858487423275800,0.38227587890625,9.822661223602294,0.3016694091796875,0.031124621582031248
1717858487433316600,0.392316650390625,9.817423907470703,0.2916436897277832,0.03516483688354492
1717858487443357700,0.402357666015625,9.830442378997802,0.2941875289916992,0.03202244720458984
1717858487453397800,0.412397705078125,9.82580361328125,0.3003226707458496,0.040102877807617184
1717858487463438800,0.42243896484375,9.82580361328125,0.3024175971984863,0.03890577697753906
1717858487473479000,0.43247900390625,9.823559049224853,0.311545491027832,0.03486556167602539
1717858487483519700,0.442519775390625,9.819219558715819,0.2941875289916992,0.026186580657958983
1717858487493559800,0.452559814453125,9.833285493469237,0.2985270195007324,0.040102877807617184
1717858487503601000,0.462600830078125,9.83792425918579,0.30151977157592774,0.028880057525634766
1717858487513641700,0.472641845703125,9.827150351715087,0.296881005859375,0.035763387298583985
1717858487523681500,0.482681640625,9.830891291809081,0.2893991256713867,0.03426701126098632
1717858487533722600,0.49272265625,9.835081144714355,0.29358897857666016,0.021398177337646485
1717858487543762700,0.5027626953125,9.832537305450439,0.2937386161804199,0.03501519927978516
1717858487553803800,0.5128037109375,9.834482594299315,0.29448680419921874,0.02798223190307617
1717858487563844600,0.5228447265625,9.819818109130859,0.2959831802368164,0.03845686416625976
1717858487573884700,0.532884765625,9.82535470046997,0.28490999755859375,0.0383072265625
1717858487583925800,0.54292578125,9.824756150054931,0.2889502128601074,0.04399345550537109
1717858487593965800,0.5529658203125,9.82460651245117,0.29239187774658204,0.04129997863769531
1717858487604006700,0.563006591796875,9.822810861206055,0.30481179885864257,0.03666121292114258
1717858487614046700,0.573046630859375,9.829544553375243,0.2902969512939453,0.042945992279052735
1717858487624087800,0.583087890625,9.81847137069702,0.29867665710449215,0.03172317199707031
1717858487634129000,0.59312890625,9.831489842224121,0.3010708587646484,0.024390929412841794
1717858487644168700,0.603168701171875,9.833584768676758,0.28969840087890625,0.03247136001586914
1717858487654209500,0.61320947265625,9.837026433563231,0.2832639839172363,0.03411737365722656
1717858487664249600,0.62324951171875,9.834931507110594,0.2998737579345703,0.033518823242187495
1717858487674290700,0.633290771484375,9.813084416961669,0.2862567359924316,0.03486556167602539
1717858487684330800,0.643330810546875,9.828197814941406,0.28790274963378903,0.044592005920410155
1717858487694371600,0.65337158203125,9.832986218261718,0.29388825378417965,0.033818098449707026
1717858487704412700,0.66341259765625,9.831040929412842,0.28969840087890625,0.03965396499633789
1717858487714452700,0.67345263671875,9.821913035583496,0.30271687240600587,0.03725976333618164
1717858487724493800,0.683493896484375,9.824157599639893,0.2786252182006836,0.02663549346923828
1717858487734534000,0.693533935546875,9.839420635223387,0.2888005752563476,0.026186580657958983
1717858487744574700,0.70357470703125,9.82520506286621,0.2893991256713867,0.039354689788818356
1717858487754615800,0.71361572265625,9.823259774017334,0.2950853546142578,0.041000703430175776
1717858487764655900,0.72365576171875,9.834931507110594,0.2953846298217773,0.034715924072265626
1717858487774696700,0.73369677734375,9.824756150054931,0.3000233955383301,0.026785131072998045
1717858487784736500,0.743736572265625,9.824905787658691,0.29448680419921874,0.03965396499633789
1717858487794777600,0.753777587890625,9.822062673187256,0.2914940521240234,0.03815758895874023
1717858487804817700,0.763817626953125,9.83178911743164,0.29089550170898437,0.040701428222656245
1717858487814858800,0.773858642578125,9.82535470046997,0.29388825378417965,0.0234931037902832
1717858487824899600,0.783899658203125,9.824756150054931,0.3003226707458496,0.031872809600830075
1717858487834939600,0.793939697265625,9.833734406280517,0.28356325912475583,0.03860650177001953
1717858487844980700,0.803980712890625,9.834482594299315,0.29074586410522457,0.03696048812866211
1717858487855020800,0.814020751953125,9.828347452545165,0.2959831802368164,0.03666121292114258
1717858487865061600,0.8240615234375,9.826402163696288,0.2941875289916992,0.028431144714355466
1717858487875103000,0.83410302734375,9.821464122772216,0.29343934097290036,0.035763387298583985
1717858487885143000,0.84414306640625,9.811288765716553,0.29224224014282224,0.04519055633544922
1717858487895184100,0.85418408203125,9.821314485168456,0.3006219459533691,0.04474164352416992
1717858487905224200,0.86422412109375,9.823110136413574,0.2920926025390625,0.03725976333618164
1717858487915265000,0.87426513671875,9.82565397567749,0.2902969512939453,0.03696048812866211
1717858487925304800,0.884304931640625,9.835530057525634,0.2904465888977051,0.02693476867675781
1717858487935346000,0.894345947265625,9.830143103790283,0.2882020248413086,0.037110125732421874
1717858487945387000,0.904386962890625,9.8319387550354,0.30301614761352536,0.03456628646850586
1717858487955426800,0.9144267578125,9.828946002960205,0.28476035995483395,0.0326209976196289
1717858487965468000,0.924468017578125,9.829993466186522,0.29433716659545894,0.03232172241210937
1717858487975508000,0.934508056640625,9.827748902130127,0.29927520751953124,0.03666121292114258
1717858487985549000,0.944549072265625,9.82505542526245,0.3000233955383301,0.04085106582641601
1717858487995589000,0.954589111328125,9.83208839263916,0.30047230834960936,0.04534019393920898
1717858488005630000,0.9646298828125,9.820715934753418,0.2856581855773926,0.03561374969482422
1717858488015671000,0.974671142578125,9.821613760375977,0.28311434631347654,0.03142389678955078
1717858488025711000,0.984711181640625,9.827299989318847,0.29014731369018554,0.027383681488037107
1717858488035752000,0.994751953125,9.831489842224121,0.2868552864074707,0.044891281127929686
1717858488045791700,1.004791748046875,9.833285493469237,0.2911947769165039,0.03800795135498047
1717858488055832800,1.014832763671875,9.824756150054931,0.2882020248413086,0.03277063522338867
1717858488065874000,1.0248740234375,9.82580361328125,0.2893991256713867,0.03696048812866211
1717858488075914000,1.0349140625,9.837176071166992,0.2937386161804199,0.028431144714355466
1717858488085954800,1.044954833984375,9.827150351715087,0.29448680419921874,0.04399345550537109
1717858488095995000,1.054994873046875,9.827299989318847,0.2920926025390625,0.03920505218505859
1717858488106036000,1.065035888671875,9.826252526092528,0.29224224014282224,0.04339490509033203
1717858488116076000,1.075075927734375,9.820865572357176,0.28790274963378903,0.03725976333618164
1717858488126116900,1.085116943359375,9.842862300109863,0.29553426742553707,0.025737667846679687
1717858488136158000,1.095157958984375,9.834482594299315,0.29448680419921874,0.03980360260009765
1717858488146198000,1.105197998046875,9.817423907470703,0.2910451393127441,0.03486556167602539
1717858488156239000,1.115239013671875,9.830442378997802,0.28655601119995117,0.032920272827148434
1717858488166279200,1.125279052734375,9.828946002960205,0.28969840087890625,0.03815758895874023
1717858488176320000,1.135320068359375,9.83134020462036,0.28730419921875,0.03441664886474609
1717858488186361000,1.145361083984375,9.83163947982788,0.29822774429321286,0.03202244720458984
1717858488196401000,1.15540087890625,9.828347452545165,0.29239187774658204,0.044891281127929686
1717858488206442000,1.16544189453125,9.835230782318115,0.30690672531127927,0.04234744186401367
1717858488216482000,1.17548193359375,9.828796365356444,0.30047230834960936,0.030825346374511717
1717858488226523000,1.18552294921875,9.82535470046997,0.2973299186706543,0.03007715835571289
1717858488236563000,1.19556298828125,9.808296013641357,0.30466216125488277,0.030226795959472655
1717858488246604000,1.20560400390625,9.826701438903807,0.2989759323120117,0.02528875503540039
1717858488256644900,1.215644775390625,9.835679695129395,0.2937386161804199,0.0383072265625
1717858488266685000,1.225684814453125,9.828497090148925,0.2947860794067383,0.036361937713623046
1717858488276726000,1.23572607421875,9.820715934753418,0.29777883148193357,0.03920505218505859
1717858488286766000,1.24576611328125,9.822062673187256,0.30196868438720703,0.031573534393310544
1717858488296807200,1.25580712890625,9.825953250885009,0.3001730331420898,0.02498947982788086
1717858488306848000,1.265847900390625,9.829843828582764,0.3033154228210449,0.037708676147460936
1717858488316887800,1.2758876953125,9.829544553375243,0.2952349922180176,0.033818098449707026
1717858488326929000,1.285928955078125,9.827599264526366,0.28730419921875,0.03441664886474609
1717858488336969000,1.295968994140625,9.822212310791015,0.2958335426330566,0.027682956695556638
1717858488347009800,1.306009765625,9.828946002960205,0.29224224014282224,0.038756139373779294
1717858488357049900,1.3160498046875,9.823110136413574,0.30630817489624024,0.02902969512939453
1717858488367091000,1.326091064453125,9.833435131072997,0.29403789138793945,0.03202244720458984
1717858488377132000,1.336132080078125,9.832686943054199,0.28640637359619137,0.03247136001586914
1717858488387172000,1.346172119140625,9.81862100830078,0.29433716659545894,0.027383681488037107
1717858488397213000,1.356212890625,9.796773918151855,0.2958335426330566,0.031573534393310544
1717858488407253000,1.3662529296875,9.785850373077391,0.29867665710449215,0.037409400939941405
1717858488417294000,1.376294189453125,9.88296517791748,0.2989759323120117,0.04713584518432617
1717858488427334100,1.386334228515625,9.840617736053467,0.29284079055786133,0.02977788314819336
1717858488437375000,1.396375,9.798868844604492,0.2958335426330566,0.03067570877075195
1717858488447416000,1.406416015625,9.829694190979003,0.2840121719360351,0.04938040924072265
1717858488457455900,1.416455810546875,9.847052153015136,0.2765302917480469,0.02693476867675781
1717858488467497000,1.4264970703125,9.814580792999267,0.29388825378417965,0.026036943054199218
1717858488477537000,1.436537109375,9.80679963760376,0.30570962448120115,0.033219548034667964
1717858488487577900,1.446577880859375,9.808296013641357,0.3001730331420898,0.027533319091796873
1717858488497619000,1.456618896484375,9.835530057525634,0.3033154228210449,0.030825346374511717
1717858488507659000,1.466658935546875,9.84465795135498,0.311545491027832,0.05027823486328125
1717858488517699800,1.476699951171875,9.814730430603026,0.2950853546142578,0.04249707946777344
1717858488527740000,1.486739990234375,9.816526081848144,0.2952349922180176,0.03007715835571289
1717858488537781000,1.496781005859375,9.82505542526245,0.28446108474731446,0.023792378997802732
1717858488547821000,1.506821044921875,9.843161575317382,0.29568390502929687,0.022146365356445312
1717858488557862100,1.516862060546875,9.817423907470703,0.2979284690856933,0.027234043884277342
1717858488567903000,1.526903076171875,9.841515561676024,0.2811690574645996,0.03336918563842773
1717858488577943000,1.536943115234375,9.820117384338378,0.2850596351623535,0.04219780426025391
1717858488587984100,1.546984130859375,9.788992762756347,0.30196868438720703,0.032920272827148434
1717858488598024000,1.55702392578125,9.828646727752686,0.30570962448120115,0.030825346374511717
1717858488608064800,1.567064697265625,9.86396120223999,0.3176806327819824,0.02498947982788086
1717858488618105900,1.57710595703125,9.829993466186522,0.29403789138793945,0.02483984222412109
1717858488628146000,1.58714599609375,9.798270294189452,0.296881005859375,0.042945992279052735
1717858488638187000,1.59718701171875,9.808146376037596,0.29867665710449215,0.0469862075805664
1717858488648227000,1.60722705078125,9.837176071166992,0.28490999755859375,0.02902969512939453
1717858488658268000,1.617267822265625,9.834931507110594,0.2877531120300293,0.01915361328125
1717858488668308000,1.627307861328125,9.821015209960937,0.3010708587646484,0.024390929412841794
1717858488678349000,1.63734912109375,9.815478618621826,0.2973299186706543,0.042646717071533204
1717858488688390100,1.64739013671875,9.813234054565429,0.3003226707458496,0.04608838195800781
1717858488698430000,1.657429931640625,9.83807389678955,0.3028665100097656,0.04534019393920898
1717858488708471000,1.667470947265625,9.821015209960937,0.3010708587646484,0.033518823242187495
1717858488718510800,1.6775107421875,9.824905787658691,0.2920926025390625,0.035763387298583985
1717858488728552000,1.687552001953125,9.81248586654663,0.29284079055786133,0.016460136413574217
1717858488738592800,1.6975927734375,9.828347452545165,0.2867056488037109,0.022296002960205077
1717858488748632800,1.7076328125,9.836577520751952,0.2862567359924316,0.029628245544433593
1717858488758674000,1.717673828125,9.8319387550354,0.30092122116088865,0.040102877807617184
1717858488768714000,1.7277138671875,9.817723182678222,0.29613281784057616,0.03501519927978516
1717858488778755000,1.737755126953125,9.817573545074461,0.2976291938781738,0.03247136001586914
1717858488788795000,1.747794921875,9.8319387550354,0.3128922294616699,0.03142389678955078
1717858488798836000,1.7578359375,9.835978970336914,0.3006219459533691,0.047584757995605464
1717858488808877000,1.767876953125,9.830891291809081,0.3081038261413574,0.014963760375976562
1717858488818917000,1.777917236328125,9.839420635223387,0.29284079055786133,0.01750759963989258
1717858488828958000,1.7879580078125,9.843760125732421,0.2723404388427734,0.01780687484741211
1717858488838998000,1.797998046875,9.823559049224853,0.28999767608642574,0.0073322425842285155
1717858488849039000,1.8080390625,9.809044201660155,0.2867056488037109,0.021398177337646485
1717858488859080200,1.818080078125,9.812186591339112,0.3087023765563965,0.03232172241210937
1717858488869119700,1.82811962890625,9.845406139373779,0.30047230834960936,0.04444236831665039
1717858488879160600,1.83816064453125,9.840468098449707,0.30735563812255856,0.058657940673828124
1717858488889200600,1.84820068359375,9.82535470046997,0.29882629470825195,0.05835866546630859
1717858488899241700,1.85824169921875,9.809642752075195,0.3003226707458496,0.03681085052490234
1717858488909281500,1.868281494140625,9.829245278167724,0.2876034744262695,0.04085106582641601
1717858488919322400,1.878322265625,9.846154327392577,0.28580782318115233,0.022146365356445312
1717858488929363500,1.888363525390625,9.832836580657958,0.2888005752563476,0.016759411621093748
1717858488939403500,1.898403564453125,9.824905787658691,0.2932897033691406,0.025438392639160156
1717858488949444600,1.908444580078125,9.829095640563965,0.3012204963684082,0.031124621582031248
1717858488959484700,1.918484619140625,9.824007962036132,0.28311434631347654,0.04967968444824218
1717858488969525500,1.928525390625,9.839270997619629,0.3072060005187988,0.045938744354248044
1717858488979566600,1.938566650390625,9.833285493469237,0.3037643356323242,0.03950432739257812
1717858488989606700,1.948606689453125,9.824756150054931,0.2947860794067383,0.03696048812866211
1717858488999647700,1.958647705078125,9.817124632263184,0.29358897857666016,0.033219548034667964
1717858489009687600,1.9686875,9.833285493469237,0.2862567359924316,0.037110125732421874
1717858489019728600,1.978728759765625,9.84555577697754,0.2775777549743652,0.02319382858276367
1717858489029768700,1.988768798828125,9.835679695129395,0.2861070983886719,0.036361937713623046
1717858489039809800,1.998809814453125,9.81188731613159,0.28311434631347654,0.03277063522338867
1717858489049850600,2.0088505859375,9.822661223602294,0.2931400657653808,0.029328970336914062
1717858489059890400,2.018890380859375,9.830292741394043,0.2962824554443359,0.03845686416625976
1717858489069931500,2.028931640625,9.836427883148193,0.29493571701049803,0.03755903854370117
1717858489079971600,2.0389716796875,9.822661223602294,0.2964320930480957,0.04519055633544922
1717858489090012700,2.0490126953125,9.815927531433104,0.2964320930480957,0.03591302490234375
1717858489100053500,2.059053466796875,9.829245278167724,0.28745383682250975,0.022296002960205077
1717858489110093600,2.069093505859375,9.827599264526366,0.28909985046386716,0.027533319091796873
1717858489120134700,2.079134765625,9.832686943054199,0.29777883148193357,0.01750759963989258
1717858489130174700,2.0891748046875,9.819818109130859,0.28520927276611324,0.031573534393310544
1717858489140215600,2.099215576171875,9.81233622894287,0.2989759323120117,0.03651157531738281
1717858489150256600,2.109256591796875,9.824157599639893,0.30181904678344723,0.042945992279052735
1717858489160296700,2.119296630859375,9.828646727752686,0.30316578521728516,0.041000703430175776
1717858489170337800,2.129337890625,9.839270997619629,0.2947860794067383,0.029478607940673827
1717858489180377600,2.139377685546875,9.83178911743164,0.30406361083984373,0.03696048812866211
1717858489190418400,2.14941845703125,9.810390940093994,0.29388825378417965,0.03142389678955078
1717858489200458500,2.15945849609375,9.81847137069702,0.28161797027587887,0.02633621826171875
1717858489210499600,2.16949951171875,9.835530057525634,0.2819172454833984,0.027832594299316404
1717858489220540400,2.17954052734375,9.823858324432372,0.30316578521728516,0.03725976333618164
1717858489230580500,2.18958056640625,9.814131880187988,0.3000233955383301,0.02902969512939453
1717858489240621600,2.19962158203125,9.821015209960937,0.29972412033081053,0.03666121292114258
1717858489250661600,2.20966162109375,9.834332956695556,0.3055599868774414,0.03800795135498047
1717858489260702700,2.21970263671875,9.83238766784668,0.2910451393127441,0.033518823242187495
1717858489270743600,2.22974365234375,9.833734406280517,0.3058592620849609,0.036361937713623046
1717858489280783600,2.23978369140625,9.824307237243652,0.2904465888977051,0.03441664886474609
1717858489290824700,2.24982470703125,9.824157599639893,0.29403789138793945,0.040102877807617184
1717858489300864800,2.25986474609375,9.834632231903075,0.2953846298217773,0.02079962692260742
1717858489310905600,2.269905517578125,9.81906992111206,0.29269115295410153,0.028131869506835935
1717858489320945400,2.2799453125,9.813982242584228,0.2980781066894531,0.03561374969482422
1717858489330986500,2.289986572265625,9.816675719451904,0.29703064346313474,0.02858078231811523
1717858489341027600,2.300027587890625,9.83822353439331,0.29822774429321286,0.02498947982788086
1717858489351067600,2.310067626953125,9.834332956695556,0.3037643356323242,0.026186580657958983
1717858489361108500,2.3201083984375,9.82535470046997,0.2985270195007324,0.027682956695556638
1717858489371148500,2.3301484375,9.8311905670166,0.2916436897277832,0.02663549346923828
1717858489381189600,2.340189697265625,9.832986218261718,0.2929904281616211,0.0326209976196289
1717858489391230500,2.35023046875,9.822062673187256,0.28476035995483395,0.03995324020385742
1717858489401270500,2.3602705078125,9.714772511291503,0.2931400657653808,0.048931496429443354
1717858489411311600,2.3703115234375,9.871143807220458,0.30346506042480464,0.04563946914672851
1717858489421351700,2.3803515625,9.95389340209961,0.2856581855773926,0.03681085052490234
1717858489431392800,2.390392822265625,9.873837284088134,0.28476035995483395,0.03007715835571289
1717858489441433600,2.40043359375,9.753379013061522,0.28371289672851563,0.04683656997680664
1717858489451473700,2.4104736328125,9.749638072967528,0.2862567359924316,0.03426701126098632
1717858489461514800,2.4205146484375,9.861866275787353,0.29239187774658204,0.03591302490234375
1717858489471554600,2.430554443359375,9.891494521331786,0.30840310134887694,0.04339490509033203
1717858489481595400,2.440595458984375,9.833285493469237,0.31184476623535157,0.04369418029785156
1717858489491635500,2.450635498046875,9.769689511871338,0.31663316955566406,0.04803367080688476
1717858489501676500,2.460676513671875,9.790040225982665,0.30361469802856444,0.049530046844482416
1717858489511717600,2.470717529296875,9.842712662506102,0.2905962265014648,0.022445640563964843
1717858489521757700,2.4807578125,9.862614463806151,0.30316578521728516,0.018854338073730468
1717858489531798500,2.490798583984375,9.828946002960205,0.2850596351623535,0.014065934753417967
1717858489541838600,2.500838623046875,9.791087689208984,0.28909985046386716,0.026186580657958983
1717858489551879700,2.510879638671875,9.795576817321777,0.28655601119995117,0.04189852905273437
1717858489561920800,2.520920654296875,9.836577520751952,0.28520927276611324,0.060303954315185544
1717858489571960600,2.530960693359375,9.896881475067138,0.2832639839172363,0.0626981559753418
1717858489582001700,2.541001708984375,9.782857621002197,0.2979284690856933,0.030526071166992186
1717858489592041500,2.55104150390625,9.74888988494873,0.30301614761352536,0.035763387298583985
1717858489602082600,2.56108251953125,9.823708686828613,0.3103483901977539,0.02259527816772461
1717858489612122600,2.57112255859375,9.885658654785155,0.3081038261413574,0.0282815071105957
1717858489622163500,2.58116357421875,9.840468098449707,0.29388825378417965,0.055365913391113276
1717858489632204500,2.59120458984375,9.766547122192382,0.2867056488037109,0.037110125732421874
1717858489642244600,2.60124462890625,9.783605809020996,0.2861070983886719,0.03456628646850586
1717858489652285700,2.61128564453125,9.85094273071289,0.2738368148803711,0.03366846084594726
1717858489662325500,2.621325439453125,9.87712931137085,0.29553426742553707,0.035763387298583985
1717858489672366600,2.63136669921875,9.830891291809081,0.2919429649353027,0.01975216369628906
1717858489682407700,2.64140771484375,9.78734674911499,0.3006219459533691,0.03396773605346679
1717858489692447700,2.65144775390625,9.815328981018066,0.29358897857666016,0.046238019561767575
1717858489702488600,2.661488525390625,9.855581496429442,0.29074586410522457,0.04414309310913086
1717858489712528600,2.671528564453125,9.8572275100708,0.28206688308715816,0.040102877807617184
1717858489722569700,2.68156982421875,9.827000714111328,0.2980781066894531,0.03860650177001953
1717858489732609500,2.691609619140625,9.807697463226317,0.28730419921875,0.0282815071105957
1717858489742650600,2.701650634765625,9.815029705810547,0.2856581855773926,0.0330699104309082
1717858489752691500,2.71169140625,9.843610488128661,0.2920926025390625,0.03277063522338867
1717858489762731500,2.7217314453125,9.8442090385437,0.29224224014282224,0.04878185882568359
1717858489772772600,2.731772705078125,9.808744926452636,0.296881005859375,0.05057751007080078
1717858489782812700,2.741812744140625,9.803806885528564,0.3007715835571289,0.039055414581298825
1717858489792853500,2.751853515625,9.828946002960205,0.30092122116088865,0.03815758895874023
1717858489802894600,2.76189453125,9.858723886108399,0.30301614761352536,0.02124853973388672
1717858489812934700,2.7719345703125,9.85124200592041,0.30795418853759765,0.04115034103393554
1717858489822975700,2.781975830078125,9.824307237243652,0.2750339157104492,0.03815758895874023
1717858489833015800,2.792015869140625,9.818172095489501,0.28431144714355466,0.036062662506103516
1717858489843056600,2.802056640625,9.823259774017334,0.2871545616149902,0.043245267486572266
1717858489853097700,2.81209765625,9.834482594299315,0.2919429649353027,0.033818098449707026
1717858489863137500,2.822137451171875,9.848698166656494,0.3058592620849609,0.013617021942138671
1717858489873179000,2.832178955078125,9.843011937713623,0.3007715835571289,0.03950432739257812
1717858489883219000,2.842218994140625,9.825953250885009,0.28446108474731446,0.051475335693359374
1717858489893260000,2.852260009765625,9.815029705810547,0.29089550170898437,0.03800795135498047
1717858489903301000,2.862301025390625,9.843909763336182,0.29837738189697266,0.04339490509033203
1717858489913341000,2.8723408203125,9.851391643524169,0.2904465888977051,0.025887305450439452
1717858489923381800,2.8823818359375,9.821913035583496,0.28865093765258787,0.016460136413574217
1717858489933421800,2.892421875,9.829843828582764,0.2904465888977051,0.025438392639160156
1717858489943463000,2.902462890625,9.828497090148925,0.2893991256713867,0.024091654205322263
1717858489953503000,2.9125029296875,9.828197814941406,0.30047230834960936,0.04234744186401367
1717858489963543800,2.922543701171875,9.833584768676758,0.29403789138793945,0.03411737365722656
1717858489973585000,2.9325849609375,9.817723182678222,0.3006219459533691,0.02663549346923828
1717858489983625000,2.942625,9.834482594299315,0.3051110740661621,0.028431144714355466
1717858489993666000,2.952666015625,9.839719910430908,0.29972412033081053,0.03681085052490234
1717858490003705900,2.962705810546875,9.83178911743164,0.29089550170898437,0.029927520751953124
1717858490013747000,2.972746826171875,9.829993466186522,0.2911947769165039,0.03007715835571289
1717858490023788000,2.9827880859375,9.830442378997802,0.2976291938781738,0.03172317199707031
1717858490033827800,2.992827880859375,9.828646727752686,0.2989759323120117,0.029478607940673827
1717858490043868700,3.00286865234375,9.82580361328125,0.2979284690856933,0.022296002960205077
1717858490053908700,3.01290869140625,9.803507610321045,0.2932897033691406,0.043245267486572266
1717858490063949800,3.02294970703125,9.817124632263184,0.2929904281616211,0.03800795135498047
1717858490073990000,3.032989990234375,9.846752877807617,0.30780455093383785,0.04129997863769531
1717858490084031000,3.043031005859375,9.847800341033935,0.2973299186706543,0.03755903854370117
1717858490094071800,3.05307177734375,9.816376444244383,0.3016694091796875,0.030526071166992186
1717858490104111900,3.06311181640625,9.808296013641357,0.2902969512939453,0.03725976333618164
1717858490114153000,3.073153076171875,9.832537305450439,0.2768295669555664,0.02663549346923828
1717858490124193000,3.083193115234375,9.843610488128661,0.2904465888977051,0.0282815071105957
1717858490134233900,3.09323388671875,9.847201790618897,0.2980781066894531,0.028431144714355466
1717858490144275000,3.10327490234375,9.824157599639893,0.2991255699157715,0.04399345550537109
1717858490154315000,3.11331494140625,9.817124632263184,0.30301614761352536,0.03651157531738281
1717858490164356000,3.123356201171875,9.82460651245117,0.31169512863159177,0.031573534393310544
1717858490174396000,3.13339599609375,9.827000714111328,0.3066074501037597,0.037708676147460936
1717858490184436700,3.143436767578125,9.810989490509032,0.2889502128601074,0.0326209976196289
1717858490194477800,3.153477783203125,9.8189202835083,0.29358897857666016,0.03815758895874023
1717858490204518000,3.163517822265625,9.820865572357176,0.28924948806762696,0.038756139373779294
1717858490214558700,3.173558837890625,9.839420635223387,0.29284079055786133,0.026186580657958983
1717858490224598800,3.183598876953125,9.83208839263916,0.2882020248413086,0.015412673187255858
1717858490234640000,3.193639892578125,9.819668471527098,0.3012204963684082,0.03696048812866211
1717858490244681000,3.203680908203125,9.830442378997802,0.2946364418029785,0.04279635467529297
1717858490254721000,3.213720947265625,9.831489842224121,0.3097498397827148,0.025887305450439452
1717858490264761900,3.223761962890625,9.826551801300049,0.29433716659545894,0.03995324020385742
1717858490274802000,3.233802001953125,9.824905787658691,0.2932897033691406,0.04144961624145507
1717858490284843000,3.243843017578125,9.820267021942138,0.2953846298217773,0.0234931037902832
1717858490294882800,3.2538828125,9.83163947982788,0.2904465888977051,0.017657237243652344
1717858490304923600,3.263923583984375,9.829694190979003,0.29014731369018554,0.025737667846679687
1717858490314964700,3.27396484375,9.835978970336914,0.30181904678344723,0.04159925384521484
1717858490325004800,3.2840048828125,9.821015209960937,0.30271687240600587,0.03950432739257812
1717858490335046000,3.2940458984375,9.827599264526366,0.2979284690856933,0.02858078231811523
1717858490345086000,3.3040859375,9.832537305450439,0.2950853546142578,0.025737667846679687
1717858490355126800,3.314126708984375,9.84465795135498,0.30570962448120115,0.036361937713623046
1717858490365167900,3.32416796875,9.836577520751952,0.2932897033691406,0.046238019561767575
1717858490375208000,3.3342080078125,9.795876092529296,0.28490999755859375,0.03681085052490234
1717858490385249000,3.3442490234375,9.731232647705077,0.3081038261413574,0.030526071166992186
1717858490395288800,3.354288818359375,9.92217023010254,0.28924948806762696,0.023942016601562498
1717858490405330000,3.364329833984375,9.879822788238524,0.2947860794067383,0.03366846084594726
1717858490415371000,3.37437109375,9.823559049224853,0.29074586410522457,0.03531447448730469
1717858490425411000,3.3844111328125,9.810839852905273,0.27952304382324217,0.05117606048583984
1717858490435452000,3.394451904296875,9.805602536773682,0.2748842781066894,0.016460136413574217
1717858490445491700,3.40449169921875,9.819219558715819,0.29658173065185545,0.026036943054199218
1717858490455532800,3.41453271484375,9.85692823486328,0.31663316955566406,0.039055414581298825
1717858490465574000,3.424573974609375,9.840318460845946,0.3206733848571777,0.03696048812866211
1717858490475614000,3.434614013671875,9.813533329772948,0.3016694091796875,0.04144961624145507
1717858490485654800,3.44465478515625,9.80679963760376,0.3010708587646484,0.04578910675048828
1717858490495694800,3.45469482421875,9.815927531433104,0.28535891036987304,0.03651157531738281
1717858490505736000,3.46473583984375,9.816226806640625,0.3033154228210449,0.031573534393310544
1717858490515776000,3.47477587890625,9.843011937713623,0.2902969512939453,0.02977788314819336
1717858490525816800,3.48481689453125,9.811288765716553,0.29089550170898437,0.029927520751953124
1717858490535858000,3.49485791015625,9.83208839263916,0.28012159423828126,0.03396773605346679
1717858490545898000,3.50489794921875,9.853486569976805,0.2659060218811035,0.055066638183593745
1717858490555939000,3.51493896484375,9.796474642944336,0.2838625343322754,0.04249707946777344
1717858490565979000,3.524978759765625,9.79348189086914,0.311545491027832,0.02498947982788086
1717858490576020000,3.53502001953125,9.840617736053467,0.31483751831054685,0.011821370697021483
1717858490586061000,3.54506103515625,9.859172798919678,0.2998737579345703,0.025139117431640625
1717858490596100900,3.555100830078125,9.829843828582764,0.3024175971984863,0.04384381790161133
1717858490606141700,3.5651416015625,9.800814133453368,0.2905962265014648,0.05057751007080078
1717858490616181800,3.575181640625,9.796624280548095,0.28924948806762696,0.03591302490234375
1717858490626222800,3.585222900390625,9.834931507110594,0.28431144714355466,0.0282815071105957
1717858490636264000,3.595263916015625,9.850044905090332,0.29239187774658204,0.023942016601562498
1717858490646304000,3.605303955078125,9.826551801300049,0.2964320930480957,0.02663549346923828
1717858490656344800,3.6153447265625,9.81248586654663,0.2911947769165039,0.046537294769287106
1717858490666385000,3.625385009765625,9.821314485168456,0.2888005752563476,0.05551555099487304
1717858490676426000,3.635426025390625,9.835380419921874,0.29239187774658204,0.044292730712890624
1717858490686466800,3.645466796875,9.840468098449707,0.3007715835571289,0.04234744186401367
1717858490696507000,3.6555068359375,9.843011937713623,0.29074586410522457,0.027533319091796873
1717858490706548000,3.6655478515625,9.822062673187256,0.2929904281616211,0.030226795959472655
1717858490716587800,3.675587890625,9.816974994659423,0.2914940521240234,0.027084406280517576
1717858490726628900,3.68562890625,9.823559049224853,0.28805238723754883,0.027832594299316404
1717858490736669000,3.6956689453125,9.849446354675292,0.2947860794067383,0.03426701126098632
1717858490746709800,3.705709716796875,9.833435131072997,0.2914940521240234,0.037708676147460936
1717858490756750800,3.715750732421875,9.820117384338378,0.3012204963684082,0.0326209976196289
1717858490766791000,3.725791015625,9.816526081848144,0.30630817489624024,0.03621230010986328
1717858490776831700,3.735831787109375,9.8442090385437,0.2976291938781738,0.03441664886474609
1717858490786871800,3.745871826171875,9.843610488128661,0.2991255699157715,0.03486556167602539
1717858490796913000,3.755912841796875,9.828497090148925,0.28371289672851563,0.043245267486572266
1717858490806954000,3.7659541015625,9.827150351715087,0.2850596351623535,0.03202244720458984
1717858490816994000,3.775994140625,9.817573545074461,0.2929904281616211,0.021996727752685546
1717858490827035000,3.786034912109375,9.829843828582764,0.29179332733154295,0.037708676147460936
1717858490837075000,3.796074951171875,9.837026433563231,0.3003226707458496,0.02483984222412109
1717858490847116000,3.806115966796875,9.828646727752686,0.3007715835571289,0.03666121292114258
1717858490857156900,3.816156982421875,9.839869548034667,0.29014731369018554,0.041000703430175776
1717858490867196700,3.82619677734375,9.811288765716553,0.28909985046386716,0.018704700469970702
1717858490877237800,3.83623779296875,9.813234054565429,0.2929904281616211,0.02184709014892578
1717858490887277800,3.84627783203125,9.823110136413574,0.2950853546142578,0.03247136001586914
1717858490897319000,3.85631884765625,9.835829332733153,0.29703064346313474,0.041748891448974604
1717858490907359700,3.86635986328125,9.83208839263916,0.3049614364624023,0.044592005920410155
1717858490917399800,3.87639990234375,9.827599264526366,0.30885201416015623,0.04683656997680664
1717858490927441000,3.88644091796875,9.816226806640625,0.2902969512939453,0.033818098449707026
1717858490937481000,3.89648095703125,9.842413387298583,0.2950853546142578,0.03890577697753906
1717858490947522000,3.90652197265625,9.842712662506102,0.2985270195007324,0.020649989318847654
1717858490957563000,3.91656298828125,9.8311905670166,0.30615853729248044,0.02977788314819336
1717858490967603000,3.92660302734375,9.826402163696288,0.2953846298217773,0.0522235237121582
1717858490977644000,3.93664404296875,9.82505542526245,0.29134441452026366,0.05386953735351562
1717858490987683800,3.946683837890625,9.823559049224853,0.3072060005187988,0.03815758895874023
1717858490997724700,3.956724609375,9.834332956695556,0.3028665100097656,0.03411737365722656
1717858491007766000,3.96676611328125,9.822511585998535,0.29403789138793945,0.03800795135498047
1717858491017805800,3.976805908203125,9.823559049224853,0.2856581855773926,0.04444236831665039
1717858491027847000,3.986846923828125,9.821763397979735,0.28057050704956055,0.025438392639160156
1717858491037887000,3.996886962890625,9.827898539733885,0.28700492401123046,0.03561374969482422
1717858491047927800,4.006927734375,9.83163947982788,0.29343934097290036,0.019901801300048826
1717858491057967900,4.0169677734375,9.83238766784668,0.2962824554443359,0.03426701126098632
1717858491068009000,4.027009033203125,9.824756150054931,0.3006219459533691,0.027084406280517576
1717858491078049800,4.0370498046875,9.81996774673462,0.29882629470825195,0.040701428222656245
1717858491088089900,4.04708984375,9.816226806640625,0.303913973236084,0.030526071166992186
1717858491098131000,4.057130859375,9.834781869506836,0.3087023765563965,0.047584757995605464
1717858491108171000,4.0671708984375,9.824905787658691,0.2904465888977051,0.042646717071533204
1717858491118212000,4.077212158203125,9.820566297149657,0.2947860794067383,0.031573534393310544
1717858491128253000,4.0872529296875,9.80620108718872,0.2958335426330566,0.031573534393310544
1717858491138292700,4.097292724609375,9.825953250885009,0.3001730331420898,0.03411737365722656
1717858491148333800,4.107333740234375,9.841665199279785,0.29134441452026366,0.032920272827148434
1717858491158374000,4.117373779296875,9.815179343414306,0.29358897857666016,0.033818098449707026
1717858491168414700,4.127414794921875,9.823559049224853,0.3082534637451172,0.04189852905273437
1717858491178455800,4.137455810546875,9.826551801300049,0.29284079055786133,0.033219548034667964
1717858491188496000,4.147495849609375,9.827898539733885,0.3010708587646484,0.04474164352416992
1717858491198537000,4.157536865234375,9.83747534637451,0.30151977157592774,0.03950432739257812
1717858491208577000,4.167576904296875,9.8311905670166,0.3024175971984863,0.020649989318847654
1717858491218617900,4.177617919921875,9.807098912811279,0.28924948806762696,0.0383072265625
1717858491228659000,4.187658935546875,9.81278514175415,0.29448680419921874,0.03172317199707031
1717858491238699000,4.197698974609375,9.830741654205323,0.2941875289916992,0.03232172241210937
1717858491248739800,4.20773974609375,9.843161575317382,0.28490999755859375,0.0378583137512207
1717858491258780000,4.21777978515625,9.820566297149657,0.2973299186706543,0.0330699104309082
1717858491268821000,4.227821044921875,9.822960498809813,0.2946364418029785,0.03247136001586914
1717858491278862000,4.237862060546875,9.82520506286621,0.2952349922180176,0.028880057525634766
1717858491288902000,4.24790185546875,9.828946002960205,0.29239187774658204,0.024091654205322263
1717858491298942700,4.257942626953125,9.827898539733885,0.2861070983886719,0.03621230010986328
1717858491308982800,4.267982666015625,9.82535470046997,0.299424845123291,0.02902969512939453
1717858491319023900,4.27802392578125,9.81951883392334,0.28086978225708004,0.03396773605346679
1717858491329065000,4.28806494140625,9.828796365356444,0.30256723480224607,0.04249707946777344
1717858491339104800,4.298104736328125,9.826252526092528,0.30196868438720703,0.04534019393920898
1717858491349145900,4.308145751953125,9.811588040924072,0.3000233955383301,0.040102877807617184
1717858491359186000,4.31818603515625,9.819668471527098,0.28969840087890625,0.02858078231811523
1717858491369227000,4.32822705078125,9.834033681488037,0.28865093765258787,0.046238019561767575
1717858491379267800,4.338267822265625,9.82565397567749,0.30271687240600587,0.03666121292114258
1717858491389308000,4.348307861328125,9.833584768676758,0.2888005752563476,0.03501519927978516
1717858491399349000,4.358348876953125,9.752930100250243,0.3016694091796875,0.03456628646850586
1717858491409388800,4.368388916015625,9.76894132385254,0.3251625129699707,0.037708676147460936
1717858491419430000,4.378429931640625,9.989357514190674,0.2919429649353027,0.04189852905273437
1717858491429470700,4.388470703125,9.930699573516845,0.2702455123901367,0.04414309310913086
1717858491439510800,4.3985107421875,9.771185887908935,0.27144261322021485,0.03815758895874023
1717858491449552000,4.4085517578125,9.720309102630615,0.29358897857666016,0.04219780426025391
1717858491459592000,4.418592041015625,9.835829332733153,0.30137013397216794,0.027682956695556638
1717858491469632800,4.4286328125,9.916932913970946,0.3190273712158203,0.03247136001586914
1717858491479673900,4.438673828125,9.857975698089598,0.31693244476318355,0.031124621582031248
1717858491489714000,4.4487138671875,9.763404732513427,0.321122297668457,0.043245267486572266
1717858491499755000,4.458755126953125,9.759813430023193,0.3093009269714355,0.04085106582641601
1717858491509795000,4.468795166015625,9.836278245544433,0.2871545616149902,0.03277063522338867
1717858491519836000,4.4788359375,9.896432562255859,0.29134441452026366,0.021098902130126954
1717858491529877000,4.488876953125,9.840617736053467,0.3037643356323242,0.025139117431640625
1717858491539917000,4.4989169921875,9.781959795379638,0.29179332733154295,0.036062662506103516
1717858491549958000,4.5089580078125,9.788394212341307,0.27174188842773433,0.03486556167602539
1717858491559997700,4.518997802734375,9.847650703430174,0.29433716659545894,0.033219548034667964
1717858491570038800,4.529038818359375,9.914239437103271,0.2937386161804199,0.04878185882568359
1717858491580079900,4.539079833984375,9.839270997619629,0.2792237686157226,0.04773439559936523
1717858491590120000,4.549119873046875,9.72240402908325,0.2947860794067383,0.037409400939941405
1717858491600160800,4.559160888671875,9.771036250305174,0.3049614364624023,0.0326209976196289
1717858491610200800,4.569200927734375,9.886855755615233,0.29822774429321286,0.021996727752685546
1717858491620242000,4.579241943359375,9.892242709350585,0.29822774429321286,0.02663549346923828
1717858491630282800,4.58928271484375,9.794230078887939,0.29972412033081053,0.042945992279052735
1717858491640322800,4.59932275390625,9.766547122192382,0.3021183219909668,0.04249707946777344
1717858491650364000,4.609364013671875,9.80635072479248,0.28356325912475583,0.040102877807617184
1717858491660404000,4.619404052734375,9.865158303070068,0.28266543350219725,0.03800795135498047
1717858491670445000,4.629445068359375,9.860519537353515,0.29179332733154295,0.029478607940673827
1717858491680486000,4.63948583984375,9.81338369216919,0.3007715835571289,0.029628245544433593
1717858491690526000,4.64952587890625,9.802609784698486,0.29718028106689454,0.03127425918579101
1717858491700567000,4.659567138671875,9.840318460845946,0.28730419921875,0.027383681488037107
1717858491710606800,4.66960693359375,9.848997441864013,0.2877531120300293,0.04085106582641601
1717858491720648000,4.67964794921875,9.841964474487304,0.30316578521728516,0.05596446380615234
1717858491730687700,4.689687744140625,9.814131880187988,0.28446108474731446,0.03950432739257812
1717858491740728800,4.699728759765625,9.801263046264648,0.2769792045593262,0.0234931037902832
1717858491750770000,4.70977001953125,9.823559049224853,0.29403789138793945,0.028431144714355466
1717858491760810000,4.71981005859375,9.868300692749022,0.30570962448120115,0.045938744354248044
1717858491770850800,4.729850830078125,9.83792425918579,0.2931400657653808,0.039055414581298825
1717858491780891000,4.739890869140625,9.805003986358642,0.28909985046386716,0.03067570877075195
1717858491790932000,4.749931884765625,9.809642752075195,0.2902969512939453,0.03920505218505859
1717858491800973000,4.75997314453125,9.8449572265625,0.29703064346313474,0.03336918563842773
1717858491811012900,4.770012939453125,9.85767642288208,0.30271687240600587,0.02079962692260742
1717858491821054000,4.780053955078125,9.818172095489501,0.299424845123291,0.033818098449707026
1717858491831093800,4.79009375,9.826851076507568,0.29179332733154295,0.03860650177001953
1717858491841134800,4.800134765625,9.836128607940672,0.2763806541442871,0.047584757995605464
1717858491851175700,4.81017578125,9.823409411621093,0.2862567359924316,0.03247136001586914
1717858491861215700,4.8202158203125,9.808296013641357,0.3042132484436035,0.0430956298828125
1717858491871256800,4.8302568359375,9.82580361328125,0.3067570877075195,0.03336918563842773
1717858491881297000,4.840296875,9.840318460845946,0.31393969268798827,0.029179332733154296
1717858491891338000,4.850337890625,9.826402163696288,0.3067570877075195,0.04773439559936523
1717858491901378800,4.86037890625,9.814131880187988,0.2962824554443359,0.03980360260009765
1717858491911419000,4.8704189453125,9.822212310791015,0.282815071105957,0.045938744354248044
1717858491921460000,4.8804599609375,9.839270997619629,0.2742857276916504,0.03501519927978516
1717858491931500000,4.8905,9.843161575317382,0.28580782318115233,0.016160861206054686
1717858491941540900,4.900540771484375,9.83223803024292,0.2855085479736328,0.0234931037902832
1717858491951582000,4.91058203125,9.821464122772216,0.28086978225708004,0.02977788314819336
1717858491961622000,4.9206220703125,9.828646727752686,0.28042086944580075,0.049530046844482416
1717858491971663000,4.9306630859375,9.83223803024292,0.299424845123291,0.044292730712890624
1717858491981703000,4.940702880859375,9.842563024902343,0.30316578521728516,0.03531447448730469
1717858491991743700,4.95074365234375,9.828347452545165,0.29927520751953124,0.03516483688354492
1717858492001784800,4.960784912109375,9.81233622894287,0.30630817489624024,0.040102877807617184
1717858492011825000,4.970824951171875,9.814131880187988,0.28865093765258787,0.03965396499633789
1717858492021865700,4.98086572265625,9.796175367736815,0.29448680419921874,0.033818098449707026
1717858492031905800,4.99090576171875,9.822062673187256,0.2920926025390625,0.04474164352416992
1717858492041947000,5.00094677734375,9.8442090385437,0.30181904678344723,0.02124853973388672
1717858492051988000,5.010988037109375,9.836278245544433,0.28371289672851563,0.030526071166992186
1717858492062028000,5.021028076171875,9.815328981018066,0.29388825378417965,0.03950432739257812
1717858492072068900,5.03106884765625,9.82460651245117,0.29433716659545894,0.0383072265625
1717858492082109000,5.04110888671875,9.826701438903807,0.3042132484436035,0.03142389678955078
1717858492092150000,5.05114990234375,9.834931507110594,0.29613281784057616,0.03426701126098632
1717858492102190800,5.06119091796875,9.821164847564697,0.2919429649353027,0.03142389678955078
1717858492112230700,5.071230712890625,9.820117384338378,0.29089550170898437,0.04129997863769531
1717858492122271700,5.081271728515625,9.82520506286621,0.2932897033691406,0.027084406280517576
1717858492132311800,5.091311767578125,9.82550433807373,0.2929904281616211,0.02693476867675781
1717858492142353000,5.101352783203125,9.830143103790283,0.29284079055786133,0.034715924072265626
1717858492152393700,5.111393798828125,9.815478618621826,0.29777883148193357,0.027084406280517576
1717858492162433800,5.121433837890625,9.817124632263184,0.30092122116088865,0.032920272827148434
1717858492172475000,5.131474853515625,9.835829332733153,0.2868552864074707,0.026036943054199218
1717858492182515000,5.141514892578125,9.842413387298583,0.3010708587646484,0.0378583137512207
1717858492192556000,5.15155615234375,9.831489842224121,0.2985270195007324,0.03366846084594726
1717858492202596900,5.161596923828125,9.82565397567749,0.3093009269714355,0.03516483688354492
1717858492212637000,5.171636962890625,9.821314485168456,0.2855085479736328,0.04234744186401367
1717858492222678000,5.181677978515625,9.829993466186522,0.28431144714355466,0.0474351203918457
1717858492232718000,5.191718017578125,9.835829332733153,0.2759317413330078,0.02633621826171875
1717858492242759000,5.201759033203125,9.829993466186522,0.28924948806762696,0.02977788314819336
1717858492252800000,5.211800048828125,9.828347452545165,0.2973299186706543,0.02902969512939453
1717858492262839800,5.22183984375,9.840917011260986,0.2995744827270508,0.03501519927978516
1717858492272881000,5.231880859375,9.832836580657958,0.29822774429321286,0.04055179061889648
1717858492282921000,5.2419208984375,9.815927531433104,0.2925415153503418,0.03277063522338867
1717858492292961800,5.2519619140625,9.827449626922608,0.2929904281616211,0.03531447448730469
1717858492303003000,5.2620029296875,9.814431155395507,0.2775777549743652,0.03336918563842773
1717858492313043000,5.27204296875,9.83163947982788,0.2911947769165039,0.030526071166992186
1717858492323083800,5.282083740234375,9.823110136413574,0.30271687240600587,0.028880057525634766
1717858492333123800,5.292123779296875,9.810989490509032,0.2868552864074707,0.03202244720458984
1717858492343165000,5.3021650390625,9.81188731613159,0.28969840087890625,0.03037643356323242
1717858492353206000,5.3122060546875,9.816526081848144,0.29777883148193357,0.03486556167602539
1717858492363246000,5.32224609375,9.771335525512695,0.30526071166992186,0.03232172241210937
1717858492373287000,5.332286865234375,9.734973587799072,0.30780455093383785,0.03860650177001953
1717858492383327000,5.342326904296875,9.87608184814453,0.32082302246093747,0.03456628646850586
1717858492393368000,5.3523681640625,10.044873065185547,0.273238264465332,0.04279635467529297
1717858492403409000,5.362408935546875,9.841216286468505,0.2650081962585449,0.01092354507446289
1717858492413448700,5.37244873046875,9.647136314392089,0.2838625343322754,0.027084406280517576
1717858492423489800,5.38248974609375,9.731980835723876,0.28655601119995117,0.0383072265625
1717858492433529900,5.39252978515625,9.950302099609374,0.28924948806762696,0.03277063522338867
1717858492443571000,5.402571044921875,9.954791227722167,0.30780455093383785,0.03621230010986328
1717858492453611800,5.41261181640625,9.788843125152587,0.31588498153686523,0.05237316131591797
1717858492463651800,5.42265185546875,9.693972884368895,0.30780455093383785,0.054468087768554684
1717858492473693000,5.43269287109375,9.790638776397705,0.31259295425415035,0.04384381790161133
1717858492483733000,5.44273291015625,9.90825393295288,0.3097498397827148,0.029478607940673827
1717858492493773800,5.45277392578125,9.887454306030273,0.30690672531127927,0.006434416961669922
1717858492503815000,5.46281494140625,9.791386964416503,0.2950853546142578,0.020500351715087888
1717858492513855000,5.47285498046875,9.766247846984863,0.29568390502929687,0.03621230010986328
1717858492523896000,5.48289599609375,9.814431155395507,0.28954876327514645,0.03591302490234375
1717858492533935900,5.492935791015625,9.886556480407714,0.28086978225708004,0.04833294601440429
1717858492543976700,5.502976806640625,9.951349562835693,0.25438392639160157,0.05401917495727539
1717858492554017800,5.513017822265625,9.758167416381836,0.2780266677856445,0.047584757995605464
1717858492564057900,5.523057861328125,9.68559317855835,0.3028665100097656,0.030974983978271482
1717858492574099000,5.533098876953125,9.826701438903807,0.3184288208007812,0.023343466186523436
1717858492584138800,5.543138671875,9.957335066986083,0.3280056274414062,0.00239420166015625
1717858492594179800,5.553179931640625,9.856479322052001,0.3269581642150879,0.02498947982788086
1717858492604221000,5.563220947265625,9.733177936553954,0.3146878807067871,0.04548983154296875
1717858492614261000,5.573260986328125,9.752481187438963,0.28655601119995117,0.04474164352416992
1717858492624301800,5.5833017578125,9.861866275787353,0.27877485580444333,0.029927520751953124
1717858492634342000,5.593341796875,9.909600671386718,0.2694973243713379,0.04249707946777344
1717858492644383000,5.603383056640625,9.826551801300049,0.289848038482666,0.03172317199707031
1717858492654424000,5.613424072265625,9.737667064666747,0.2947860794067383,0.027234043884277342
1717858492664464000,5.6234638671875,9.799317757415771,0.30047230834960936,0.012120645904541014
1717858492674505000,5.6335048828125,9.89523546142578,0.30526071166992186,0.03456628646850586
1717858492684544800,5.643544677734375,9.869048880767822,0.3021183219909668,0.04055179061889648
1717858492694585900,5.6535859375,9.795277542114258,0.29358897857666016,0.05386953735351562
1717858492704626700,5.663626708984375,9.780912332153319,0.28446108474731446,0.04803367080688476
1717858492714666800,5.673666748046875,9.81936919631958,0.28101941986083984,0.038756139373779294
1717858492724707800,5.683707763671875,9.887155030822754,0.2919429649353027,0.02663549346923828
1717858492734748000,5.693747802734375,9.855880771636963,0.29927520751953124,0.023343466186523436
1717858492744789000,5.7037890625,9.778218855285644,0.29927520751953124,0.037409400939941405
1717858492754829800,5.713829833984375,9.77358008956909,0.27099370040893556,0.042945992279052735
1717858492764870000,5.723869873046875,9.830592016601562,0.29718028106689454,0.04279635467529297
1717858492774911000,5.733910888671875,9.859472074127197,0.2980781066894531,0.037708676147460936
1717858492784951000,5.743950927734375,9.830143103790283,0.31004911499023435,0.03456628646850586
1717858492794991900,5.753991943359375,9.803357972717285,0.2985270195007324,0.04369418029785156
1717858492805033000,5.764032958984375,9.806500362396239,0.30196868438720703,0.021697452545166016
1717858492815072800,5.77407275390625,9.85767642288208,0.29658173065185545,0.03127425918579101
1717858492825113900,5.78411376953125,9.845256501770018,0.3022679595947265,0.030974983978271482
1717858492835154000,5.79415380859375,9.830292741394043,0.2855085479736328,0.03366846084594726
1717858492845194800,5.80419482421875,9.815927531433104,0.26650457229614255,0.049530046844482416
1717858492855235800,5.81423583984375,9.823559049224853,0.2882020248413086,0.033818098449707026
1717858492865276000,5.82427587890625,9.820566297149657,0.3012204963684082,0.0330699104309082
1717858492875316200,5.834316162109375,9.84450831375122,0.3107973030090332,0.028730419921875
1717858492885356300,5.844356201171875,9.844807588958739,0.3067570877075195,0.03501519927978516
1717858492895397000,5.854397216796875,9.816526081848144,0.3103483901977539,0.03725976333618164
1717858492905438200,5.864438232421875,9.820715934753418,0.2959831802368164,0.04055179061889648
1717858492915478000,5.87447802734375,9.819818109130859,0.3003226707458496,0.04189852905273437
1717858492925519000,5.88451904296875,9.846902515411376,0.29269115295410153,0.024690204620361325
1717858492935559000,5.894558837890625,9.84450831375122,0.29239187774658204,0.019003975677490233
1717858492945600000,5.90460009765625,9.820566297149657,0.28745383682250975,0.018555062866210937
1717858492955641000,5.91464111328125,9.817573545074461,0.28865093765258787,0.026186580657958983
1717858492965681200,5.92468115234375,9.836128607940672,0.2973299186706543,0.044292730712890624
1717858492975722000,5.934721923828125,9.840019185638427,0.297479556274414,0.03755903854370117
1717858492985762000,5.944761962890625,9.821164847564697,0.30406361083984373,0.040701428222656245
1717858492995803100,5.95480322265625,9.803806885528564,0.3112462158203125,0.03516483688354492
1717858493005844200,5.96484423828125,9.820865572357176,0.3064578125,0.02693476867675781
1717858493015884300,5.97488427734375,9.818770645904541,0.3022679595947265,0.03456628646850586
1717858493025925000,5.984925048828125,9.82535470046997,0.28640637359619137,0.042945992279052735
1717858493035966200,5.99496630859375,9.81951883392334,0.2850596351623535,0.033818098449707026
1717858493046006300,6.00500634765625,9.827150351715087,0.30196868438720703,0.03860650177001953
1717858493056047000,6.015047119140625,9.8311905670166,0.29074586410522457,0.01705868682861328
1717858493066087000,6.0250869140625,9.824456874847412,0.29343934097290036,0.02483984222412109
1717858493076128000,6.0351279296875,9.837026433563231,0.30047230834960936,0.047884033203124995
1717858493086169000,6.045169189453125,9.815628256225585,0.304512523651123,0.05357026214599609
1717858493096209200,6.055209228515625,9.817723182678222,0.3085527389526367,0.05027823486328125
1717858493106250000,6.06525,9.828497090148925,0.2962824554443359,0.044292730712890624
1717858493116290000,6.0752900390625,9.846603240203857,0.2947860794067383,0.03755903854370117
1717858493126331100,6.0853310546875,9.83208839263916,0.29568390502929687,0.03232172241210937
1717858493136372000,6.0953720703125,9.827000714111328,0.29613281784057616,0.0282815071105957
1717858493146412000,6.105412109375,9.831489842224121,0.27667992935180663,0.026785131072998045
1717858493156453000,6.115453125,9.827000714111328,0.2832639839172363,0.037708676147460936
1717858493166493200,6.1254931640625,9.837176071166992,0.29718028106689454,0.039354689788818356
1717858493176534300,6.1355341796875,9.819818109130859,0.3043628860473633,0.03950432739257812
1717858493186575000,6.1455751953125,9.837624983978271,0.303913973236084,0.03755903854370117
1717858493196615000,6.155614990234375,9.818770645904541,0.32007483444213863,0.031872809600830075
1717858493206656000,6.165656005859375,9.826252526092528,0.30047230834960936,0.043544542694091797
1717858493216696000,6.175696044921875,9.833734406280517,0.3012204963684082,0.03202244720458984
1717858493226737000,6.18573681640625,9.821314485168456,0.3010708587646484,0.03860650177001953
1717858493236778000,6.195778076171875,9.818770645904541,0.2780266677856445,0.031872809600830075
1717858493246818000,6.205818115234375,9.836278245544433,0.29179332733154295,0.03142389678955078
1717858493256859100,6.215859130859375,9.829843828582764,0.2925415153503418,0.042945992279052735
1717858493266899200,6.225899169921875,9.829843828582764,0.29224224014282224,0.03037643356323242
1717858493276940000,6.23593994140625,9.82460651245117,0.2958335426330566,0.04414309310913086
1717858493286981000,6.245981201171875,9.831489842224121,0.2991255699157715,0.03067570877075195
1717858493297021200,6.256021240234375,9.82505542526245,0.30526071166992186,0.03561374969482422
1717858493307062300,6.266062255859375,9.816526081848144,0.29568390502929687,0.02858078231811523
1717858493317102000,6.27610205078125,9.834183319091796,0.2867056488037109,0.030526071166992186
1717858493327143200,6.28614306640625,9.82460651245117,0.2825157958984375,0.02289455337524414
1717858493337184300,6.296184326171875,9.732429748535155,0.28535891036987304,0.03890577697753906
1717858493347224000,6.30622412109375,9.76894132385254,0.3006219459533691,0.040102877807617184
1717858493357265000,6.316264892578125,9.938480728912353,0.31214404144287106,0.04144961624145507
1717858493367305000,6.326304931640625,9.958681805419921,0.28206688308715816,0.018555062866210937
1717858493377346000,6.336345947265625,9.81951883392334,0.2748842781066894,0.037708676147460936
1717858493387387100,6.34638720703125,9.692326870727538,0.2721908012390137,0.0378583137512207
1717858493397427200,6.35642724609375,9.778368492889404,0.28999767608642574,0.040102877807617184
1717858493407468000,6.366468017578125,9.926060807800292,0.30181904678344723,0.026785131072998045
1717858493417508000,6.376508056640625,9.90825393295288,0.31797990798950193,0.03067570877075195
1717858493427549200,6.386549072265625,9.779415956115722,0.31528643112182614,0.0330699104309082
1717858493437590000,6.396590087890625,9.73632032623291,0.3286041778564453,0.03920505218505859
1717858493447630000,6.406630126953125,9.810839852905273,0.30690672531127927,0.041748891448974604
1717858493457671200,6.416671142578125,9.90196915359497,0.29837738189697266,0.024091654205322263
1717858493467711200,6.426711181640625,9.860968450164794,0.27892449340820313,0.025438392639160156
1717858493477752300,6.43675244140625,9.825953250885009,0.2488473350524902,0.03920505218505859
1717858493487793200,6.446793212890625,9.757269590759277,0.2533364631652832,0.03396773605346679
1717858493497833000,6.4568330078125,9.792434427642823,0.25947160491943355,0.03681085052490234
1717858493507874000,6.4668740234375,9.888651406860351,0.280271231842041,0.043245267486572266
1717858493517914000,6.4769140625,9.890297420501708,0.32306758651733397,0.04129997863769531
1717858493527955000,6.486954833984375,9.808146376037596,0.3320458427429199,0.028131869506835935
1717858493537996000,6.49699609375,9.765350021362304,0.3253121505737305,0.026785131072998045
1717858493548036000,6.5070361328125,9.832986218261718,0.3081038261413574,0.024390929412841794
1717858493558077200,6.5170771484375,9.875034384918212,0.2914940521240234,0.03232172241210937
1717858493568117200,6.5271171875,9.85094273071289,0.27353753967285155,0.0383072265625
1717858493578158000,6.537157958984375,9.795427179718017,0.26830022354125976,0.0234931037902832
1717858493588199200,6.54719921875,9.812036953735351,0.28311434631347654,0.03815758895874023
1717858493598239200,6.5572392578125,9.846154327392577,0.28206688308715816,0.020051438903808592
1717858493608280000,6.567280029296875,9.870844532012939,0.31109657821655273,0.029478607940673827
1717858493618320000,6.57731982421875,9.823559049224853,0.31588498153686523,0.02977788314819336
1717858493628361000,6.58736083984375,9.806500362396239,0.31319150466918944,0.04144961624145507
1717858493638402000,6.597402099609375,9.81278514175415,0.2967313682556152,0.0526724365234375
1717858493648442000,6.607442138671875,9.848398891448975,0.2856581855773926,0.033219548034667964
1717858493658483000,6.61748291015625,9.842263749694824,0.27997195663452146,0.030825346374511717
1717858493668523000,6.62752294921875,9.812036953735351,0.2958335426330566,0.03202244720458984
1717858493678564000,6.637564208984375,9.814281517791747,0.2834136215209961,0.013766659545898436
1717858493688605200,6.647605224609375,9.834033681488037,0.2882020248413086,0.027832594299316404
1717858493698645000,6.65764501953125,9.853636207580566,0.299424845123291,0.03516483688354492
1717858493708686000,6.66768603515625,9.822960498809813,0.30092122116088865,0.03815758895874023
1717858493718726100,6.67772607421875,9.815029705810547,0.3094505645751953,0.035763387298583985
1717858493728767200,6.687767333984375,9.821314485168456,0.2947860794067383,0.047285482788085934
1717858493738808000,6.69780810546875,9.837624983978271,0.30481179885864257,0.023792378997802732
1717858493748848000,6.70784814453125,9.833435131072997,0.30181904678344723,0.02977788314819336
1717858493758889200,6.71788916015625,9.829394915771484,0.2998737579345703,0.020649989318847654
1717858493768929000,6.727928955078125,9.813832604980469,0.3051110740661621,0.029628245544433593
1717858493778970000,6.73797021484375,9.815628256225585,0.28999767608642574,0.03172317199707031
1717858493789011000,6.748010986328125,9.869048880767822,0.28042086944580075,0.03920505218505859
1717858493799051000,6.758051025390625,9.830292741394043,0.28356325912475583,0.04369418029785156
1717858493809092000,6.768092041015625,9.78166052017212,0.29269115295410153,0.033518823242187495
1717858493819132200,6.778132080078125,9.79976667022705,0.3066074501037597,0.03591302490234375
1717858493829173000,6.788173095703125,9.846603240203857,0.3193266464233398,0.03666121292114258
1717858493839214000,6.798214111328125,9.865906491088866,0.31663316955566406,0.027383681488037107
1717858493849254100,6.808254150390625,9.820267021942138,0.31109657821655273,0.03755903854370117
1717858493859295200,6.818295166015625,9.807996738433838,0.29613281784057616,0.05087678527832031
1717858493869335300,6.828335205078125,9.83238766784668,0.289848038482666,0.03696048812866211
1717858493879378200,6.838378173828125,9.85064345550537,0.27952304382324217,0.020350714111328123
1717858493889419000,6.8484189453125,9.850044905090332,0.29448680419921874,0.012569558715820313
1717858493899459000,6.858458984375,9.814580792999267,0.2916436897277832,0.026785131072998045
1717858493909500200,6.868500244140625,9.812036953735351,0.2904465888977051,0.02633621826171875
1717858493919540000,6.8785400390625,9.833884043884277,0.29658173065185545,0.033219548034667964
1717858493929580800,6.888580810546875,9.827000714111328,0.3000233955383301,0.05416881256103515
1717858493939622000,6.898621826171875,9.817124632263184,0.31319150466918944,0.03815758895874023
1717858493949662000,6.908661865234375,9.7936315284729,0.2973299186706543,0.03696048812866211
1717858493959703000,6.918703125,9.822212310791015,0.299424845123291,0.019602526092529295
1717858493969743000,6.9287431640625,9.840318460845946,0.2823661582946777,0.032172084808349606
1717858493979784000,6.938783935546875,9.842862300109863,0.2793734062194824,0.03561374969482422
1717858493989825000,6.948824951171875,9.821613760375977,0.26665420989990235,0.03456628646850586
1717858493999865000,6.958864990234375,9.795576817321777,0.28580782318115233,0.02259527816772461
1717858494009906200,6.96890625,9.829993466186522,0.29568390502929687,0.02454056701660156
1717858494019947000,6.978947021484375,9.839719910430908,0.30690672531127927,0.03037643356323242
1717858494029987000,6.988987060546875,9.827150351715087,0.3155857063293457,0.03950432739257812
1717858494040028200,6.999028076171875,9.814730430603026,0.29448680419921874,0.037708676147460936
1717858494050068000,7.00906787109375,9.827000714111328,0.2998737579345703,0.03531447448730469
1717858494060108800,7.01910888671875,9.833135855865478,0.29358897857666016,0.032172084808349606
1717858494070150000,7.02914990234375,9.830891291809081,0.2823661582946777,0.030825346374511717
1717858494080190000,7.03918994140625,9.81996774673462,0.2741360900878906,0.03696048812866211
1717858494090231000,7.04923095703125,9.805303261566161,0.28865093765258787,0.028131869506835935
1717858494100271000,7.05927099609375,9.823110136413574,0.2937386161804199,0.033518823242187495
1717858494110312000,7.06931201171875,9.848398891448975,0.29568390502929687,0.04129997863769531
1717858494120353000,7.07935302734375,9.839570272827148,0.30092122116088865,0.04534019393920898
1717858494130393000,7.08939306640625,9.836876795959473,0.3042132484436035,0.04025251541137695
1717858494140434000,7.099433837890625,9.828796365356444,0.30181904678344723,0.043544542694091797
1717858494150474000,7.109473876953125,9.81996774673462,0.2829647087097168,0.03172317199707031
1717858494160515000,7.11951513671875,9.831040929412842,0.28446108474731446,0.02858078231811523
1717858494170556200,7.12955615234375,9.835530057525634,0.29284079055786133,0.03202244720458984
1717858494180596200,7.13959619140625,9.824157599639893,0.2910451393127441,0.04144961624145507
1717858494190637000,7.149636962890625,9.830143103790283,0.282815071105957,0.04055179061889648
1717858494200676900,7.1596767578125,9.828646727752686,0.2973299186706543,0.040102877807617184
1717858494210718000,7.169718017578125,9.828796365356444,0.299424845123291,0.037409400939941405
1717858494220759000,7.179759033203125,9.8311905670166,0.31094694061279293,0.036062662506103516
1717858494230798800,7.189798828125,9.821015209960937,0.2850596351623535,0.03591302490234375
1717858494240840000,7.19983984375,9.819668471527098,0.2877531120300293,0.03501519927978516
1717858494250880000,7.2098798828125,9.83897172241211,0.29224224014282224,0.040102877807617184
1717858494260921000,7.219921142578125,9.83238766784668,0.2904465888977051,0.0383072265625
1717858494270962000,7.2299619140625,9.829843828582764,0.28520927276611324,0.037708676147460936
1717858494281002000,7.240001953125,9.821164847564697,0.2840121719360351,0.042646717071533204
1717858494291043000,7.25004296875,9.833435131072997,0.29718028106689454,0.03621230010986328
1717858494301083100,7.260083251953125,9.840019185638427,0.31393969268798827,0.047285482788085934
1717858494311124000,7.2701240234375,9.821015209960937,0.29358897857666016,0.042646717071533204
1717858494321165000,7.2801650390625,9.738564890289306,0.303913973236084,0.035464112091064454
1717858494331205000,7.290205078125,9.822212310791015,0.3097498397827148,0.04129997863769531
1717858494341246200,7.30024609375,9.971101726531982,0.2771288421630859,0.03486556167602539
1717858494351286000,7.3102861328125,9.874136559295653,0.2663549346923828,0.028880057525634766
1717858494361326800,7.320326904296875,9.760711255645752,0.2741360900878906,0.04638765716552734
1717858494371368000,7.330367919921875,9.745597857666015,0.2786252182006836,0.038756139373779294
1717858494381408000,7.340407958984375,9.853336932373047,0.29403789138793945,0.029927520751953124
1717858494391449000,7.350448974609375,9.89508582382202,0.31319150466918944,0.0234931037902832
1717858494401489000,7.360489013671875,9.83852280960083,0.3113958534240722,0.03202244720458984
1717858494411530000,7.370530029296875,9.761010530853271,0.31693244476318355,0.03890577697753906
1717858494421571000,7.380571044921875,9.779565593719482,0.3060088996887207,0.0474351203918457
1717858494431611100,7.390611083984375,9.839570272827148,0.3060088996887207,0.033219548034667964
1717858494441652000,7.40065185546875,9.874735109710693,0.296881005859375,0.01945288848876953
1717858494451693000,7.410693115234375,9.823858324432372,0.2976291938781738,0.016160861206054686
1717858494461733000,7.420733154296875,9.792135152435302,0.2780266677856445,0.03651157531738281
1717858494471774200,7.430774169921875,9.80066449584961,0.2775777549743652,0.037409400939941405
1717858494481814000,7.44081396484375,9.90840357055664,0.26650457229614255,0.040701428222656245
1717858494491854800,7.450854736328125,9.869198518371581,0.25962124252319335,0.03920505218505859
1717858494501895000,7.46089501953125,9.739761991119384,0.2989759323120117,0.03336918563842773
1717858494511936000,7.47093603515625,9.762806182098387,0.30137013397216794,0.04474164352416992
1717858494521976800,7.480976806640625,9.881169526672362,0.309001651763916,0.013168109130859374
1717858494532017000,7.491016845703125,9.90211879119873,0.3146878807067871,0.02633621826171875
1717858494542058000,7.50105810546875,9.810540577697754,0.3042132484436035,0.03860650177001953
1717858494552099000,7.51109912109375,9.758765966796874,0.2916436897277832,0.04967968444824218
1717858494562139100,7.52113916015625,9.790040225982665,0.2889502128601074,0.04863222122192382
1717858494572180000,7.531179931640625,9.875483297729492,0.2609679809570312,0.03920505218505859
1717858494582220000,7.541219970703125,9.885658654785155,0.29493571701049803,0.032920272827148434
1717858494592261000,7.55126123046875,9.818770645904541,0.3003226707458496,0.017956512451171875
1717858494602302000,7.561302001953125,9.791237326812743,0.30526071166992186,0.037110125732421874
1717858494612342000,7.571342041015625,9.8311905670166,0.29493571701049803,0.041748891448974604
1717858494622383000,7.581383056640625,9.862015913391113,0.28999767608642574,0.06045359191894531
1717858494632423000,7.5914228515625,9.865607215881347,0.2950853546142578,0.05132569808959961
1717858494642464000,7.601464111328125,9.816376444244383,0.28954876327514645,0.04115034103393554
1717858494652504800,7.6115048828125,9.795876092529296,0.29448680419921874,0.030526071166992186
1717858494662545000,7.621544921875,9.82505542526245,0.28356325912475583,0.01780687484741211
1717858494672586000,7.6315859375,9.851990193939208,0.29358897857666016,0.021697452545166016
1717858494682626000,7.6416259765625,9.836128607940672,0.3049614364624023,0.027832594299316404
1717858494692667000,7.6516669921875,9.808744926452636,0.29972412033081053,0.0330699104309082
1717858494702708000,7.6617080078125,9.81862100830078,0.29837738189697266,0.0469862075805664
1717858494712748000,7.671748046875,9.839719910430908,0.29972412033081053,0.03666121292114258
1717858494722789000,7.6817890625,9.839719910430908,0.3033154228210449,0.0522235237121582
1717858494732829200,7.6918291015625,9.84510686416626,0.304512523651123,0.030226795959472655
1717858494742870000,7.7018701171875,9.834781869506836,0.29224224014282224,0.033518823242187495
1717858494752911000,7.7119111328125,9.802609784698486,0.2932897033691406,0.027383681488037107
1717858494762951000,7.721950927734375,9.810690215301513,0.2920926025390625,0.02633621826171875
1717858494772992000,7.731991943359375,9.841665199279785,0.30406361083984373,0.03696048812866211
1717858494783032000,7.742031982421875,9.851840556335448,0.29867665710449215,0.037110125732421874
1717858494793073000,7.752072998046875,9.83178911743164,0.2995744827270508,0.04249707946777344
1717858494803114000,7.762114013671875,9.81248586654663,0.29388825378417965,0.04399345550537109
1717858494813154000,7.772154052734375,9.817423907470703,0.29448680419921874,0.04159925384521484
1717858494823195000,7.78219482421875,9.8449572265625,0.2876034744262695,0.019003975677490233
1717858494833235000,7.79223486328125,9.848997441864013,0.2841618095397949,0.027084406280517576
1717858494843276000,7.802276123046875,9.823409411621093,0.29269115295410153,0.03651157531738281
1717858494853317000,7.812317138671875,9.808894564056397,0.28206688308715816,0.022744915771484374
1717858494863357200,7.822357177734375,9.828796365356444,0.28954876327514645,0.02483984222412109
1717858494873397000,7.83239697265625,9.833584768676758,0.2991255699157715,0.03621230010986328
1717858494883436800,7.842436767578125,9.803208335113524,0.31094694061279293,0.03651157531738281
1717858494893478000,7.852477783203125,9.811139128112792,0.3049614364624023,0.04548983154296875
1717858494903519000,7.86251904296875,9.83163947982788,0.2867056488037109,0.03456628646850586
1717858494913559000,7.87255908203125,9.83777462158203,0.3042132484436035,0.02858078231811523
1717858494923600000,7.882599853515625,9.828946002960205,0.29284079055786133,0.02124853973388672
1717858494933640000,7.892639892578125,9.818022457885741,0.28446108474731446,0.02454056701660156
1717858494943681000,7.902680908203125,9.821464122772216,0.2989759323120117,0.03995324020385742
1717858494953722000,7.91272216796875,9.83807389678955,0.29433716659545894,0.03561374969482422
1717858494963762000,7.922761962890625,9.833884043884277,0.30181904678344723,0.030974983978271482
1717858494973803000,7.932802978515625,9.822511585998535,0.2952349922180176,0.04848258361816406
1717858494983844000,7.942843994140625,9.820416659545899,0.303913973236084,0.039354689788818356
1717858494993884200,7.95288427734375,9.833135855865478,0.29703064346313474,0.03890577697753906
1717858495003925000,7.962925048828125,9.8319387550354,0.29493571701049803,0.03426701126098632
1717858495013965000,7.972965087890625,9.8311905670166,0.29343934097290036,0.03696048812866211
1717858495024006100,7.983006103515625,9.82505542526245,0.2889502128601074,0.035464112091064454
1717858495034047200,7.993047119140625,9.823409411621093,0.2814683326721191,0.03681085052490234
1717858495044087000,8.003087158203124,9.83897172241211,0.2947860794067383,0.03890577697753906
1717858495054127900,8.0131279296875,9.846303964996338,0.29568390502929687,0.030974983978271482
1717858495064168000,8.02316796875,9.831489842224121,0.303913973236084,0.037708676147460936
1717858495074209000,8.033208984375,9.829544553375243,0.30361469802856444,0.03411737365722656
1717858495084249900,8.043249755859375,9.828646727752686,0.2980781066894531,0.03037643356323242
1717858495094290000,8.0532900390625,9.834033681488037,0.2861070983886719,0.03486556167602539
1717858495104331000,8.0633310546875,9.833435131072997,0.2902969512939453,0.039354689788818356
1717858495114371000,8.07337109375,9.823708686828613,0.29388825378417965,0.03441664886474609
1717858495124412200,8.083412109375,9.821015209960937,0.2902969512939453,0.03456628646850586
1717858495134453000,8.093452880859376,9.827898539733885,0.2941875289916992,0.03681085052490234
1717858495144493000,8.1034931640625,9.828946002960205,0.2840121719360351,0.035763387298583985
1717858495154534100,8.1135341796875,9.827898539733885,0.30181904678344723,0.03426701126098632
1717858495164574000,8.123573974609375,9.81847137069702,0.3003226707458496,0.03995324020385742
1717858495174614800,8.13361474609375,9.816974994659423,0.30526071166992186,0.029927520751953124
1717858495184656000,8.14365576171875,9.827449626922608,0.3010708587646484,0.033818098449707026
1717858495194696000,8.153696044921874,9.832686943054199,0.2937386161804199,0.034715924072265626
1717858495204737000,8.163737060546875,9.82505542526245,0.2877531120300293,0.03277063522338867
1717858495214777000,8.173777099609374,9.818321733093262,0.28371289672851563,0.02528875503540039
1717858495224818000,8.18381787109375,9.821763397979735,0.28730419921875,0.03651157531738281
1717858495234859000,8.19385888671875,9.826402163696288,0.2786252182006836,0.05162497329711914
1717858495244899000,8.203899169921876,9.836727158355712,0.29777883148193357,0.047584757995605464
1717858495254940200,8.213940185546875,9.831040929412842,0.29433716659545894,0.05282207412719726
1717858495264980000,8.22397998046875,9.826402163696288,0.3006219459533691,0.03815758895874023
1717858495275021000,8.23402099609375,9.829245278167724,0.30346506042480464,0.027084406280517576
1717858495285062100,8.244062255859374,9.834332956695556,0.296881005859375,0.02154781494140625
1717858495295102200,8.254102294921875,9.733926124572754,0.289848038482666,0.03666121292114258
1717858495305143000,8.26414306640625,9.795876092529296,0.3033154228210449,0.025139117431640625
1717858495315182800,8.274182861328125,9.96511622238159,0.28909985046386716,0.0565630142211914
1717858495325224000,8.284223876953124,9.906757556915283,0.2807201446533203,0.026485855865478514
1717858495335265000,8.29426513671875,9.759813430023193,0.263661457824707,0.044292730712890624
1717858495345305000,8.30430517578125,9.739462715911865,0.2741360900878906,0.06778583450317383
1717858495355346000,8.314345947265625,9.832836580657958,0.2932897033691406,0.03800795135498047
1717858495365387000,8.324386962890625,9.871891995239258,0.3094505645751953,0.032172084808349606
1717858495375427000,8.334427001953125,9.870395619201659,0.31214404144287106,0.02858078231811523
1717858495385468000,8.344468017578125,9.791835877227783,0.31169512863159177,0.029179332733154296
1717858495395508000,8.354508056640626,9.789142400360106,0.31962592163085934,0.026186580657958983
1717858495405549000,8.364549072265625,9.823409411621093,0.3091512893676758,0.027533319091796873
1717858495415590100,8.374590087890626,9.869048880767822,0.29493571701049803,0.03516483688354492
1717858495425630200,8.384630126953125,9.827299989318847,0.28909985046386716,0.03142389678955078
1717858495435671000,8.394671142578124,9.794529354095458,0.28865093765258787,0.040102877807617184
1717858495445710800,8.4047109375,9.856479322052001,0.2745850028991699,0.05162497329711914
1717858495455752000,8.414751953125,9.828946002960205,0.2750339157104492,0.03127425918579101
1717858495465793000,8.42479296875,9.807996738433838,0.2916436897277832,0.030974983978271482
1717858495475832800,8.434832763671874,9.808146376037596,0.3113958534240722,0.05117606048583984
1717858495485874000,8.4448740234375,9.790788414001463,0.31543606872558594,0.027234043884277342
1717858495495914000,8.4549140625,9.841365924072266,0.31259295425415035,0.027682956695556638
1717858495505955000,8.464955078125,9.843460850524902,0.32127193527221676,0.031124621582031248
1717858495515996000,8.474995849609375,9.820416659545899,0.29433716659545894,0.050727147674560547
1717858495526036000,8.485035888671876,9.795726454925537,0.26560674667358397,0.03426701126098632
1717858495536077000,8.4950771484375,9.82520506286621,0.2850596351623535,0.04384381790161133
1717858495546117000,8.5051171875,9.837624983978271,0.28999767608642574,0.039354689788818356
1717858495556158000,8.515157958984375,9.843161575317382,0.2967313682556152,0.03142389678955078
1717858495566199000,8.525198974609374,9.821314485168456,0.3060088996887207,0.031872809600830075
1717858495576239000,8.535239013671875,9.815628256225585,0.3133411422729492,0.024390929412841794
1717858495586280200,8.5452802734375,9.830592016601562,0.3012204963684082,0.03067570877075195
1717858495596320000,8.555320068359375,9.852289469146728,0.2980781066894531,0.03561374969482422
1717858495606360800,8.56536083984375,9.83777462158203,0.30271687240600587,0.03950432739257812
1717858495616402000,8.57540185546875,9.803657247924804,0.30406361083984373,0.020949264526367185
1717858495626442000,8.58544189453125,9.811288765716553,0.289848038482666,0.02079962692260742
1717858495636483000,8.595483154296875,9.826252526092528,0.2876034744262695,0.03142389678955078
1717858495646523000,8.60552294921875,9.836278245544433,0.289848038482666,0.023942016601562498
1717858495656564000,8.61556396484375,9.816376444244383,0.3049614364624023,0.03561374969482422
1717858495666605000,8.62560498046875,9.818321733093262,0.31094694061279293,0.04339490509033203
1717858495676645000,8.63564501953125,9.826551801300049,0.3119944038391113,0.035763387298583985
1717858495686686000,8.64568603515625,9.830891291809081,0.30181904678344723,0.03651157531738281
1717858495696727000,8.65572705078125,9.828048177337646,0.29403789138793945,0.037110125732421874
1717858495706767000,8.66576708984375,9.817124632263184,0.2959831802368164,0.028880057525634766
1717858495716808200,8.67580810546875,9.822212310791015,0.3051110740661621,0.013467384338378905
1717858495726848000,8.685847900390625,9.861866275787353,0.29089550170898437,0.03411737365722656
1717858495736889000,8.69588916015625,9.828197814941406,0.26710312271118164,0.04279635467529297
1717858495746930200,8.70593017578125,9.784353997039794,0.2911947769165039,0.05416881256103515
1717858495756970000,8.715969970703124,9.795277542114258,0.2989759323120117,0.0326209976196289
1717858495767010800,8.7260107421875,9.838672447204589,0.3232172241210937,0.03516483688354492
1717858495777051000,8.73605078125,9.85677859725952,0.33144729232788084,0.027084406280517576
1717858495787092000,8.746092041015626,9.829694190979003,0.3145382431030273,0.037409400939941405
1717858495797133000,8.756133056640625,9.805602536773682,0.28745383682250975,0.033518823242187495
1717858495807173000,8.766173095703126,9.823559049224853,0.2680009483337402,0.04279635467529297
1717858495817214000,8.7762138671875,9.855132583618163,0.26830022354125976,0.03980360260009765
1717858495827254000,8.78625390625,9.85169091873169,0.28640637359619137,0.02693476867675781
1717858495837295000,8.796295166015625,9.80665,0.3028665100097656,0.0326209976196289
1717858495847336000,8.8063359375,9.808595288848876,0.3055599868774414,0.03995324020385742
1717858495857376000,8.8163759765625,9.817872820281982,0.313490779876709,0.04339490509033203
1717858495867417000,8.8264169921875,9.823708686828613,0.3049614364624023,0.05626373901367187
1717858495877456600,8.83645654296875,9.830592016601562,0.28790274963378903,0.049829322052001954
1717858495887497700,8.846497802734374,9.83837317199707,0.2929904281616211,0.039354689788818356
1717858495897538600,8.85653857421875,9.810540577697754,0.28311434631347654,0.030825346374511717
1717858495907578600,8.86657861328125,9.823559049224853,0.2834136215209961,0.0143652099609375
1717858495917619700,8.87661962890625,9.832686943054199,0.2846107223510742,0.02079962692260742
1717858495927659500,8.886659423828124,9.83163947982788,0.2877531120300293,0.036062662506103516
1717858495937700600,8.89670068359375,9.826701438903807,0.3007715835571289,0.04683656997680664
1717858495947741400,8.906741455078125,9.80605144958496,0.3021183219909668,0.04563946914672851
1717858495957781500,8.916781494140626,9.821913035583496,0.32097266006469727,0.038756139373779294
1717858495967822600,8.926822509765625,9.837624983978271,0.31214404144287106,0.039354689788818356
1717858495977862700,8.936862548828126,9.84450831375122,0.3060088996887207,0.03127425918579101
1717858495987903500,8.946903564453125,9.837624983978271,0.2902969512939453,0.027383681488037107
1717858495997944600,8.956944580078124,9.834033681488037,0.27832594299316404,0.030526071166992186
1717858496007984600,8.966984619140625,9.82550433807373,0.28176760787963867,0.03845686416625976
1717858496018025700,8.977025634765624,9.833135855865478,0.2819172454833984,0.03007715835571289
1717858496028065800,8.987065673828125,9.828197814941406,0.29074586410522457,0.03232172241210937
1717858496038106600,8.997106689453124,9.820416659545899,0.3067570877075195,0.03531447448730469
1717858496048147700,9.007147705078125,9.818770645904541,0.3001730331420898,0.03411737365722656
1717858496058187500,9.0171875,9.824756150054931,0.3037643356323242,0.03920505218505859
1717858496068228600,9.027228515625,9.837624983978271,0.3113958534240722,0.03247136001586914
1717858496078269400,9.03726953125,9.840468098449707,0.29403789138793945,0.026785131072998045
1717858496088309500,9.0473095703125,9.81936919631958,0.2861070983886719,0.028730419921875
1717858496098350600,9.0573505859375,9.807697463226317,0.2925415153503418,0.027383681488037107
1717858496108390700,9.067390625,9.830143103790283,0.27952304382324217,0.03501519927978516
1717858496118431500,9.077431396484375,9.824007962036132,0.2991255699157715,0.040701428222656245
1717858496128472600,9.08747265625,9.82580361328125,0.29658173065185545,0.031872809600830075
1717858496138512600,9.0975126953125,9.833584768676758,0.30361469802856444,0.03980360260009765
1717858496148553700,9.1075537109375,9.82580361328125,0.29553426742553707,0.04339490509033203
1717858496158593500,9.117593505859375,9.832686943054199,0.29239187774658204,0.026036943054199218
1717858496168634600,9.127634521484374,9.83223803024292,0.3042132484436035,0.0326209976196289
1717858496178675700,9.13767578125,9.82610288848877,0.2995744827270508,0.03516483688354492
1717858496188715800,9.1477158203125,9.827449626922608,0.2952349922180176,0.027832594299316404
1717858496198756600,9.157756591796876,9.829843828582764,0.2967313682556152,0.034715924072265626
1717858496208796400,9.16779638671875,9.840617736053467,0.29493571701049803,0.04504091873168945
1717858496218837500,9.17783740234375,9.815328981018066,0.2937386161804199,0.03366846084594726
1717858496228878600,9.187878662109375,9.82550433807373,0.2959831802368164,0.03621230010986328
1717858496238918700,9.197918701171876,9.692027595520019,0.29718028106689454,0.03561374969482422
1717858496248959500,9.20795947265625,9.828796365356444,0.32097266006469727,0.029478607940673827
1717858496258999600,9.21799951171875,9.986963312530516,0.2932897033691406,0.04563946914672851
1717858496269040600,9.22804052734375,9.892841259765625,0.27084406280517576,0.02528875503540039
1717858496279081500,9.23808154296875,9.757269590759277,0.27174188842773433,0.04279635467529297
1717858496289121500,9.24812158203125,9.740809454345703,0.261117618560791,0.04563946914672851
1717858496299162600,9.25816259765625,9.861417362976074,0.2841618095397949,0.03172317199707031
1717858496309202700,9.26820263671875,9.88236662750244,0.3107973030090332,0.03696048812866211
1717858496319243800,9.278243896484375,9.852439106750488,0.3321954803466797,0.04683656997680664
1717858496329284600,9.28828466796875,9.788394212341307,0.3327940307617187,0.030825346374511717
1717858496339324700,9.29832470703125,9.783605809020996,0.3103483901977539,0.021398177337646485
1717858496349365800,9.30836572265625,9.848398891448975,0.29493571701049803,0.010474632263183592
1717858496359406600,9.318406494140625,9.85064345550537,0.29269115295410153,-0.003142389678955078
1717858496369446400,9.3284462890625,9.823559049224853,0.2747346405029297,0.0234931037902832
1717858496379487500,9.338487548828125,9.839270997619629,0.2659060218811035,0.032920272827148434
1717858496389527600,9.348527587890626,9.797222830963134,0.2516904495239258,0.04234744186401367
1717858496399568600,9.358568603515625,9.7928833404541,0.2838625343322754,0.0474351203918457
1717858496409609500,9.368609375,9.836577520751952,0.304512523651123,0.04234744186401367
1717858496419649500,9.3786494140625,9.847201790618897,0.3194762840270996,0.04279635467529297
1717858496429690600,9.388690673828124,9.804555073547363,0.32142157287597656,0.02124853973388672
1717858496439730700,9.398730712890625,9.803208335113524,0.31049802780151364,0.03725976333618164
1717858496449771500,9.408771484375,9.837176071166992,0.3055599868774414,0.03965396499633789
1717858496459812600,9.4188125,9.838672447204589,0.28805238723754883,0.020500351715087888
1717858496469852700,9.428852783203125,9.821763397979735,0.2702455123901367,0.0326209976196289
1717858496479893800,9.438893798828126,9.81847137069702,0.27084406280517576,0.0378583137512207
1717858496489933600,9.44893359375,9.820865572357176,0.28431144714355466,0.02259527816772461
1717858496499974400,9.458974365234376,9.818770645904541,0.29284079055786133,0.01945288848876953
1717858496510015500,9.469015380859375,9.83238766784668,0.309001651763916,0.029179332733154296
1717858496520055600,9.4790556640625,9.831489842224121,0.3265092514038086,0.03396773605346679
1717858496530096600,9.4890966796875,9.83223803024292,0.31004911499023435,0.047584757995605464
1717858496540136400,9.499136474609376,9.837325708770752,0.29658173065185545,0.04713584518432617
1717858496550177500,9.509177490234375,9.82580361328125,0.29239187774658204,0.03950432739257812
1717858496560218600,9.519218505859374,9.828048177337646,0.27084406280517576,0.014065934753417967
1717858496570258700,9.5292587890625,9.833285493469237,0.2980781066894531,0.02184709014892578
1717858496580299500,9.539299560546874,9.829694190979003,0.27578210372924805,0.017657237243652344
1717858496590339600,9.549339599609375,9.833584768676758,0.2925415153503418,0.03366846084594726
1717858496600380700,9.559380615234375,9.827449626922608,0.29089550170898437,0.04444236831665039
1717858496610421800,9.569421875,9.820715934753418,0.30092122116088865,0.037409400939941405
1717858496620461800,9.5794619140625,9.822361948394775,0.30705636291503907,0.039055414581298825
1717858496630502700,9.589502685546876,9.821464122772216,0.30960020217895506,0.028880057525634766
1717858496640543700,9.599543701171875,9.836727158355712,0.29927520751953124,0.031872809600830075
1717858496650583600,9.60958349609375,9.828946002960205,0.29972412033081053,0.01840542526245117
1717858496660624400,9.619624267578125,9.816675719451904,0.2989759323120117,0.01601122360229492
1717858496670664400,9.62966455078125,9.828497090148925,0.2964320930480957,0.02154781494140625
1717858496680705500,9.63970556640625,9.835530057525634,0.28206688308715816,0.03232172241210937
1717858496690746600,9.64974658203125,9.818321733093262,0.2980781066894531,0.035763387298583985
1717858496700786700,9.65978662109375,9.849147079467773,0.30466216125488277,0.041000703430175776
1717858496710827500,9.66982763671875,9.832537305450439,0.28221652069091796,0.04189852905273437
1717858496720867600,9.67986767578125,9.80665,0.2859574607849121,0.039354689788818356
1717858496730908700,9.68990869140625,9.803208335113524,0.30570962448120115,0.03067570877075195
1717858496740949500,9.699949462890626,9.846154327392577,0.31094694061279293,0.031124621582031248
1717858496750989600,9.709989501953125,9.858274973297119,0.30690672531127927,0.011073182678222656
1717858496761030700,9.72003076171875,9.833734406280517,0.2962824554443359,0.03067570877075195
1717858496771070500,9.730070556640625,9.814880068206786,0.2946364418029785,0.04369418029785156
1717858496781111800,9.74011181640625,9.815328981018066,0.29718028106689454,0.04369418029785156
1717858496791152600,9.750152587890625,9.829245278167724,0.2871545616149902,0.04384381790161133
1717858496801192400,9.7601923828125,9.842263749694824,0.289848038482666,0.029328970336914062
1717858496811233500,9.770233642578125,9.808146376037596,0.2958335426330566,0.0330699104309082
1717858496821274600,9.780274658203124,9.796025730133056,0.3124433166503906,0.02259527816772461
1717858496831314700,9.790314697265625,9.827599264526366,0.30705636291503907,0.028431144714355466
1717858496841355500,9.80035546875,9.840917011260986,0.2989759323120117,0.04938040924072265
1717858496851395600,9.8103955078125,9.848099616241454,0.2947860794067383,0.03920505218505859
1717858496861436700,9.820436767578125,9.819818109130859,0.3007715835571289,0.03725976333618164
1717858496871477500,9.8304775390625,9.802460147094726,0.29358897857666016,0.028431144714355466
1717858496881517600,9.840517578125,9.828347452545165,0.29568390502929687,0.032920272827148434
1717858496891558700,9.85055859375,9.841216286468505,0.30346506042480464,0.041000703430175776
1717858496901598700,9.8605986328125,9.840168823242188,0.29134441452026366,0.025139117431640625
1717858496911639800,9.870639892578126,9.809044201660155,0.3010708587646484,0.0383072265625
1717858496921680600,9.8806806640625,9.813084416961669,0.304512523651123,0.03366846084594726
1717858496931720700,9.890720703125,9.839121360015868,0.2991255699157715,0.042048166656494135
1717858496941761800,9.90076171875,9.830143103790283,0.2888005752563476,0.03232172241210937
1717858496951801900,9.9108017578125,9.815927531433104,0.2985270195007324,0.026785131072998045
1717858496961842700,9.9208427734375,9.816226806640625,0.30481179885864257,0.030825346374511717
1717858496971883800,9.9308837890625,9.82535470046997,0.29448680419921874,0.031573534393310544
1717858496981923800,9.940923828125,9.837325708770752,0.28730419921875,0.03366846084594726
1717858496991965000,9.95096484375,9.84435867614746,0.2796726814270019,0.031573534393310544
1717858497002004700,9.961004638671875,9.83163947982788,0.2952349922180176,0.04279635467529297
1717858497012045600,9.971045654296875,9.816675719451904,0.2920926025390625,0.030226795959472655
1717858497022086700,9.981086669921876,9.835978970336914,0.30690672531127927,0.04249707946777344
1717858497032126700,9.991126708984375,9.824756150054931,0.30526071166992186,0.02663549346923828
1717858497042167600,10.00116748046875,9.840767373657226,0.3010708587646484,0.02289455337524414
1717858497052207600,10.01120751953125,9.828048177337646,0.303913973236084,0.032172084808349606
1717858497062248700,10.021248779296876,9.808296013641357,0.29448680419921874,0.03621230010986328
1717858497072289800,10.031289794921875,9.827748902130127,0.3010708587646484,0.027383681488037107
1717858497082329900,10.041329833984374,9.841066648864745,0.3058592620849609,0.01840542526245117
1717858497092370700,10.05137060546875,9.835829332733153,0.3037643356323242,0.03366846084594726
1717858497102411800,10.061411865234374,9.828946002960205,0.2814683326721191,0.026186580657958983
1717858497112451800,10.071451904296875,9.828796365356444,0.2973299186706543,0.03666121292114258
1717858497122492700,10.08149267578125,9.83852280960083,0.28490999755859375,0.04144961624145507
1717858497132532700,10.09153271484375,9.826252526092528,0.29867665710449215,0.03591302490234375
1717858497142573800,10.10157373046875,9.815328981018066,0.31229367904663086,0.03621230010986328
1717858497152615000,10.111614990234376,9.821464122772216,0.299424845123291,0.01945288848876953
1717858497162654700,10.12165478515625,9.820267021942138,0.3000233955383301,0.03411737365722656
1717858497172695600,10.131695556640626,9.831040929412842,0.29343934097290036,0.037409400939941405
1717858497182735600,10.141735595703125,9.841365924072266,0.2893991256713867,0.037110125732421874
1717858497192776700,10.151776611328126,9.824456874847412,0.29837738189697266,0.028880057525634766
1717858497202817800,10.16181787109375,9.822361948394775,0.28730419921875,0.035464112091064454
1717858497212857600,10.171857666015624,9.830891291809081,0.29239187774658204,0.03845686416625976
1717858497222898700,10.181898681640625,9.694421797180174,0.2976291938781738,0.03995324020385742
1717858497232938800,10.191938720703124,9.868001417541503,0.3232172241210937,0.03995324020385742
1717858497242979800,10.201979736328125,9.988160413360594,0.2811690574645996,0.03591302490234375
1717858497253020700,10.212020751953125,9.837624983978271,0.27293898925781246,0.006733692169189453
1717858497263060700,10.222060791015625,9.7162688873291,0.27084406280517576,0.0469862075805664
1717858497273101800,10.232101806640625,9.798868844604492,0.2846107223510742,0.04234744186401367
1717858497283141600,10.2421416015625,9.89598364944458,0.2979284690856933,0.030526071166992186
1717858497293182700,10.2521826171875,9.853187294769286,0.29658173065185545,0.050128597259521485
1717858497303223600,10.2622236328125,9.803657247924804,0.3265092514038086,0.049530046844482416
1717858497313263600,10.272263671875,9.785401460266113,0.33488895721435546,0.0378583137512207
1717858497323304700,10.2823046875,9.827898539733885,0.3167828071594238,0.02184709014892578
1717858497333345500,10.292345458984375,9.859771349334716,0.30137013397216794,0.007032967376708984
1717858497343385600,10.302385498046876,9.83822353439331,0.3021183219909668,-0.0010474632263183592
1717858497353426700,10.3124267578125,9.809343476867674,0.296881005859375,0.013916297149658202
1717858497363466800,10.322466796875,9.84435867614746,0.27742811737060546,0.02902969512939453
1717858497373507800,10.3325078125,9.832836580657958,0.26755203552246093,0.032172084808349606
1717858497383548700,10.342548583984374,9.805003986358642,0.27623101654052734,0.03172317199707031
1717858497393588700,10.352588623046875,9.83238766784668,0.28431144714355466,0.047884033203124995
1717858497403629800,10.3626298828125,9.822810861206055,0.3101987525939941,0.06778583450317383
1717858497413670000,10.372669921875,9.804405435943602,0.3124433166503906,0.06329670639038086
1717858497423710700,10.382710693359375,9.83792425918579,0.3124433166503906,0.05850830307006836
1717858497433751800,10.392751708984376,9.842114112091064,0.2995744827270508,0.04159925384521484
1717858497443791600,10.40279150390625,9.830891291809081,0.2780266677856445,0.02858078231811523
1717858497453832700,10.412832763671876,9.808146376037596,0.27667992935180663,0.017208324432373044
1717858497463872800,10.422872802734375,9.824157599639893,0.2932897033691406,0.03202244720458984
1717858497473913600,10.43291357421875,9.8442090385437,0.30466216125488277,0.031124621582031248
1717858497483954700,10.44295458984375,9.835679695129395,0.2931400657653808,0.022744915771484374
1717858497493994800,10.452994873046874,9.819668471527098,0.2995744827270508,0.0378583137512207
1717858497504035600,10.46303564453125,9.803956523132324,0.2998737579345703,0.05057751007080078
1717858497514075600,10.47307568359375,9.83163947982788,0.3128922294616699,0.040102877807617184
1717858497524116700,10.48311669921875,9.854234757995606,0.30406361083984373,0.04414309310913086
1717858497534157800,10.49315771484375,9.832686943054199,0.2916436897277832,0.036062662506103516
1717858497544198000,10.503197998046875,9.809044201660155,0.2888005752563476,0.02154781494140625
1717858497554238700,10.51323876953125,9.827150351715087,0.3028665100097656,0.016160861206054686
1717858497564278800,10.52327880859375,9.83777462158203,0.282815071105957,0.032172084808349606
1717858497574319900,10.53331982421875,9.83134020462036,0.2916436897277832,0.03950432739257812
1717858497584361000,10.54336083984375,9.822810861206055,0.29269115295410153,0.03501519927978516
1717858497594400800,10.55340087890625,9.817723182678222,0.2979284690856933,0.04159925384521484
1717858497604441600,10.563441650390626,9.822661223602294,0.30960020217895506,0.039354689788818356
1717858497614482700,10.573482666015625,9.833435131072997,0.3124433166503906,0.024390929412841794
1717858497624522800,10.583522705078124,9.82535470046997,0.3163338943481445,0.01780687484741211
1717858497634563600,10.5935634765625,9.824456874847412,0.31064766540527344,0.01780687484741211
1717858497644603600,10.603603759765624,9.815179343414306,0.28640637359619137,0.019602526092529295
1717858497654644700,10.613644775390625,9.821763397979735,0.2929904281616211,0.0282815071105957
1717858497664685800,10.623685791015625,9.83178911743164,0.2980781066894531,0.05192424850463867
1717858497674726000,10.633725830078125,9.824007962036132,0.2998737579345703,0.03396773605346679
1717858497684766700,10.6437666015625,9.80665,0.29239187774658204,0.020201076507568357
1717858497694806800,10.653806884765626,9.826851076507568,0.3010708587646484,0.03920505218505859
1717858497704848000,10.663847900390625,9.85677859725952,0.29284079055786133,0.031872809600830075
1717858497714888700,10.673888671875,9.823559049224853,0.2902969512939453,0.035763387298583985
1717858497724928500,10.683928466796875,9.807398188018798,0.29284079055786133,0.04234744186401367
1717858497734969600,10.693969482421876,9.826701438903807,0.297479556274414,0.03411737365722656
1717858497745009700,10.704009765625,9.835380419921874,0.309001651763916,0.02977788314819336
1717858497755050800,10.71405078125,9.840168823242188,0.3269581642150879,0.030526071166992186
1717858497765091600,10.724091552734375,9.822810861206055,0.3142389678955078,0.0326209976196289
1717858497775131600,10.734131591796874,9.823259774017334,0.29448680419921874,0.03396773605346679
1717858497785172700,10.7441728515625,9.835829332733153,0.28356325912475583,0.03965396499633789
1717858497795212800,10.754212890625,9.83837317199707,0.2877531120300293,0.04249707946777344
1717858497805253600,10.764253662109375,9.814730430603026,0.2916436897277832,0.03142389678955078
1717858497815294700,10.774294677734375,9.809792389678954,0.2856581855773926,0.026485855865478514
1717858497825334800,10.784334716796875,9.834931507110594,0.28476035995483395,0.030226795959472655
1717858497835375900,10.7943759765625,9.854234757995606,0.2885013000488281,0.03007715835571289
1717858497845416700,10.804416748046876,9.837176071166992,0.2919429649353027,0.034715924072265626
1717858497855456800,10.814456787109375,9.809493114471435,0.28790274963378903,0.04638765716552734
1717858497865497900,10.824497802734374,9.819818109130859,0.30256723480224607,0.05327098693847656
1717858497875537400,10.834537353515625,9.833884043884277,0.2953846298217773,0.025887305450439452
1717858497885578500,10.84457861328125,9.848698166656494,0.29284079055786133,0.029328970336914062
1717858497895619300,10.854619384765625,9.824756150054931,0.299424845123291,0.04249707946777344
1717858497905659400,10.864659423828124,9.80665,0.2911947769165039,0.03980360260009765
1717858497915700500,10.874700439453125,9.823110136413574,0.2950853546142578,0.0234931037902832
1717858497925740300,10.884740234375,9.836577520751952,0.2959831802368164,0.03127425918579101
1717858497935781000,10.894781005859375,9.833584768676758,0.29553426742553707,0.04444236831665039
1717858497945822200,10.904822265625,9.815478618621826,0.2911947769165039,0.04384381790161133
1717858497955862300,10.9148623046875,9.802609784698486,0.30151977157592774,0.04144961624145507
1717858497965903400,10.9249033203125,9.823559049224853,0.29867665710449215,0.039354689788818356
1717858497975943400,10.934943359375,9.833435131072997,0.3033154228210449,0.042945992279052735
1717858497985984300,10.944984375,9.826402163696288,0.28969840087890625,0.043544542694091797
1717858497996025300,10.955025390625,9.826851076507568,0.2840121719360351,0.039055414581298825
1717858498006065400,10.9650654296875,9.824307237243652,0.29014731369018554,0.03486556167602539
1717858498016106200,10.975106201171876,9.821913035583496,0.29433716659545894,0.03561374969482422
1717858498026146300,10.985146240234375,9.82520506286621,0.28790274963378903,0.04249707946777344
1717858498036187400,10.9951875,9.826402163696288,0.2914940521240234,0.03995324020385742
1717858498046228500,11.005228515625,9.823259774017334,0.30885201416015623,0.05102642288208008
1717858498056268500,11.0152685546875,9.83178911743164,0.2952349922180176,0.03980360260009765
1717858498066309400,11.025309326171875,9.839270997619629,0.297479556274414,0.03336918563842773
1717858498076350500,11.0353505859375,9.833584768676758,0.296881005859375,0.03396773605346679
1717858498086390300,11.045390380859375,9.824905787658691,0.2911947769165039,0.04129997863769531
1717858498096431400,11.055431396484375,9.82460651245117,0.29224224014282224,0.026785131072998045
1717858498106471400,11.065471435546876,9.833884043884277,0.29613281784057616,0.033518823242187495
1717858498116512300,11.07551220703125,9.833285493469237,0.29837738189697266,0.03142389678955078
1717858498126553300,11.08555322265625,9.819219558715819,0.3094505645751953,0.03980360260009765
1717858498136593400,11.095593505859375,9.828347452545165,0.2991255699157715,0.03950432739257812
1717858498146634200,11.10563427734375,9.824007962036132,0.29718028106689454,0.03426701126098632
1717858498156674300,11.11567431640625,9.812036953735351,0.30481179885864257,0.022744915771484374
1717858498166715400,11.12571533203125,9.82520506286621,0.2911947769165039,0.04668693237304687
1717858498176756500,11.135756591796875,9.83134020462036,0.28520927276611324,0.040701428222656245
1717858498186796500,11.145796630859374,9.827599264526366,0.28161797027587887,0.030226795959472655
1717858498196837400,11.15583740234375,9.830891291809081,0.3001730331420898,0.029927520751953124
1717858498206877200,11.165877197265624,9.815179343414306,0.28954876327514645,0.04608838195800781
1717858498216918300,11.175918212890625,9.704746791839598,0.3003226707458496,0.038756139373779294
1717858498226959400,11.18595947265625,9.909451033782958,0.31379005508422847,0.043245267486572266
1717858498236999200,11.195999267578125,9.96661259841919,0.30466216125488277,0.028880057525634766
1717858498247040300,11.206040283203125,9.856479322052001,0.2742857276916504,0.03441664886474609
1717858498257080300,11.216080322265626,9.725247143554688,0.2694973243713379,0.04683656997680664
1717858498267121400,11.226121337890625,9.751583361816406,0.2829647087097168,0.03651157531738281
1717858498277162200,11.236162353515626,9.871143807220458,0.29718028106689454,0.046238019561767575
1717858498287202300,11.246202392578125,9.909151758575439,0.31483751831054685,0.046238019561767575
1717858498297243400,11.256243408203124,9.829993466186522,0.3263596138000488,0.049829322052001954
1717858498307284500,11.266284423828125,9.76789386062622,0.3227683113098144,0.03037643356323242
1717858498317324300,11.27632421875,9.804106160736083,0.3128922294616699,0.0282815071105957
1717858498327365400,11.286365478515625,9.870844532012939,0.3051110740661621,-0.0026934768676757813
1717858498337405400,11.296405517578124,9.86351228942871,0.2980781066894531,0.005087678527832031
1717858498347446500,11.306446533203125,9.8311905670166,0.26695348510742184,0.021697452545166016
1717858498357487400,11.3164873046875,9.776872116851806,0.2769792045593262,0.021398177337646485
1717858498367527200,11.326527099609375,9.77462755279541,0.2859574607849121,0.03127425918579101
1717858498377568300,11.336568359375,9.857975698089598,0.2980781066894531,0.04384381790161133
1717858498387608300,11.3466083984375,9.87668039855957,0.3087023765563965,0.058957215881347655
1717858498397649400,11.3566494140625,9.801263046264648,0.32097266006469727,0.06554127044677734
1717858498407690200,11.366690185546876,9.781510882568359,0.3049614364624023,0.046238019561767575
1717858498417730300,11.376730224609375,9.816226806640625,0.2855085479736328,0.0282815071105957
1717858498427771400,11.386771484375,9.879822788238524,0.30151977157592774,0.01601122360229492
1717858498437811500,11.3968115234375,9.850493817901611,0.29553426742553707,0.013617021942138671
1717858498447852300,11.406852294921874,9.807098912811279,0.28520927276611324,0.023792378997802732
1717858498457893400,11.416893310546875,9.796025730133056,0.27563246612548825,0.02663549346923828
1717858498467933400,11.426933349609374,9.83882208480835,0.27742811737060546,0.03336918563842773
1717858498477974500,11.436974609375,9.86291373901367,0.29927520751953124,0.04519055633544922
1717858498488014300,11.447014404296874,9.817723182678222,0.2989759323120117,0.04833294601440429
1717858498498055400,11.457055419921875,9.809792389678954,0.3012204963684082,0.053719899749755856
1717858498508096500,11.467096435546875,9.824007962036132,0.30271687240600587,0.030974983978271482
1717858498518136300,11.47713623046875,9.846603240203857,0.2980781066894531,0.011222820281982421
1717858498528177200,11.48717724609375,9.845705414581298,0.28221652069091796,0.024091654205322263
1717858498538218200,11.49721826171875,9.81862100830078,0.2905962265014648,0.035464112091064454
1717858498548258300,11.50725830078125,9.81906992111206,0.2920926025390625,0.02977788314819336
1717858498558299400,11.51729931640625,9.814580792999267,0.2925415153503418,0.033818098449707026
1717858498568339500,11.52733935546875,9.843610488128661,0.30092122116088865,0.04144961624145507
1717858498578380300,11.53738037109375,9.826551801300049,0.2991255699157715,0.03920505218505859
1717858498588421400,11.54742138671875,9.810540577697754,0.3024175971984863,0.03591302490234375
1717858498598461400,11.55746142578125,9.824307237243652,0.30361469802856444,0.03142389678955078
1717858498608502300,11.567502197265625,9.82535470046997,0.28580782318115233,0.02633621826171875
1717858498618542300,11.577542236328124,9.834332956695556,0.2819172454833984,0.021098902130126954
1717858498628583400,11.58758349609375,9.840168823242188,0.2950853546142578,0.020949264526367185
1717858498638624500,11.59762451171875,9.804106160736083,0.296881005859375,0.020949264526367185
1717858498648664300,11.607664306640626,9.822661223602294,0.29014731369018554,0.044292730712890624
1717858498658705200,11.617705078125,9.836876795959473,0.3058592620849609,0.0330699104309082
1717858498668745200,11.6277451171875,9.834931507110594,0.3181295455932617,0.03172317199707031
1717858498678786300,11.637786376953125,9.835380419921874,0.30196868438720703,0.02483984222412109
1717858498688827400,11.647827392578124,9.829993466186522,0.29553426742553707,0.04144961624145507
1717858498698867200,11.6578671875,9.815628256225585,0.2980781066894531,0.035763387298583985
1717858498708908300,11.667908203125,9.823559049224853,0.2902969512939453,0.033818098449707026
1717858498718948400,11.6779482421875,9.83777462158203,0.2893991256713867,0.030526071166992186
1717858498728989400,11.687989501953124,9.835380419921874,0.3172317199707031,0.032172084808349606
1717858498739030300,11.6980302734375,9.807398188018798,0.29658173065185545,0.02798223190307617
1717858498749070300,11.7080703125,9.821314485168456,0.2980781066894531,0.0378583137512207
1717858498759111400,11.718111328125,9.821913035583496,0.28790274963378903,0.04399345550537109
1717858498769151500,11.7281513671875,9.827299989318847,0.282815071105957,0.04519055633544922
1717858498779192300,11.7381923828125,9.823259774017334,0.28790274963378903,0.03277063522338867
1717858498789233400,11.7482333984375,9.801562321472167,0.29224224014282224,0.02424129180908203
1717858498799273200,11.758273193359376,9.81263550415039,0.3021183219909668,0.04249707946777344
1717858498809314300,11.768314208984375,9.835081144714355,0.2888005752563476,0.04159925384521484
1717858498819355100,11.778355224609374,9.836278245544433,0.28745383682250975,0.035464112091064454
1717858498829395200,11.788395263671875,9.81996774673462,0.28790274963378903,0.027383681488037107
1717858498839436300,11.798436279296874,9.813234054565429,0.3064578125,0.03815758895874023
1717858498849476400,11.808476318359375,9.826701438903807,0.2888005752563476,0.030825346374511717
1717858498859517400,11.818517333984374,9.839869548034667,0.2902969512939453,0.03561374969482422
1717858498869558300,11.828558349609375,9.838672447204589,0.28266543350219725,0.029328970336914062
1717858498879599000,11.83859912109375,9.818770645904541,0.28805238723754883,0.026036943054199218
1717858498889640200,11.84864013671875,9.817573545074461,0.2856581855773926,0.03666121292114258
1717858498899680300,11.85868017578125,9.8319387550354,0.28745383682250975,0.033219548034667964
1717858498909721000,11.86872119140625,9.835679695129395,0.2876034744262695,0.030226795959472655
1717858498919762200,11.87876220703125,9.827299989318847,0.3012204963684082,0.027682956695556638
1717858498929802200,11.88880224609375,9.824007962036132,0.29777883148193357,0.043544542694091797
1717858498939843000,11.898843017578125,9.822810861206055,0.2868552864074707,0.03501519927978516
1717858498949883100,11.908883056640626,9.834781869506836,0.28580782318115233,0.03202244720458984
1717858498959924200,11.91892431640625,9.833135855865478,0.29553426742553707,0.03247136001586914
1717858498969965300,11.92896533203125,9.830143103790283,0.29224224014282224,0.03651157531738281
1717858498980005000,11.939005126953125,9.81951883392334,0.3028665100097656,0.037409400939941405
1717858498990046000,11.9490458984375,9.820865572357176,0.3010708587646484,0.029328970336914062
1717858499000087000,11.959087158203126,9.829544553375243,0.2985270195007324,0.03516483688354492
1717858499010127000,11.969127197265625,9.832836580657958,0.29134441452026366,0.03621230010986328
1717858499020168200,11.979168212890626,9.821613760375977,0.2991255699157715,0.022445640563964843
1717858499030208000,11.9892080078125,9.822810861206055,0.2937386161804199,0.03202244720458984
1717858499040249000,11.9992490234375,9.823110136413574,0.2914940521240234,0.036361937713623046
1717858499050290200,12.009290283203125,9.823559049224853,0.2947860794067383,0.03247136001586914
1717858499060330200,12.019330322265626,9.83238766784668,0.2914940521240234,0.03366846084594726
1717858499070371000,12.02937109375,9.826701438903807,0.3066074501037597,0.03815758895874023
1717858499080411100,12.0394111328125,9.824456874847412,0.30750527572631836,0.03516483688354492
1717858499090452200,12.0494521484375,9.840617736053467,0.2967313682556152,0.04159925384521484
1717858499100493300,12.059493408203124,9.826551801300049,0.29718028106689454,0.024690204620361325
1717858499110533000,12.069533203125,9.822361948394775,0.299424845123291,0.03426701126098632
1717858499120574200,12.07957421875,9.82505542526245,0.29867665710449215,0.032920272827148434
1717858499130614000,12.089614013671875,9.833135855865478,0.2902969512939453,0.02498947982788086
1717858499140655000,12.099655029296875,9.833135855865478,0.29179332733154295,0.03666121292114258
1717858499150696000,12.109696044921876,9.837176071166992,0.2979284690856933,0.03172317199707031
1717858499160736000,12.119736083984375,9.830143103790283,0.2952349922180176,0.047285482788085934
1717858499170777000,12.129777099609376,9.816825357055663,0.28805238723754883,0.04773439559936523
1717858499180817200,12.139817138671875,9.815777893829345,0.29269115295410153,0.0326209976196289
1717858499190858200,12.149858154296876,9.716568162536621,0.3000233955383301,0.032172084808349606
1717858499200899000,12.159899169921875,9.890297420501708,0.3076549133300781,0.03172317199707031
1717858499210939100,12.169939208984376,9.932195949554442,0.2910451393127441,0.0282815071105957
1717858499220980200,12.179980224609375,9.824456874847412,0.2813186950683594,0.036361937713623046
1717858499231020300,12.190020263671874,9.753977563476562,0.26665420989990235,0.06733692169189452
1717858499241061000,12.20006103515625,9.801412683868408,0.282815071105957,0.050727147674560547
1717858499251102200,12.210102294921874,9.860669174957275,0.29718028106689454,0.03501519927978516
1717858499261142300,12.220142333984375,9.869348155975342,0.3081038261413574,0.03202244720458984
1717858499271183400,12.230183349609375,9.822810861206055,0.31588498153686523,0.044292730712890624
1717858499281224200,12.24022412109375,9.792434427642823,0.3119944038391113,0.031573534393310544
1717858499291264000,12.250263916015625,9.80605144958496,0.32830490264892576,0.03860650177001953
1717858499301305000,12.26030517578125,9.849895267486572,0.30750527572631836,0.02424129180908203
1717858499311345200,12.27034521484375,9.839570272827148,0.29777883148193357,0.02424129180908203
1717858499321386000,12.280385986328126,9.81951883392334,0.30466216125488277,0.02528875503540039
1717858499331427000,12.290427001953125,9.81188731613159,0.2765302917480469,0.03516483688354492
1717858499341467100,12.300467041015626,9.833584768676758,0.2555810272216797,0.0474351203918457
1717858499351508200,12.31050830078125,9.830442378997802,0.2798223190307617,0.04803367080688476
1717858499361548300,12.32054833984375,9.817274269866942,0.2871545616149902,0.04848258361816406
1717858499371589000,12.330589111328125,9.814880068206786,0.3163338943481445,0.0522235237121582
1717858499381630200,12.340630126953124,9.823409411621093,0.31872809600830077,0.025887305450439452
1717858499391670300,12.350670166015625,9.827449626922608,0.31049802780151364,0.024690204620361325
1717858499401711000,12.360711181640625,9.835978970336914,0.3067570877075195,0.022744915771484374
1717858499411751000,12.3707509765625,9.822661223602294,0.2973299186706543,0.02798223190307617
1717858499421792000,12.3807919921875,9.8189202835083,0.2862567359924316,0.03247136001586914
1717858499431833000,12.3908330078125,9.848997441864013,0.27518355331420896,0.041748891448974604
1717858499441873200,12.400873046875,9.837624983978271,0.26919804916381834,0.04055179061889648
1717858499451914000,12.4109140625,9.835081144714355,0.2753331909179687,0.03755903854370117
1717858499461955000,12.420955078125,9.80679963760376,0.2867056488037109,0.047584757995605464
1717858499471995100,12.4309951171875,9.811139128112792,0.3151367935180664,0.0326209976196289
1717858499482036200,12.4410361328125,9.840168823242188,0.31214404144287106,0.03815758895874023
1717858499492076000,12.451075927734376,9.84510686416626,0.31049802780151364,0.03920505218505859
1717858499502117000,12.4611171875,9.8311905670166,0.2998737579345703,0.04773439559936523
1717858499512158200,12.471158203125,9.817872820281982,0.2850596351623535,0.02798223190307617
1717858499522198300,12.4811982421875,9.846154327392577,0.28730419921875,0.027383681488037107
1717858499532239000,12.491239013671875,9.83822353439331,0.29358897857666016,0.030974983978271482
1717858499542279200,12.501279052734375,9.821613760375977,0.2902969512939453,0.02633621826171875
1717858499552320300,12.5113203125,9.816825357055663,0.30047230834960936,0.032172084808349606
1717858499562361300,12.521361328125,9.826851076507568,0.30092122116088865,0.02858078231811523
1717858499572401200,12.531401123046875,9.834033681488037,0.3067570877075195,0.04129997863769531
1717858499582442000,12.54144189453125,9.834033681488037,0.3103483901977539,0.027383681488037107
1717858499592482000,12.55148193359375,9.818770645904541,0.30570962448120115,0.04339490509033203
1717858499602523100,12.561523193359376,9.817723182678222,0.30316578521728516,0.02259527816772461
1717858499612564000,12.57156396484375,9.81263550415039,0.2910451393127441,0.030226795959472655
1717858499622604000,12.58160400390625,9.828197814941406,0.29703064346313474,0.03067570877075195
1717858499632645000,12.59164501953125,9.839121360015868,0.2953846298217773,0.032172084808349606
1717858499642686200,12.601686279296874,9.817423907470703,0.3028665100097656,0.018555062866210937
1717858499652726300,12.611726318359375,9.816675719451904,0.30196868438720703,0.02693476867675781
1717858499662767000,12.62176708984375,9.83208839263916,0.30795418853759765,0.037409400939941405
1717858499672807200,12.63180712890625,9.852439106750488,0.29074586410522457,0.03336918563842773
1717858499682848300,12.64184814453125,9.830442378997802,0.28640637359619137,0.03995324020385742
1717858499692889000,12.65188916015625,9.807847100830077,0.29718028106689454,0.041000703430175776
1717858499702929200,12.66192919921875,9.818022457885741,0.29358897857666016,0.03426701126098632
1717858499712970200,12.67197021484375,9.862165550994872,0.3133411422729492,0.026485855865478514
1717858499723010000,12.682010009765625,9.848249253845214,0.3060088996887207,0.03456628646850586
1717858499733051100,12.692051025390626,9.818172095489501,0.2925415153503418,0.0474351203918457
1717858499743092000,12.702092041015625,9.815179343414306,0.2979284690856933,0.04414309310913086
1717858499753132000,12.712132080078124,9.826252526092528,0.28356325912475583,0.040402153015136714
1717858499763173000,12.722173095703125,9.847351428222655,0.2885013000488281,0.03127425918579101
1717858499773213200,12.732213134765624,9.816226806640625,0.2947860794067383,0.03441664886474609
1717858499783254300,12.742254150390625,9.809193839263916,0.2985270195007324,0.03666121292114258
1717858499793295000,12.752295166015625,9.805303261566161,0.30181904678344723,0.03561374969482422
