time,seconds_elapsed,z,y,x
1717858487089426700,0.0484267578125,-0.0003851098008453846,-0.0007359711453318596,0.0009637088514864445
1717858487099467800,0.0584677734375,-0.0003582367207854986,-0.0010176654905080795,-0.0014355247840285301
1717858487109508900,0.0685087890625,0.00006680376827716827,-0.000054134055972099304,0.0003059161826968193
1717858487119548700,0.078548583984375,0.0008702073246240616,-0.0005720192566514015,-0.00022768741473555565
1717858487129589800,0.08858984375,-0.0005162341985851526,-0.0008394001051783562,0.0004998883232474327
1717858487139629800,0.0986298828125,-0.000098781893029809,0.000634925439953804,0.0005693738348782063
1717858487149671000,0.1086708984375,0.000009875278919935226,0.00064078439027071,0.0015608686953783035
1717858487159710700,0.118710693359375,0.0014647231437265873,-0.00034481752663850784,-0.0009241625666618347
1717858487169751600,0.12875146484375,0.00012701703235507011,-0.0005003456026315689,-0.0008075162768363953
1717858487179791600,0.13879150390625,-0.00023679458536207676,-0.0006064251065254211,-0.00007616216316819191
1717858487189832700,0.148832763671875,-0.0005044422578066587,-0.00042213406413793564,-0.0004969416186213493
1717858487199873800,0.158873779296875,0.0009667333215475082,0.00011177361011505127,-0.0007646004669368267
1717858487209913900,0.168913818359375,-0.0008900226093828678,0.00028993934392929077,0.0001834849826991558
1717858487219954700,0.17895458984375,0.00045727984979748726,-0.0004123365506529808,0.0006318516097962856
1717858487229994800,0.188994873046875,-0.0007027930114418268,0.00027768872678279877,-0.00044806022197008133
1717858487240035800,0.199035888671875,-0.0013775513507425785,-0.0007282616570591927,0.00041320081800222397
1717858487250076000,0.209075927734375,-0.0009109654929488897,0.00016363151371479034,-0.00035085994750261307
1717858487260116700,0.21911669921875,0.0003771972842514515,0.00021269731223583221,-0.001131922472268343
1717858487270157800,0.22915771484375,-0.0010252234060317278,0.00010244268923997879,-0.0002932930365204811
1717858487280197600,0.23919775390625,0.0005217399448156357,0.00017840880900621414,-0.0005107829347252846
1717858487290238700,0.24923876953125,-0.0010199639946222305,0.002584574744105339,0.00006978632882237434
1717858487300278800,0.25927880859375,-0.0002660253085196018,-0.0005186023190617561,0.0000029318034648895264
1717858487310319600,0.269319580078125,-0.0005698918830603361,-0.0005439016968011856,0.0004892251454293728
1717858487320359700,0.279359619140625,-0.0005213820841163397,0.0008576000109314919,0.000817514955997467
1717858487330400800,0.28940087890625,0.0011023473925888538,0.0007723784074187279,0.0005386820994317532
1717858487340441600,0.299441650390625,-0.0001844323705881834,0.00019741803407669067,0.00035034073516726494
1717858487350481700,0.309481689453125,0.001062992261722684,-0.000279819592833519,0.001956759486347437
1717858487360522800,0.319522705078125,-0.0005722392816096544,-0.0006340881809592247,0.00010165711864829063
1717858487370562800,0.329562744140625,0.00005892990157008171,-0.0010282360017299652,-0.00024561909958720207
1717858487380604000,0.33960400390625,0.001159547595307231,0.00007571186870336533,-0.0005738390609622002
1717858487390643700,0.349643798828125,-0.00071158935315907,-0.0008372198790311813,0.001245366409420967
1717858487400684800,0.359684814453125,-0.00006735185161232948,-0.0005184207111597061,-0.0005528051406145096
1717858487410726000,0.369725830078125,-0.0004987840075045824,0.0000653434544801712,-0.0005104606971144676
1717858487420765700,0.379765625,-0.000977975083515048,-0.0018670116551220417,0.0011299741454422474
1717858487430806500,0.389806640625,-0.0019934384617954493,-0.00009654276072978973,0.00039653992280364037
1717858487440846600,0.3998466796875,0.0009634224697947502,0.0005028359591960907,-0.0006108991801738739
1717858487450887700,0.4098876953125,0.0004379809834063053,0.00021042022854089737,-0.0008266153745353222
1717858487460927700,0.419927734375,-0.0008805971592664719,-0.001293754205107689,-0.001813046634197235
1717858487470968800,0.42996875,-0.00007525715045630932,-0.0006463397294282913,-0.0010127667337656021
1717858487481009700,0.440009765625,-0.001213565468788147,0.0004624100401997566,-0.00040621496737003326
1717858487491049700,0.4500498046875,-0.0005746730603277683,-0.000431613065302372,-0.00040009012445807457
1717858487501090800,0.4600908203125,-0.0005973945371806622,-0.0008673593401908875,-0.0005761077627539635
1717858487511131000,0.470130859375,-0.0013635859359055758,-0.00003538839519023895,0.0001546633429825306
1717858487521171700,0.480171630859375,0.000011874129995703697,0.00004819873720407486,0.0015494311228394508
1717858487531211500,0.49021142578125,0.0006531635299324989,0.00036564748734235764,-0.00005352543666958809
1717858487541252600,0.500252685546875,-0.00023773126304149628,0.00018429942429065704,0.000682290643453598
1717858487551293700,0.510293701171875,-0.0011256290599703789,-0.00019413605332374573,-0.001396039966493845
1717858487561333800,0.520333740234375,-0.00004566065035760403,0.0005478542298078537,-0.0006834068335592747
1717858487571374600,0.53037451171875,0.0003191924188286066,0.0006916644051671028,0.00019437121227383614
1717858487581414700,0.54041455078125,0.0009269197471439838,-0.001445702277123928,0.000815714243799448
1717858487591455700,0.550455810546875,-0.0010430205147713423,-0.0010390374809503555,-0.00016033416613936424
1717858487601496600,0.56049658203125,0.0015097768045961857,0.0005299048498272896,-0.0005479929968714714
1717858487611536600,0.57053662109375,0.0006317324005067348,-0.00007649697363376617,-0.0010108505375683308
1717858487621577700,0.58057763671875,-0.00012311036698520184,-0.0004163309931755066,0.0004911101423203945
1717858487631617800,0.59061767578125,-0.0008048794697970152,-0.0014078263193368912,0.0003411741927266121
1717858487641659000,0.600658935546875,-0.0005529681220650673,-0.0009575309231877327,-0.0005578920245170593
1717858487651699000,0.610698974609375,-0.00040676072239875793,-0.0006438102573156357,-0.00040635792538523674
1717858487661739800,0.62073974609375,0.0007222732529044151,-0.0011361446231603622,0.001701990608125925
1717858487671780900,0.63078076171875,0.00032652728259563446,0.0005163466557860374,0.001120888628065586
1717858487681820700,0.640820556640625,-0.0011777584441006184,-0.0003365222364664078,0.0008052592165768147
1717858487691861500,0.650861572265625,-0.00036629335954785347,-0.0008853999897837639,-0.0003002188168466091
1717858487701901600,0.660901611328125,0.00018326914869248867,-0.0005994662642478943,-0.0005557923577725887
1717858487711942700,0.670942626953125,0.0011550562921911478,0.00022744480520486832,-0.00007056444883346558
1717858487721982700,0.680982666015625,-0.0003439378924667835,0.0011263880878686905,0.00046922359615564346
1717858487732023800,0.69102392578125,-0.000047528184950351715,-0.0002707056701183319,-0.00008977390825748444
1717858487742064600,0.701064697265625,0.0006209206767380238,-0.00038958992809057236,-0.0001882193610072136
1717858487752104700,0.711104736328125,-0.00031118583865463734,0.00103733129799366,-0.0007738485001027584
1717858487762145800,0.721145751953125,-0.00035747699439525604,-0.0005532726645469666,-0.000029456336051225662
1717858487772185900,0.731185791015625,-0.000010467134416103363,-0.0003143865615129471,0.0005593686364591122
1717858487782226700,0.741226806640625,-0.0004980694502592087,0.0010332213714718819,-0.0015884223394095898
1717858487792267800,0.751267822265625,0.0000454816035926342,-0.00017745234072208405,-0.00009012781083583832
1717858487802307600,0.7613076171875,-0.00006669294089078903,0.0005499487742781639,-0.0007850960828363895
1717858487812348700,0.7713486328125,-0.0006893400568515062,0.00022877100855112076,-0.0012013483792543411
1717858487822388700,0.781388671875,-0.0009789364412426949,-0.0008633686229586601,-0.00040765292942523956
1717858487832429600,0.7914296875,-0.00040555791929364204,-0.0001331297680735588,0.0004216553643345833
1717858487842469600,0.8014697265625,0.0013799781445413828,-0.000736946240067482,0.0013672048225998878
1717858487852510700,0.8115107421875,0.0009805040899664164,-0.0005553187802433968,0.0004358976148068905
1717858487862551800,0.8215517578125,-0.0020817979238927364,0.0007012272253632545,0.000009860843420028687
1717858487872592000,0.831591796875,-0.0004002782516181469,-0.0013014702126383781,-0.0005701757036149502
1717858487882633000,0.841633056640625,-0.00016781105659902096,0.00040415767580270767,0.00039882492274045944
1717858487892673000,0.851673095703125,0.0012378052342683077,0.00008404534310102463,0.0005234605632722378
1717858487902714000,0.861714111328125,-0.0004473046865314245,-0.0003185803070664406,0.00008426094427704811
1717858487912755000,0.8717548828125,0.0010975953191518784,-0.0008067376911640167,-0.00005715293809771538
1717858487922795000,0.881794921875,0.0005131147336214781,0.0006297985091805458,0.0007788604125380516
1717858487932836000,0.891836181640625,0.00017089862376451492,0.0003203386440873146,0.00021213945001363754
1717858487942876000,0.9018759765625,0.0008010109886527061,-0.0009823450818657875,-0.00013487273827195168
1717858487952916700,0.911916748046875,0.00015492807142436504,-0.0012366771697998047,0.000035303179174661636
1717858487962956800,0.921956787109375,-0.0017042583785951138,-0.000194513238966465,-0.00039482535794377327
1717858487972998000,0.931997802734375,-0.0005053032655268908,0.0002555614337325096,0.0005114483647048473
1717858487983039000,0.9420390625,0.0003942861221730709,-0.001697016879916191,0.0007557678036391735
1717858487993079000,0.9520791015625,0.00011678459122776985,-0.0001473231241106987,-0.0014173714444041252
1717858488003119900,0.962119873046875,-0.000026880763471126556,-0.0015624016523361206,-0.00041901133954524994
1717858488013160000,0.972159912109375,-0.00037495605647563934,-0.000242539681494236,-0.00026534684002399445
1717858488023201000,0.982200927734375,-0.00022008782252669334,-0.00071744155138731,0.0016316520050168037
1717858488033241000,0.992240966796875,0.0011301347985863686,-0.0013025375083088875,-0.00028049759566783905
1717858488043282000,1.002281982421875,0.0003759106621146202,-0.00020925700664520264,0.0002723238430917263
1717858488053323000,1.012322998046875,-0.000140476506203413,0.00010712631046772003,0.0002776500768959522
1717858488063363000,1.022363037109375,0.002115292241796851,-0.000445682555437088,-0.00028467364609241486
1717858488073404200,1.032404052734375,-0.0005515972152352333,-0.000668056309223175,0.0003970954567193985
1717858488083444000,1.04244384765625,0.0004355569835752249,0.00023199059069156647,-0.0009923223406076431
1717858488093484800,1.05248486328125,0.0011745842639356852,-0.0004907911643385887,0.001165637280791998
1717858488103526000,1.06252587890625,0.0011483784765005112,0.0004909727722406387,-0.0002883337438106537
1717858488113566000,1.07256591796875,0.00032546184957027435,-0.00018307287245988846,-0.0000025765039026737213
1717858488123607000,1.08260693359375,-0.0008468490559607744,-0.0005677454173564911,0.00046678027138113976
1717858488133646800,1.092646728515625,0.0020767692476511,-0.0004468373954296112,0.0016851765103638172
1717858488143688000,1.10268798828125,0.0007520099170506,-0.00024045631289482117,-0.0011749141849577427
1717858488153728000,1.11272802734375,0.0005618599243462086,0.00010362360626459122,0.0011026212014257908
1717858488163769000,1.12276904296875,0.0004032626748085022,0.0007533226162195206,0.0005508521571755409
1717858488173810000,1.132809814453125,0.00033561838790774345,0.00044040102511644363,0.00037082238122820854
1717858488183850000,1.14285009765625,0.0003787118475884199,0.0004871804267168045,0.00006841076537966728
1717858488193891000,1.15289111328125,-0.001671123318374157,0.0005934406071901321,-0.00022080866619944572
1717858488203931000,1.162930908203125,0.0008242211770266294,-0.00022656936198472977,-0.00010253721848130226
1717858488213972000,1.172971923828125,-0.0003555591683834791,-0.00037410855293273926,-0.0010919016785919666
1717858488224013000,1.183012939453125,0.0009777029044926167,0.00003942754119634628,-0.0002399473451077938
1717858488234052900,1.193052978515625,0.0005161771550774574,-0.00010678078979253769,-0.000701206736266613
1717858488244094000,1.203093994140625,-0.0004826746881008148,-0.0010311733931303024,0.0005519245751202106
1717858488254134000,1.213134033203125,0.0011873936746269464,0.00020400062203407288,-0.00008776690810918808
1717858488264174800,1.2231748046875,-0.0009441657457500696,-0.0009962311014533043,-0.0003586765378713608
1717858488274215000,1.23321484375,-0.0009513564873486757,-0.0006468240171670914,0.0014530718326568604
1717858488284256000,1.243256103515625,0.00010709278285503387,-0.0004351874813437462,0.0005422630347311497
1717858488294297000,1.253297119140625,0.0008309397380799055,-0.0014277473092079163,-0.0005877162329852581
1717858488304337200,1.263337158203125,-0.0008728234097361565,-0.0001643141731619835,-0.0006635119207203388
1717858488314378000,1.2733779296875,0.0005607563070952892,-0.0006277039647102356,0.000986848957836628
1717858488324418000,1.28341796875,0.0006994227878749371,-0.0016431626863777637,-0.0006316853687167168
1717858488334459100,1.293459228515625,0.001005419995635748,-0.0011992137879133224,0.0011273324489593506
1717858488344500000,1.3035,-0.0001891888678073883,-0.0008470173925161362,0.00008923979476094246
1717858488354539800,1.313539794921875,-0.00035190791822969913,0.0005825674161314964,-0.0006218240596354008
1717858488364580900,1.323580810546875,-0.0003671117592602968,-0.00025049876421689987,-0.000016104429960250854
1717858488374621000,1.333620849609375,0.0001601940020918846,0.0013135755434632301,0.0010688677430152893
1717858488384662000,1.343662109375,0.0006205588579177856,0.00011758599430322647,-0.0005963561125099659
1717858488394702000,1.3537021484375,0.001280756201595068,0.0008297152817249298,0.0016361721791327
1717858488404743000,1.363742919921875,0.00036546261981129646,0.0014820573851466179,0.0009173345752060413
1717858488414784000,1.373783935546875,0.0009010243229568005,-0.0006069261580705643,-0.00042063742876052856
1717858488424824000,1.383823974609375,0.0007540453225374222,-0.0004767961800098419,-0.00021008402109146118
1717858488434865000,1.393864990234375,-0.000040375394746661186,-0.00038571562618017197,0.0004157591611146927
1717858488444905000,1.403905029296875,-0.0008476548828184605,0.0003927582874894142,0.0002742381766438484
1717858488454946000,1.413946044921875,-0.00011661718599498272,0.0006028814241290092,0.0003301645629107952
1717858488464987100,1.423987060546875,-0.000773073174059391,-0.00036573968827724457,0.001295461319386959
1717858488475027200,1.434027099609375,-0.0006489697843790054,-0.0010653520002961159,0.0014387392438948154
1717858488485068000,1.444068115234375,-0.00022682221606373787,-0.0008195331320166588,-0.0004551718011498451
1717858488495107800,1.45410791015625,-0.00025824736803770065,0.0006699729710817337,0.0016015875153243542
1717858488505149000,1.46414892578125,0.0017680700402706861,-0.0012256260961294174,0.00032431585714221
1717858488515189000,1.47418896484375,-0.0005313032306730747,-0.001289275474846363,-0.00014333520084619522
1717858488525229800,1.484229736328125,0.0014793477021157742,0.00019310787320137024,0.0005297735333442688
1717858488535271000,1.49427099609375,0.0011866665445268154,0.00008045602589845657,0.0005526766180992126
1717858488545311000,1.50431103515625,0.0009071859531104565,-0.0002601630985736847,-0.00045213568955659866
1717858488555352000,1.51435205078125,-0.00009682564996182919,-0.000491858460009098,-0.0009826375171542168
1717858488565392100,1.52439208984375,-0.00010120146907866001,-0.0010445890948176384,0.00006809458136558533
1717858488575433000,1.534432861328125,0.0012945614289492369,-0.001186802051961422,0.0001269504427909851
1717858488585473000,1.54447314453125,0.0013946336694061756,-0.0004848744720220566,0.0006947782821953297
1717858488595514000,1.55451416015625,-0.0009335016366094351,-0.0005839439108967781,-0.0006442591547966003
1717858488605555000,1.564554931640625,-0.0006339407991617918,-0.001926208846271038,0.000499039888381958
1717858488615594800,1.5745947265625,0.0012955195270478725,-0.0004564104601740837,-0.00040696747601032257
1717858488625635800,1.5846357421875,0.0003063492476940155,-0.001148981973528862,0.00030521489679813385
1717858488635676000,1.594676025390625,0.0002826470881700516,0.0008007176220417023,-0.000268696341663599
1717858488645717000,1.604717041015625,0.0003281356766819954,0.00024240650236606598,0.0016258670948445797
1717858488655757800,1.6147578125,0.0009686257690191269,-0.0002452181652188301,0.0003408915363252163
1717858488665798000,1.6247978515625,-0.0011228255461901426,0.0014383606612682343,-0.000289219431579113
1717858488675839000,1.6348388671875,0.0012745519634336233,-0.0002873670309782028,-0.00037950044497847557
1717858488685879000,1.644879150390625,-0.0005468805320560932,0.0004426669329404831,-0.0004882705397903919
1717858488695919900,1.654919921875,0.0012395679950714111,0.0011902162805199623,0.0012214789167046547
1717858488705960000,1.6649599609375,0.0009062238968908787,-0.0012332610785961151,-0.000019367318600416183
1717858488716001000,1.6750009765625,0.0012321947142481804,0.0006448002532124519,0.0006948923692107201
1717858488726042000,1.6850419921875,0.0009633847512304783,-0.0018052542582154274,-0.0009368332102894783
1717858488736082200,1.695082275390625,0.0005868137814104557,0.00023792311549186707,0.002159091643989086
1717858488746123000,1.705123046875,-0.00010443711653351784,-0.0011137891560792923,0.000022891908884048462
1717858488756162800,1.715162841796875,-0.0009033852256834507,0.0007200641557574272,-0.0002647298388183117
1717858488766204000,1.725203857421875,0.0008949935436248779,0.001612911932170391,0.00008345674723386765
1717858488776245000,1.735244873046875,0.00004943995736539364,-0.000481664203107357,0.0007095658220350742
1717858488786284800,1.745284912109375,0.001063263276591897,-0.0008734622970223427,0.0007029990665614605
1717858488796326000,1.755325927734375,0.0010912262368947268,0.0008357539772987366,-0.0007982249371707439
1717858488806366000,1.765365966796875,0.0007418862078338861,-0.0008749915286898613,0.000019367318600416183
1717858488816407000,1.775406982421875,-0.000698351301252842,0.0004294244572520256,-0.0009138043969869614
1717858488826448000,1.78544775390625,0.00042059412226080894,0.00040099024772644043,0.0008768434636294842
1717858488836488000,1.795488037109375,-0.0005914070643484592,-0.0008850507438182831,-0.00016711559146642685
1717858488846529000,1.805529052734375,0.0008667998481541872,0.00029805488884449005,0.0002610706724226475
1717858488856569000,1.815569091796875,-0.0006796978414058685,0.0009097829461097717,0.00027012545615434647
1717858488866610200,1.825610107421875,-0.00031287199817597866,-0.0013843420892953873,0.0010746298357844353
1717858488876649700,1.835649658203125,0.00003253994509577751,-0.0006913868710398674,0.0008242926560342312
1717858488886690600,1.845690673828125,0.0018859703559428453,0.00017326045781373978,-0.0007843794301152229
1717858488896731600,1.855731689453125,0.0014076668303459883,0.0003935033455491066,0.0015488159842789173
1717858488906771700,1.865771728515625,0.000826593954116106,-0.0014796340838074684,-0.00033357972279191017
1717858488916812500,1.8758125,-0.0009167110547423363,0.00037951860576868057,-0.00005394779145717621
1717858488926852600,1.8858525390625,-0.0006086369976401329,-0.0003447355702519417,0.0003422577865421772
1717858488936893700,1.895893798828125,-0.0001305995974689722,0.000309603288769722,-0.0010151555761694908
1717858488946933500,1.90593359375,-0.0008026682771742344,0.00044111814349889755,0.00016101403161883354
1717858488956974600,1.915974609375,0.0001360960304737091,-0.000058224424719810486,0.0010723480954766273
1717858488967015400,1.926015380859375,-0.0005750460550189018,-0.00020874198526144028,-0.0002187918871641159
1717858488977055500,1.936055419921875,0.0004433467984199524,-0.0015645576640963554,-0.0002632667310535908
1717858488987096600,1.9460966796875,-0.000007417285814881325,0.0004398524761199951,0.0006805905140936375
1717858488997136600,1.95613671875,-0.00023644929751753807,-0.0007585706189274788,-0.0006946655921638012
1717858489007177500,1.966177490234375,-0.0019258186221122742,-0.0003257589414715767,-0.0005808062851428986
1717858489017218600,1.976218505859375,0.0016579972580075264,0.00030913855880498886,-0.00034458376467227936
1717858489027258600,1.986258544921875,0.00022995006293058395,-0.00020599458366632462,0.000735587440431118
1717858489037299700,1.9962998046875,0.0014704503118991852,-0.0004400862380862236,0.0005201380699872971
1717858489047339800,2.00633984375,-0.00029966002330183983,0.0005804961547255516,-0.0007110903970897198
1717858489057380600,2.016380615234375,-0.0007385488133877516,-0.000362263061106205,-0.0011185542680323124
1717858489067421700,2.026421630859375,-0.00001531117595732212,-0.0007129330188035965,-0.001562170684337616
1717858489077461500,2.03646142578125,0.00004434376023709774,0.0003792298957705498,0.0016634501516819
1717858489087502600,2.046502685546875,0.00039004115387797356,0.0005593495443463326,-0.00013156980276107788
1717858489097542400,2.05654248046875,0.0006595528684556484,-0.0013466747477650642,-0.0012210691347718239
1717858489107583500,2.06658349609375,0.00002489238977432251,0.0005069999024271965,-0.00023412704467773438
1717858489117623600,2.07662353515625,0.00025445688515901566,0.0006215162575244904,0.0008369963616132736
1717858489127664600,2.08666455078125,-0.00021631340496242046,0.0005513392388820648,-0.0005247616209089756
1717858489137705500,2.09670556640625,-0.00009993324056267738,0.0008309716358780861,0.0007120105437934399
1717858489147745500,2.10674560546875,-0.0005816386546939611,-0.000987357459962368,0.0017452430911362171
1717858489157786600,2.11678662109375,-0.0012437005061656237,-0.0007809624075889587,0.0004608007147908211
1717858489167826700,2.12682666015625,0.0013000229373574257,-0.0015767780132591724,-0.0009151664562523365
1717858489177867800,2.13686767578125,0.0006206505931913853,0.00001739058643579483,-0.0008272822014987469
1717858489187908600,2.14690869140625,0.0010155613999813795,0.0014462601393461227,-0.00002120155841112137
1717858489197948700,2.15694873046875,-0.00018392642959952354,0.0004952447488903999,-0.00010003102943301201
1717858489207989800,2.16698974609375,-0.0002479346003383398,-0.0006708456203341484,0.0009779478423297405
1717858489218029600,2.177029541015625,-0.0006287668365985155,-0.0006010709330439568,0.000002432148903608322
1717858489228070400,2.1870703125,-0.0002464689314365387,-0.001246688887476921,-0.00012623006477952003
1717858489238111500,2.197111572265625,-0.0007631222251802683,-0.0005726432427763939,0.0009502200409770012
1717858489248151600,2.207151611328125,0.0013528321869671345,0.00009120069444179535,0.0007235431112349033
1717858489258192600,2.217192626953125,-0.0006988670211285353,-0.0023557115346193314,0.0018231626600027084
1717858489268232700,2.227232666015625,0.0011274183634668589,-0.001379210501909256,-0.00031898729503154755
1717858489278273500,2.2372734375,0.001339406007900834,-0.000856165774166584,0.0002791588194668293
1717858489288313600,2.247313720703125,0.000018554506823420525,0.00026026368141174316,0.00047178007662296295
1717858489298354700,2.257354736328125,0.0003543791826814413,-0.0009352294728159904,0.00040759798139333725
1717858489308395500,2.2673955078125,0.000417251605540514,-0.0011344868689775467,-0.0003537926822900772
1717858489318435600,2.277435546875,-0.00008928170427680016,0.00025994423776865005,-0.00030239345505833626
1717858489328476700,2.2874765625,-0.0013721899595111609,-0.0004892675206065178,0.0017078937962651253
1717858489338516700,2.297516845703125,0.0010709939524531364,-0.00015104655176401138,0.00123917730525136
1717858489348557800,2.307557861328125,0.00027881585992872715,0.0004084557294845581,-0.00022759940475225449
1717858489358598700,2.3175986328125,-0.0008631478995084763,-0.0009638713672757149,-0.001121089793741703
1717858489368638500,2.327638427734375,-0.0006470917724072933,-0.0002390509471297264,0.00014788471162319183
1717858489378679600,2.337679443359375,0.0004999313969165087,0.0007093008607625961,0.0006837127730250359
1717858489388719600,2.3477197265625,0.0006171902641654015,-0.0015968321822583675,0.0008290056139230728
1717858489398760400,2.357760498046875,-0.0005396869964897633,0.0011334409937262535,0.001825560349971056
1717858489408800500,2.367800537109375,0.0008245282806456089,0.0000700484961271286,0.0012851119972765446
1717858489418841600,2.377841552734375,0.00005088001489639282,-0.0024855206720530987,0.0006363661959767342
1717858489428882700,2.387882568359375,0.0012725454289466143,-0.00048002414405345917,-0.0005924464203417301
1717858489438922800,2.3979228515625,0.0006240655202418566,-0.0000011883676052093506,-0.00025049643591046333
1717858489448963600,2.407963623046875,0.00028216931968927383,-0.0006069876253604889,0.0008847597055137157
1717858489459003600,2.418003662109375,-0.0006025326438248158,0.0009392434731125832,0.002088242443278432
1717858489469044700,2.428044677734375,-0.00027399323880672455,-0.0006936090067028999,0.0002651624381542206
1717858489479085600,2.43808544921875,-0.00046121329069137573,-0.0008035982027649879,-0.0011154203675687313
1717858489489125400,2.44812548828125,0.0014377385377883911,-0.0004995409399271011,0.0007163514383137226
1717858489499166500,2.45816650390625,0.001437472179532051,-0.0006577325984835625,0.00003511505201458931
1717858489509206500,2.46820654296875,-0.0007893422152847052,0.0006251195445656776,-0.00037465430796146393
1717858489519247600,2.47824755859375,0.0017241491004824638,-0.0006065927445888519,-0.0011291280388832092
1717858489529287700,2.48828759765625,-0.0007307641208171844,-0.0013786088675260544,-0.001017746515572071
1717858489539328500,2.49832861328125,0.0008434306364506483,-0.00007632281631231308,-0.0006353165954351425
1717858489549369600,2.50836962890625,0.000519774854183197,-0.0008865809068083763,-0.0003526955842971802
1717858489559409700,2.51840966796875,-0.000974258640781045,-0.001534794457256794,-0.0007082275114953518
1717858489569450500,2.528450439453125,0.0000645071268081665,-0.0021189837716519833,-0.00024167075753211975
1717858489579490600,2.538490478515625,0.0022672079503536224,0.0008669523522257805,0.00031839217990636826
1717858489589531600,2.54853173828125,-0.0013447122182697058,-0.000661877915263176,0.000789138488471508
1717858489599572700,2.55857275390625,0.0004875429440289736,0.0008390797302126884,0.0005678297020494938
1717858489609612800,2.56861279296875,-0.00011621392332017422,-0.0010109571740031242,-0.0008886819705367088
1717858489619653600,2.578653564453125,0.0003261368256062269,-0.0012170858681201935,0.00018670223653316498
1717858489629693400,2.588693359375,0.0005712530110031366,-0.0012723840773105621,0.0005144956521689892
1717858489639734500,2.598734619140625,-0.0006836284883320332,0.0005521476268768311,0.00035816803574562073
1717858489649774600,2.608774658203125,0.000017866957932710648,0.0010724673047661781,-0.00030720653012394905
1717858489659815400,2.6188154296875,-0.0010471311397850513,-0.0010319631546735764,0.0012185187079012394
1717858489669856500,2.6288564453125,0.0005571991205215454,0.00027318671345710754,0.0000483156181871891
1717858489679896600,2.638896484375,-0.00042284419760107994,0.0006809169426560402,-0.0008225380443036556
1717858489689937700,2.648937744140625,0.000611637020483613,0.0004959776997566223,0.0008955518715083599
1717858489699977700,2.658977783203125,0.0011274914722889662,-0.0007509142160415649,-0.00016385363414883614
1717858489710018600,2.6690185546875,0.0009588405955582857,0.0003412477672100067,-0.00006408430635929108
1717858489720059600,2.6790595703125,-0.0011186911724507809,-0.0002534361556172371,0.00031701382249593735
1717858489730099700,2.689099609375,-0.00046247150748968124,0.000809893012046814,0.0004982561804354191
1717858489740140800,2.699140869140625,-0.0008520919363945723,0.0003835214301943779,-0.0011912528425455093
1717858489750180600,2.7091806640625,-0.0006350257899612188,-0.0003100913017988205,0.0008517191745340824
1717858489760221400,2.719221435546875,0.000492556719109416,0.000025733374059200287,-0.0006388518959283829
1717858489770262500,2.729262451171875,0.00047030323185026646,0.0009043505415320396,0.001148464623838663
1717858489780302600,2.739302490234375,0.0010705797467380762,0.000014854595065116882,0.0019154548645019531
1717858489790343400,2.749343505859375,0.0001119349617511034,-0.0023620338179171085,0.0006836038082838058
1717858489800383500,2.759383544921875,-0.0015173868741840124,0.00020844954997301102,-0.0020016618072986603
1717858489810424600,2.769424560546875,-0.0006433902308344841,-0.000507778488099575,-0.00020818738266825676
1717858489820464600,2.779464599609375,0.00021681073121726513,-0.0008712997660040855,0.00017557386308908463
1717858489830505700,2.789505615234375,0.0011531806085258722,-0.00011475197970867157,0.00006038695573806763
1717858489840546600,2.799546630859375,-0.0002196787390857935,0.0006389226764440536,-0.0003726431168615818
1717858489850586600,2.809586669921875,-0.0012788234744220972,-0.0005693146958947182,-0.000846074428409338
1717858489860627700,2.819627685546875,-0.00045564048923552036,0.00029301736503839493,-0.0002604452893137932
1717858489870668000,2.82966796875,-0.00042368844151496887,-0.00128091499209404,0.0008316878229379654
1717858489880708900,2.839708984375,-0.0004178294911980629,-0.00005000270903110504,-0.0010263994336128235
1717858489890750000,2.84975,-0.0002740253694355488,0.0006268434226512909,-0.0010066530667245388
1717858489900790000,2.8597900390625,-0.0006830869242548943,0.0003040684387087822,0.0005363821983337402
1717858489910830800,2.869830810546875,0.0005198328290134668,-0.00083107128739357,0.0010901964269578457
1717858489920870700,2.87987060546875,0.00003061024472117424,-0.001379416324198246,0.0006678192876279354
1717858489930911700,2.889911865234375,0.0007131346501410007,0.0003735264763236046,-0.0009445487521588802
1717858489940952800,2.899952880859375,-0.00003920844756066799,0.0007559563964605331,-0.0014513484202325344
1717858489950993000,2.909992919921875,0.0010523293167352676,-0.0006552701815962791,0.00015710992738604546
1717858489961033700,2.92003369140625,-0.001080862944945693,0.0004954822361469269,-0.0006415718235075474
1717858489971073800,2.93007373046875,-0.00035222875885665417,-0.0012714024633169174,-0.0002833395265042782
1717858489981115000,2.940114990234375,0.0015527305658906698,-0.0010490287095308304,-0.0008963989093899727
1717858489991156000,2.950156005859375,-0.00014669261872768402,-0.0013874899595975876,0.00023944908753037453
1717858490001196000,2.960196044921875,-0.0004689351189881563,0.0002697957679629326,0.00028871744871139526
1717858490011236900,2.97023681640625,0.0004693162627518177,-0.0006922343745827675,-0.0007651732303202152
1717858490021277000,2.98027685546875,-0.0006545379292219877,-0.00158013217151165,-0.00027461862191557884
1717858490031318000,2.990318115234375,-0.0004878269974142313,-0.001110125333070755,0.00022507179528474808
1717858490041358000,3.000358154296875,-0.0006992819253355265,-0.000526093877851963,-0.0008231480605900288
1717858490051399000,3.01039892578125,0.00038874452002346516,0.0020535914227366447,0.0010947277769446373
1717858490061440000,3.02043994140625,-0.001554564107209444,0.0006945803761482239,0.00030616577714681625
1717858490071479800,3.030479736328125,0.0008565566968172789,-0.00024108774960041046,0.0012217340990900993
1717858490081521000,3.04052099609375,-0.00004305900074541569,0.00009047612547874451,0.00018443260341882706
1717858490091561000,3.05056103515625,-0.0006326085422188044,0.0003884183242917061,0.0011642067693173885
1717858490101601800,3.060601806640625,-0.0011889429297298193,-0.00035833194851875305,0.0008361050859093666
1717858490111643000,3.070642822265625,-0.0007045811507850885,-0.001248442567884922,0.0004907087422907352
1717858490121683000,3.080682861328125,0.00024377042427659035,0.00011669378727674484,-0.0007018544711172581
1717858490131723800,3.090723876953125,0.00009012571536004543,-0.00013728067278862,0.001256241463124752
1717858490141763800,3.100763916015625,-0.00005714711733162403,0.00041212979704141617,-0.0014298227615654469
1717858490151805000,3.110804931640625,-0.00041648466140031815,-0.0007261894643306732,-0.0007033240981400013
1717858490161846000,3.120845947265625,0.000585929024964571,-0.0014662817120552063,-0.0003355415537953377
1717858490171886000,3.130885986328125,-0.0011395460460335016,-0.000858379527926445,-0.00028177304193377495
1717858490181927000,3.140927001953125,0.00041360966861248016,0.0002625454217195511,-0.0004471549764275551
1717858490191966700,3.150966796875,-0.0007087020203471184,-0.00015729200094938278,-0.001431419514119625
1717858490202008000,3.161008056640625,-0.0004168194718658924,-0.0007335999980568886,-0.0002218117006123066
1717858490212048000,3.1710478515625,0.0003286120481789112,0.0003483407199382782,0.000014324206858873367
1717858490222088700,3.181088623046875,-0.0007097546476870775,-0.0006207842379808426,0.0008276537992060184
1717858490232129800,3.1911298828125,0.0006431646179407835,-0.0003863200545310974,-0.00023185322061181068
1717858490242169900,3.201169921875,0.0001360985916107893,-0.0005540996789932251,-0.0011415891349315643
1717858490252211000,3.2112109375,0.00009990041144192219,0.0006766216829419136,-0.00019612163305282593
1717858490262251000,3.2212509765625,0.00024078204296529293,-0.0009628208354115486,0.0003956328146159649
1717858490272291800,3.231291748046875,-0.0005167874041944742,-0.0008872933685779572,-0.0006050080992281437
1717858490282333000,3.2413330078125,-0.0006800391711294651,0.00011165905743837357,0.0002237674780189991
1717858490292373000,3.251373046875,0.0007324684411287308,-0.0006981929764151573,0.0020564713049679995
1717858490302413800,3.261413818359375,-0.0006196184549480677,0.00013564340770244598,0.00012940820306539536
1717858490312454000,3.271453857421875,-0.0005372944287955761,0.00008580740541219711,0.0004216618835926056
1717858490322495000,3.281494873046875,-0.00048349867574870586,-0.0005525527521967888,-0.0006148405373096466
1717858490332536000,3.2915361328125,-0.0004486448597162962,-0.0009656371548771858,-0.0000497172586619854
1717858490342575900,3.301575927734375,-0.0004931197036057711,-0.0006559118628501892,0.0005108783952891827
1717858490352616700,3.31161669921875,-0.0015195203013718128,-0.000889388844370842,-0.0005380553193390369
1717858490362656800,3.32165673828125,0.0014267347287386656,-0.0005740709602832794,-0.0003859889693558216
1717858490372697900,3.33169775390625,0.000221646623685956,0.0007612081244587898,0.0003411741927266121
1717858490382739000,3.341739013671875,-0.0013043445069342852,-0.0004223007708787918,-0.0008386061526834965
1717858490392778800,3.35177880859375,-0.0021815013606101274,0.00034752674400806427,0.0006634658202528954
1717858490402819800,3.36181982421875,0.000384987099096179,-0.0014501074329018593,-0.00022629601880908012
1717858490412860000,3.37185986328125,0.00019280402921140194,-0.002055543940514326,-0.0004930286668241024
1717858490422901000,3.38190087890625,-0.0001568689476698637,9.490177035331726e-7,0.0005980683490633965
1717858490432941000,3.391941162109375,0.00020961486734449863,-0.0009346893057227135,-0.00036015454679727554
1717858490442982000,3.40198193359375,0.000982464523985982,-0.0006878143176436424,0.0004920568317174911
1717858490453023000,3.41202294921875,-0.0011653963010758162,-0.00030238181352615356,-0.0004053977318108082
1717858490463063000,3.42206298828125,0.0010436957236379385,-0.0002965228632092476,-0.0005108588375151157
1717858490473104100,3.432104248046875,-0.0001195461954921484,-0.001861961092799902,-0.00032109394669532776
1717858490483143700,3.442143798828125,0.0012692923191934824,0.0005668420344591141,0.00012711621820926666
1717858490493184800,3.452184814453125,-0.00028876098804175854,0.000860084779560566,-0.0003061983734369278
1717858490503225900,3.462225830078125,0.0006745040882378817,-0.0024323808029294014,0.0014054151251912117
1717858490513266000,3.472265869140625,0.0010120091028511524,-0.00032662320882081985,0.0012552682310342789
1717858490523306800,3.482306640625,-0.001849025022238493,0.00036366842687129974,-0.00017138710245490074
1717858490533346800,3.492346923828125,-0.001164532033726573,0.0007075704634189606,-0.0000563720241189003
1717858490543388000,3.502387939453125,-0.0015051502268761396,-0.00034118257462978363,0.000655224546790123
1717858490553429000,3.512428955078125,-0.00013428088277578354,-0.0007033636793494225,-0.0009978380985558033
1717858490563469000,3.522468994140625,-0.000156651483848691,0.0006164992228150368,0.0009406767785549164
1717858490573510000,3.532510009765625,0.00034419307485222816,-0.0005921917036175728,-0.0012622876092791557
1717858490583550000,3.542550048828125,0.00046403519809246063,0.0003718724474310875,-0.000875330064445734
1717858490593591000,3.552591064453125,-0.0007683157455176115,-0.001279887743294239,0.00029835430905222893
1717858490603630800,3.562630859375,0.0008697945158928633,0.00009963009506464005,0.0002339058555662632
1717858490613671700,3.572671630859375,-0.0006818119436502457,0.0004301341250538826,-0.000253068283200264
1717858490623712800,3.582712646484375,-0.0011449356097728014,-0.001811981201171875,-0.00006931042298674583
1717858490633752800,3.5927529296875,-0.0003027298953384161,-0.0008975882083177567,-0.0003040498122572899
1717858490643794000,3.6027939453125,0.00015080650337040424,0.000056887976825237274,-0.00025558052584528923
1717858490653834000,3.612833984375,0.0011007583234459162,-0.0008760280907154083,0.0009442172013223171
1717858490663874800,3.622874755859375,-0.0011480150278657675,-0.00014046300202608109,0.0009724469855427742
1717858490673916000,3.632916015625,0.0012059684377163649,0.0002918969839811325,-0.00015718070790171623
1717858490683956000,3.6429560546875,0.0015718869399279356,0.0003936290740966797,0.0008782562799751759
1717858490693996800,3.652996826171875,0.00038980809040367603,-0.0007336735725402832,0.001645649317651987
1717858490704036900,3.663036865234375,-0.00031166826374828815,-0.00009637884795665741,-0.0009309593588113785
1717858490714078000,3.673077880859375,0.0007724857423454523,-0.0005255592986941338,-0.0006676344200968742
1717858490724119000,3.683119140625,0.0010566452983766794,-0.000356980599462986,-0.0014101238921284676
1717858490734159000,3.6931591796875,-0.0000017546117305755615,-0.0018992889672517776,-0.0014868900179862976
1717858490744200000,3.703199951171875,0.0007985250558704138,-0.0006366847082972527,0.00014456268399953842
1717858490754239700,3.71323974609375,-0.0008243222255259752,-0.000022435560822486877,-0.0005268254317343235
1717858490764280800,3.72328076171875,0.0004939425271004438,0.0008763810619711876,-0.0010338914580643177
1717858490774322000,3.733322021484375,0.0006524780765175819,-0.0003567105159163475,0.00047694286331534386
1717858490784361700,3.74336181640625,0.0005747135728597641,-0.0001977197825908661,-0.00005036313086748123
1717858490794402800,3.75340283203125,0.0001643933355808258,-0.0007512979209423065,-0.0002961251884698868
1717858490804443000,3.76344287109375,0.0005755852907896042,-0.0007646139711141586,0.000014931894838809967
1717858490814484000,3.77348388671875,0.0007710328791290522,0.00014424510300159454,-0.0008548470214009285
1717858490824524800,3.78352490234375,0.0007004591170698404,-0.0009881313890218735,0.0006969766691327095
1717858490834564900,3.79356494140625,-0.0006468070205301046,0.00086236372590065,0.000044108834117650986
1717858490844606000,3.80360595703125,0.0003468184731900692,-0.00004843715578317642,0.00010269833728671074
1717858490854646000,3.81364599609375,-0.0009860300924628973,0.0003318367525935173,-0.0002789236605167389
1717858490864686800,3.823686767578125,-0.001616666791960597,-0.00046817678958177567,0.0009269556030631065
1717858490874726700,3.8337265625,-0.00031988718546926975,-0.0001871734857559204,-0.0004076301120221615
1717858490884767700,3.843767822265625,0.0007416489534080029,0.0009097829461097717,-0.0009996509179472923
1717858490894809000,3.85380908203125,0.0002965989988297224,-0.00210497435182333,0.0005040415562689304
1717858490904849000,3.863848876953125,0.00043641519732773304,0.0009728409349918365,0.0013176375068724155
1717858490914889700,3.8738896484375,0.0009250291623175144,0.0000966433435678482,0.0005726576782763004
1717858490924929800,3.8839296875,0.0007242271676659584,-0.0002881838008761406,0.0004980890080332756
1717858490934971000,3.893970947265625,-0.00035206018947064877,0.00015010777860879898,0.0010954011231660843
1717858490945012000,3.904011962890625,-0.0005451394245028496,-0.0013540452346205711,-0.0003653429448604584
1717858490955051800,3.9140517578125,-0.0008636543061584234,-0.0008976086974143982,0.000005320645868778229
1717858490965092900,3.9240927734375,-0.000019165920093655586,-0.0008328938856720924,0.0010894937440752983
1717858490975133000,3.9341328125,-0.00022809277288615704,-0.0005486644804477692,0.001565449871122837
1717858490985174000,3.944174072265625,-0.00043715094216167927,-0.00023707468062639236,-0.00013098400086164474
1717858490995214800,3.95421484375,-0.0010904599912464619,0.0005772579461336136,-0.00012489687651395798
1717858491005255000,3.9642548828125,0.0002570992801338434,-0.0009543262422084808,-0.000690818764269352
1717858491015296000,3.9742958984375,0.0009656366892158985,-0.000010916031897068024,0.002063202438876033
1717858491025335800,3.984335693359375,-0.0002602161839604378,-0.0006037354469299316,-0.0006979629397392273
1717858491035377000,3.994376953125,0.0006967778317630291,-0.0012731272727251053,0.0014836443588137627
1717858491045417700,4.004417724609375,-0.0002616939600557089,-0.0013271896168589592,0.0010617999359965324
1717858491055457800,4.014457763671875,-0.00031081284396350384,0.000291505828499794,0.00008714944124221802
1717858491065499000,4.024498779296875,0.0008282212074846029,-0.000195319764316082,0.0007843649946153164
1717858491075539000,4.0345390625,0.001574838999658823,0.0006785430014133453,0.0008103405125439167
1717858491085579800,4.044579833984375,-0.00019163568504154682,-0.0007782066240906715,-0.00020032888278365135
1717858491095620900,4.054620849609375,0.00041387346573174,-0.0011244993656873703,0.0002074381336569786
1717858491105661000,4.064660888671875,0.00015980773605406284,-0.0009396756067872047,-0.000997109804302454
1717858491115702000,4.074701904296875,-0.000048811547458171844,-0.00026138219982385635,0.001924837939441204
1717858491125742000,4.0847421875,-0.00016678962856531143,0.00004674587398767471,-0.0004618866369128227
1717858491135783000,4.094782958984375,0.0013086472172290087,0.0002283230423927307,0.0004669330082833767
1717858491145824000,4.104823974609375,-0.0009004450403153896,-0.0004878006875514984,0.0006719962693750858
1717858491155864000,4.114864013671875,-0.0008669961243867874,0.0007962547242641449,-0.000006704125553369522
1717858491165905000,4.12490478515625,0.0009103976190090179,-0.0005851266905665398,-0.00023120827972888947
1717858491175944700,4.13494482421875,-0.0003172340802848339,-0.0012988029047846794,0.00048537226393818855
1717858491185985800,4.14498583984375,-0.0007710366044193506,-0.00010650511831045151,-0.00021210964769124985
1717858491196027000,4.15502685546875,-0.000371802132576704,-0.0013189315795898438,-0.0002953968942165375
1717858491206067000,4.16506689453125,-0.0015127004589885473,0.00035726185888051987,0.001155226957052946
1717858491216107800,4.175107666015625,-0.000741761177778244,0.0014819009229540825,0.00034616561606526375
1717858491226147800,4.18514794921875,-0.0003111280966550112,0.0011250367388129234,-0.0005928650498390198
1717858491236189000,4.19518896484375,-0.0009702935349196196,-0.000558784231543541,0.00083212461322546
1717858491246229800,4.205229736328125,-0.0009721575770527124,-0.0015862314030528069,0.00011307140812277794
1717858491256269800,4.215269775390625,0.001301916316151619,0.00046010129153728485,-0.0013969582505524158
1717858491266311000,4.225310791015625,0.001064362470060587,0.00018233433365821838,0.0005601984448730946
1717858491276351000,4.23535107421875,-0.0021505914628505707,0.0006540585309267044,0.0004838663153350353
1717858491286392000,4.24539208984375,-0.0008107551839202642,-0.000618932768702507,0.0002790689468383789
1717858491296433000,4.255432861328125,-0.0005336292088031769,0.0003890879452228546,0.0002656863071024418
1717858491306472700,4.26547265625,0.0005374944303184748,-0.0002942793071269989,-0.00031648064032197
1717858491316513800,4.275513671875,0.00039383629336953163,-0.0007596155628561974,0.00037993118166923523
1717858491326553900,4.285553955078125,0.00006653368473052979,-0.0003540161997079849,0.00021428242325782776
1717858491336595000,4.295594970703125,-0.00006604683585464954,-0.001029355451464653,-0.0019455114379525185
1717858491346635800,4.3056357421875,-0.0003795009106397629,-0.00041469745337963104,0.00007076840847730637
1717858491356675800,4.31567578125,0.0002740428317338228,0.0006711063906550407,-0.0006858096458017826
1717858491366717000,4.325717041015625,-0.0007707152981311083,0.0012311693280935287,0.00014243368059396744
1717858491376757000,4.335757080078125,0.00039216154254972935,0.00014227908104658127,-0.00004275329411029816
1717858491386797800,4.3457978515625,-0.0008786988910287619,0.0008203191682696342,0.0006283633410930634
1717858491396838000,4.355837890625,-0.00001531047746539116,0.0013488344848155975,0.002478751353919506
1717858491406879000,4.36587890625,0.00019348133355379105,0.0007813144475221634,0.0005812491290271282
1717858491416920000,4.375920166015625,0.00007902388460934162,0.00045955926179885864,0.0012155631557106972
1717858491426960000,4.3859599609375,0.001083568437024951,-0.0018920120783150196,-0.001118963584303856
1717858491437001000,4.3960009765625,0.00018532760441303253,-0.001979263499379158,0.00010355236008763313
1717858491447040800,4.406040771484375,0.0013299542479217052,0.00003648269921541214,0.0008095563389360905
1717858491457081900,4.416081787109375,0.00009589269757270813,-0.0003184322267770767,0.0012860051356256008
1717858491467122700,4.426122802734375,0.001534000039100647,-0.0018271133303642273,-0.0001387856900691986
1717858491477162800,4.436162841796875,-0.0012201496865600348,-0.0013148067519068718,-0.0012573669664561749
1717858491487203800,4.446203857421875,-0.00015222211368381977,0.0006258385255932808,0.00026356475427746773
1717858491497244000,4.456243896484375,0.00019563059322535992,-0.00013086944818496704,0.0010586106218397617
1717858491507285000,4.466284912109375,0.0002717969473451376,0.00037406571209430695,0.0008442262187600136
1717858491517325800,4.476325927734375,0.0002668106462806463,-0.0007101884111762047,-0.00039869919419288635
1717858491527366000,4.486365966796875,0.000026327325031161308,-0.0008366890251636505,-0.00025488855317234993
1717858491537407000,4.496406982421875,-0.0006405219901353121,0.000902269035577774,0.0006201132200658321
1717858491547447000,4.506447021484375,0.0005914564244449139,0.00005511753261089325,-0.0010078768245875835
1717858491557487900,4.51648779296875,-0.001362970331683755,-0.00035099685192108154,0.0002076183445751667
1717858491567529000,4.526529052734375,-0.00036694807931780815,-0.0013675251975655556,0.00037806062027812004
1717858491577569000,4.536569091796875,-0.0003146023955196142,0.00022842176258563995,0.0003182385116815567
1717858491587610000,4.546610107421875,-0.0007766608614474535,-0.0006914343684911728,0.00005884701386094093
1717858491597650000,4.55664990234375,-0.000641226302832365,0.001134553924202919,0.0005073430947959423
1717858491607690800,4.566690673828125,0.000665054190903902,0.0003603734076023102,-0.0010809660889208317
1717858491617731800,4.57673193359375,0.0003863645251840353,-0.00021811481565237045,0.00003005843609571457
1717858491627772000,4.58677197265625,0.0008252535481005907,-0.0002471432089805603,0.00032806629315018654
1717858491637812700,4.596812744140625,0.00044289836660027504,-0.0009995261207222939,0.0006040916778147221
1717858491647852800,4.606852783203125,-0.0004790881648659706,-0.0006149653345346451,-0.000020153354853391647
1717858491657894000,4.616893798828125,0.0009185825474560261,0.0008231960237026215,-0.0008249380625784397
1717858491667935000,4.62693505859375,0.0002639773301780224,-0.0010567298159003258,-0.0001354455016553402
1717858491677975000,4.63697509765625,-0.000022445805370807648,-0.000703444704413414,-0.001175041776150465
1717858491688016000,4.647015869140625,-0.0004959558136761189,0.0004885857924818993,-0.0006658453494310379
1717858491698056000,4.657055908203125,0.0005180318839848042,-0.0002951202914118767,0.00015970086678862572
1717858491708097000,4.667096923828125,0.001894087065011263,-0.00148821622133255,-0.0004605492576956749
1717858491718137900,4.677137939453125,0.001803983235731721,0.0006144260987639427,-0.0012847953476011753
1717858491728177700,4.687177734375,0.0001530896406620741,-0.0005440488457679749,0.0008795559406280518
1717858491738218800,4.69721875,0.0005645602941513062,0.000489257276058197,0.00040890276432037354
1717858491748258800,4.7072587890625,-0.0005190798547118902,0.0000562276691198349,0.0009987927041947842
1717858491758300000,4.7172998046875,-0.0002062162384390831,0.0007495591416954994,0.000023321714252233505
1717858491768340700,4.7273408203125,0.0004776834975928068,-0.0005647102370858192,-0.00018999725580215454
1717858491778380800,4.737380859375,0.0016071922145783901,-0.0006991615518927574,0.00046555977314710617
1717858491788422000,4.747421875,0.000802917405962944,0.0007916763424873352,0.0013574520125985146
1717858491798462000,4.7574619140625,0.00021755462512373924,0.00038250721991062164,0.0010978472419083118
1717858491808503000,4.7675029296875,0.00048759905621409416,-0.00040951650589704514,0.0006014336831867695
1717858491818543900,4.7775439453125,0.0008290309924632311,0.001065494492650032,0.00036421651020646095
1717858491828584000,4.787583984375,0.00027349567972123623,-0.00044238753616809845,-0.001274692825973034
1717858491838625000,4.797625,-0.0013912762515246868,-0.0011070705950260162,0.0008138059638440609
1717858491848665000,4.8076650390625,0.0011938540264964104,0.0004125293344259262,0.0015507028438150883
1717858491858706000,4.817705810546875,-0.0010978549253195524,0.00003296881914138794,0.0015809726901352406
1717858491868747000,4.8277470703125,-0.0014669690281152725,0.0007653385400772095,-0.00007950840517878532
1717858491878786800,4.837786865234375,0.0003677820786833763,-0.000494321808218956,0.00008322065696120262
1717858491888828000,4.847827880859375,-0.0010743197053670883,-0.00008925516158342361,0.0008307700045406818
1717858491898868000,4.857867919921875,0.0005509338807314634,-0.0011070352047681808,-0.000619400292634964
1717858491908908800,4.86790869140625,-0.00003629317507147789,-0.0012577706947922707,0.0003230925649404526
1717858491918950000,4.877949951171875,0.0006299263332039118,0.0001243138685822487,-0.0004907771944999695
1717858491928990000,4.887989990234375,0.0005825220141559839,-0.00047250092029571533,-0.0015714881010353565
1717858491939030800,4.89803076171875,-0.0008893846534192562,-0.000029752030968666077,0.00024126749485731125
1717858491949070800,4.90807080078125,0.0001324701588600874,-0.001333368942141533,0.0013158530928194523
1717858491959112000,4.91811181640625,0.00015088310465216637,-0.001369137316942215,0.0013198088854551315
1717858491969153000,4.928153076171875,0.0001269145868718624,-0.001351560465991497,-0.0001965947449207306
1717858491979193000,4.938193115234375,-0.0007845889776945114,-0.0012494157999753952,-0.0005919197574257851
1717858491989234000,4.94823388671875,-0.00008417759090662003,-0.0006179800257086754,0.00031222356483340263
1717858491999273700,4.958273681640625,0.0005577262490987778,0.00012815464287996292,0.00027074897661805153
1717858492009314800,4.968314697265625,-0.0004545410629361868,-0.0011965017765760422,-0.0010706852190196514
1717858492019355600,4.978355712890625,0.0009205774404108524,-0.0004714047536253929,0.0013590999878942966
1717858492029395700,4.988395751953125,-0.0004094052128493786,-0.00033851247280836105,0.000750567764043808
1717858492039436800,4.998436767578125,0.0006407410837709904,-0.00007750000804662704,-0.0005875290371477604
1717858492049476900,5.008476806640625,0.00018534064292907715,0.0003600567579269409,-0.000982475932687521
1717858492059518000,5.01851806640625,-0.00029131886549293995,-0.0001815585419535637,-0.0005147778429090977
1717858492069558800,5.028558837890625,-0.0011515198275446892,0.0011790506541728973,-0.0010540680959820747
1717858492079598800,5.038598876953125,0.00010297331027686596,-0.00010915286839008331,0.0008004335686564445
1717858492089640000,5.048639892578125,0.00015170895494520664,0.00009085051715373993,0.00014502974227070808
1717858492099680000,5.058679931640625,0.0010034749284386635,0.000630425289273262,0.00014878949150443077
1717858492109720800,5.068720947265625,0.0002860194072127342,-0.000718199647963047,0.00029606232419610023
1717858492119762000,5.078761962890625,0.001669247169047594,0.00009004771709442139,0.0011199493892490864
1717858492129802000,5.088802001953125,-0.0011848628055304289,-0.00121303740888834,-0.0013045924715697765
1717858492139843000,5.098843017578125,-0.0013034360017627478,-0.0002300972118973732,-0.0017195832915604115
1717858492149883000,5.1088828125,-0.0010546967387199402,0.00022796634584665298,0.001613362692296505
1717858492159923700,5.118923828125,-0.0007735243998467922,0.001106303185224533,0.0009621880017220974
1717858492169964800,5.12896484375,-0.0013815239071846008,0.0009795362129807472,-0.00015021441504359245
1717858492180004900,5.1390048828125,0.00045145931653678417,0.000726792961359024,0.00016696471720933914
1717858492190046000,5.1490458984375,-0.000038828467950224876,-0.0006010597571730614,0.00021010776981711388
1717858492200085800,5.159085693359375,0.0008025749120861292,-0.0002207467332482338,0.000559510663151741
1717858492210126800,5.169126953125,-0.0004054349847137928,-0.0011145034804940224,0.0005206288769841194
1717858492220168000,5.17916796875,0.0015840490814298391,-0.00008453335613012314,-0.00174345588311553
1717858492230208000,5.1892080078125,-0.0006940190214663744,-0.0009599141776561737,0.001711196731775999
1717858492240248800,5.199248779296875,0.0004281499423086643,-0.0007475912570953369,-0.00031574955210089684
1717858492250289000,5.209288818359375,-0.0011327285319566727,-0.0004583718255162239,-0.00042813457548618317
1717858492260330000,5.219330078125,0.000511696795001626,0.00042380858212709427,-0.00024294527247548103
1717858492270370000,5.2293701171875,-0.000970086082816124,0.0006451178342103958,-0.0006232447922229767
1717858492280411000,5.239410888671875,0.0011754436418414116,-0.00013194698840379715,0.000652762595564127
1717858492290452000,5.249451904296875,0.000755995512008667,-0.00033754296600818634,0.0012586317025125027
1717858492300491800,5.25949169921875,6.435438990592957e-7,-0.0004327744245529175,0.0003771446645259857
1717858492310532900,5.269532958984375,-0.0013796729035675526,-0.0013244007714092731,0.0004937914200127125
1717858492320573000,5.279572998046875,-0.00036448216997087,-0.0005438132211565971,-0.000014364253729581833
1717858492330613800,5.28961376953125,-0.0009067018982023001,-0.000042873434722423553,0.0002924315631389618
1717858492340654800,5.29965478515625,-0.0004973416216671467,-0.0003212392330169678,0.0010403129272162914
1717858492350695000,5.30969482421875,0.000037421006709337234,0.0003088647499680519,0.0021567102521657944
1717858492360736000,5.319736083984375,0.00011495337821543217,-0.000250229611992836,0.0004873918369412422
1717858492370776000,5.329776123046875,0.0007383993361145258,0.0019977446645498276,0.004031792748719454
1717858492380817000,5.33981689453125,0.0008057951927185059,-0.000994594767689705,-0.0006968188099563122
1717858492390858000,5.34985791015625,0.0011003408581018448,-0.000989002175629139,-0.0019418466836214066
1717858492400898000,5.35989794921875,0.0009899591095745564,-0.00016101542860269547,0.00028894422575831413
1717858492410939000,5.36993896484375,0.0014855731278657913,0.00031063053756952286,-0.0006548799574375153
1717858492420978700,5.379978759765625,-0.0003783262800425291,0.0006663668900728226,0.0010311002843081951
1717858492431019800,5.390019775390625,-0.0015011148061603308,-0.0010228762403130531,0.0017102067358791828
1717858492441060900,5.400060791015625,0.0002980995923280716,-0.0007330458611249924,-0.0008800667710602283
1717858492451101000,5.410100830078125,0.0011162227019667625,-0.00006698910146951675,0.00013726064935326576
1717858492461141800,5.420141845703125,0.0015928621869534254,-0.0007763570174574852,-0.00013450533151626587
1717858492471182800,5.430182861328125,-0.00041010137647390366,0.0011387215927243233,0.001482299529016018
1717858492481223000,5.440222900390625,0.0002055419608950615,-0.00047045107930898666,0.00005119945853948593
1717858492491263700,5.450263671875,0.00016772514209151268,-0.00023183133453130722,-0.0005349619314074516
1717858492501303800,5.4603037109375,0.00037634302861988544,-0.00011762697249650955,-0.0002300487831234932
1717858492511345000,5.470344970703125,-0.0009800046682357788,0.0013766726478934288,-0.000773333478718996
1717858492521386000,5.480385986328125,-0.00046749203465878963,0.00005660299211740494,0.001627946738153696
1717858492531426000,5.490426025390625,0.0007053643930703402,-0.0013253111392259598,-0.0022136634215712547
1717858492541467000,5.500466796875,-0.0005147166084498167,-0.0007751965895295143,-0.002048666588962078
1717858492551507000,5.5105068359375,-0.0006846264004707336,0.00040351878851652145,0.00013272836804389954
1717858492561548000,5.520548095703125,0.00121104228310287,0.001064954325556755,0.0001364019699394703
1717858492571589000,5.530589111328125,-0.0008736802265048027,0.0010447148233652115,-0.00028038257732987404
1717858492581628700,5.540628662109375,0.00006391364149749279,-0.00041505414992570877,-0.0016713226214051247
1717858492591669800,5.550669677734375,-0.00018269498832523823,-0.001242498867213726,-0.0015094024129211903
1717858492601709800,5.560709716796875,0.000052680959925055504,0.0007753977552056313,0.0011492446064949036
1717858492611751000,5.5707509765625,-0.000033339252695441246,0.00002971198409795761,0.0006437762640416622
1717858492621791700,5.580791748046875,-0.0007957452908158302,-0.00021401792764663696,-0.0003140456974506378
1717858492631831800,5.590831787109375,-0.0008079959079623222,-0.0010768827050924301,-0.000775305088609457
1717858492641873000,5.600872802734375,-0.00015879585407674313,-0.00013269111514091492,-0.0011232015676796436
1717858492651913000,5.610912841796875,-0.0015207366086542606,0.0021262019872665405,0.0006075864657759666
1717858492661954000,5.6209541015625,0.0008094785735011101,0.0001745261251926422,0.000710583757609129
1717858492671995000,5.630994873046875,-0.0004973344039171934,0.0005889134481549263,-0.00022897915914654732
1717858492682035000,5.641034912109375,-0.00004422268830239773,0.0003769267350435257,-0.0008664769120514393
1717858492692076000,5.651075927734375,-0.000010933028534054756,-0.0013024630025029182,-0.0004595457576215267
1717858492702115800,5.66111572265625,-0.000149816507473588,0.0006931740790605545,0.0003769462928175926
1717858492712156700,5.67115673828125,0.000248858705163002,0.0008630836382508278,-0.0005927104502916336
1717858492722197800,5.68119775390625,0.00020563742145895958,0.0009738532826304436,-0.0013195103965699673
1717858492732237800,5.69123779296875,0.0007875384762883186,-0.001189432106912136,-0.0007703667506575584
1717858492742279000,5.70127880859375,-0.000493932981044054,0.0011682845652103424,-0.00015805987641215324
1717858492752319000,5.711319091796875,-0.00013706949539482594,0.0005134129896759987,-0.00030772946774959564
1717858492762359800,5.72135986328125,-0.0003471465315669775,0.0009089438244700432,0.0012951740063726902
1717858492772401000,5.73140087890625,0.0003133174031972885,0.0004428904503583908,-0.0007988694123923779
1717858492782441000,5.74144091796875,0.0008887331932783127,-0.0005016271024942398,-0.0003742189146578312
1717858492792481800,5.751481689453125,-0.0009365971200168133,0.00034925341606140137,-0.0009822184219956398
1717858492802521900,5.76152197265625,-0.001249037217348814,0.001171962358057499,0.0010246983729302883
1717858492812563000,5.77156298828125,0.0005485964938998222,-0.0011883974075317383,0.00014452356845140457
1717858492822604000,5.78160400390625,0.0004431155975908041,0.00008559785783290863,-0.00016375072300434113
1717858492832644000,5.79164404296875,-0.00043865712359547615,-0.000033445656299591064,-0.0005547031760215759
1717858492842685000,5.801684814453125,0.0004276337567716837,-0.0011332761496305466,0.0007721618749201298
1717858492852724700,5.811724853515625,0.0004899518098682165,-0.0008126311004161835,0.0007386058568954468
1717858492862765800,5.821765869140625,-0.0008068438619375229,0.00042095500975847244,0.0003552557900547981
1717858492872806100,5.83180615234375,-0.0004318708088248968,0.0008055157959461212,-0.00017178384587168694
1717858492882846200,5.84184619140625,-0.0005219795275479555,0.00016162265092134476,-0.0007202266715466976
1717858492892887000,5.851886962890625,-0.00021411827765405178,-0.0012530488893389702,-0.0002464503049850464
1717858492902927000,5.861927001953125,0.0006307791918516159,0.0016709789633750916,0.0007571256719529629
1717858492912968200,5.87196826171875,0.000044351210817694664,0.0002693571150302887,-0.001435188576579094
1717858492923009300,5.88200927734375,0.0005280054174363613,0.0010006027296185493,0.00014819111675024033
1717858492933049000,5.892049072265625,-0.0006975813303142786,0.0006056558340787888,-0.00016073556616902351
1717858492943090200,5.902090087890625,0.00037285988219082355,-0.0007434152066707611,0.00022363848984241486
1717858492953130000,5.9121298828125,0.00015075202099978924,-0.0002667093649506569,-0.00036998046562075615
1717858492963171000,5.922171142578125,-0.00016337307170033455,0.00008700601756572723,-0.001197686418890953
1717858492973212000,5.9322119140625,-0.000021426472812891006,-0.0012352541089057922,-0.0007404214702546597
1717858492983252000,5.942251953125,-0.00014616013504564762,0.00045760348439216614,-0.00021347729489207268
1717858492993293000,5.95229296875,0.00029752240516245365,0.0009742574766278267,-0.00038205552846193314
1717858493003333000,5.9623330078125,0.0004196001682430506,-0.0006944416090846062,0.0005329251289367676
1717858493013374200,5.972374267578125,0.0008265313226729631,-0.0003279903903603554,-0.0012726979330182076
1717858493023415000,5.9824150390625,0.00045648845843970776,-0.0004212940111756325,-0.0007871873676776886
1717858493033455000,5.992455078125,-0.0020508775487542152,0.0005060192197561264,0.00025304360315203667
1717858493043496200,6.00249609375,-0.0008261555340141058,0.000494692474603653,0.00014583440497517586
1717858493053536300,6.012536376953125,0.00015814905054867268,-0.00012316089123487473,0.0010260092094540596
1717858493063577000,6.0225771484375,-0.00004505086690187454,-0.0014724028296768665,0.0002511218190193176
1717858493073618200,6.0326181640625,0.0009733422193676233,0.0003686407580971718,0.0007209032773971558
1717858493083658000,6.042657958984375,-0.0004187552258372307,-0.0008215587586164474,-0.0005355780012905598
1717858493093699300,6.05269921875,-0.0008632366079837084,-0.0006125010550022125,0.0006316858343780041
1717858493103739100,6.0627392578125,-0.0005126395262777805,-0.0006619347259402275,0.00004301685839891434
1717858493113780000,6.072780029296875,0.00020641391165554523,-0.00015806499868631363,-0.0011450191959738731
1717858493123821000,6.082821044921875,0.00048056640662252903,-0.0001278342679142952,-0.00007539801299571991
1717858493133861000,6.092861083984375,-0.0000680447556078434,0.00056458730250597,0.00007480382919311523
1717858493143902000,6.10290185546875,-0.0016040285117924213,-0.0002965237945318222,0.0006352448835968971
1717858493153942000,6.11294189453125,-0.0005624662153422832,0.0003146715462207794,-0.0005269586108624935
1717858493163983000,6.122983154296875,0.0004845336079597473,0.000030251219868659973,0.0005833120085299015
1717858493174024200,6.133024169921875,-0.00019164313562214375,-0.00028773024678230286,0.0011391136795282364
1717858493184064300,6.143064208984375,0.0007946877740323544,0.0007398957386612892,-0.0006315037608146667
1717858493194105000,6.15310498046875,-0.00044341571629047394,-0.000005256384611129761,-0.0007273773662745953
1717858493204145200,6.163145263671875,0.0007163942791521549,-0.000585935078561306,-0.0007144231349229813
1717858493214186200,6.173186279296875,-0.0009211834985762835,0.00032380037009716034,-0.000788459088653326
1717858493224227000,6.18322705078125,-0.0007334498222917318,0.0008940836414694786,-0.0012764004059135914
1717858493234267000,6.193266845703125,-0.000710546737536788,-0.00025214068591594696,-0.0000974191352725029
1717858493244308000,6.203307861328125,-0.0004160210955888033,-0.001482672058045864,-0.000311817042529583
1717858493254348000,6.21334814453125,0.0004881222266703844,0.0004814090207219124,0.0002823341637849808
1717858493264389000,6.22338916015625,-0.00029848283156752586,-0.00026910100132226944,-0.0008872170001268387
1717858493274430000,6.233429931640625,0.000022960593923926353,-0.0009452775120735168,-0.0004392736591398716
1717858493284470000,6.243469970703125,-0.0003576830495148897,0.0009285975247621536,-0.0005132509395480156
1717858493294511000,6.253510986328125,0.00041063898243010044,0.000841245986521244,0.00024468498304486275
1717858493304551200,6.26355126953125,0.001778491074219346,-0.0007749050855636597,-0.0006212941370904446
1717858493314592000,6.273592041015625,-0.00011182064190506935,0.0007356405258178711,0.00006020907312631607
1717858493324633000,6.283633056640625,-0.0008941108826547861,-0.00003752298653125763,-0.0003459574654698372
1717858493334673200,6.293673095703125,-0.0001180658582597971,0.0021609170362353325,0.0018484871834516525
1717858493344714200,6.30371435546875,0.0019487885292619467,0.0025337832048535347,0.00028971070423722267
1717858493354754300,6.31375439453125,-0.00013167294673621655,-0.0003477577120065689,-0.00015956442803144455
1717858493364795100,6.323795166015625,-0.00025867903605103493,-0.00042902398854494095,-0.000764062162488699
1717858493374836200,6.333836181640625,0.00033653760328888893,-0.001468189526349306,-0.0014594136737287045
1717858493384876000,6.3438759765625,-0.0011266223154962063,0.0006217928603291512,0.0011951676569879055
1717858493394917000,6.353917236328125,0.00008058873936533928,0.0012556249275803566,0.0005187243223190308
1717858493404957200,6.363957275390625,0.00032536336220800877,-0.0011269226670265198,0.00006143283098936081
1717858493414998000,6.373998046875,-0.00008263299241662025,-0.0004651276394724846,-0.001370549201965332
1717858493425039000,6.3840390625,-0.000015551690012216568,0.00004799012094736099,-0.0011562560684978962
1717858493435079200,6.3940791015625,0.0007820648606866598,0.0007201721891760826,-0.00025051506236195564
1717858493445120000,6.4041201171875,-0.00022494513541460037,0.0003302609547972679,0.00045826053246855736
1717858493455160000,6.41416015625,0.0013902620412409306,-0.0007049096748232841,-0.0006349668838083744
1717858493465201200,6.424201171875,0.00042216992005705833,-0.000963251106441021,-0.0009345179423689842
1717858493475242200,6.4342421875,0.0005555939860641956,-0.0003342125564813614,0.00005431380122900009
1717858493485282300,6.4442822265625,-0.0005092613864690065,0.0010493109002709389,0.0007042782381176949
1717858493495323100,6.4543232421875,-0.002171606756746769,0.0003752652555704117,-0.00004886370152235031
1717858493505363000,6.464363037109375,0.0007004565559327602,-0.0003079315647482872,0.0008880523964762688
1717858493515404000,6.474404052734375,0.0006296164356172085,-0.00008156243711709976,-0.00011888891458511353
1717858493525444900,6.48444482421875,0.002136897761374712,-0.0002706451341509819,-0.0006230399012565613
1717858493535485000,6.49448486328125,-0.000015202676877379417,0.0020234016701579094,0.0013437047600746155
1717858493545526000,6.504526123046875,0.0011233906261622906,0.0006724679842591286,0.0007229219190776348
1717858493555566000,6.514566162109375,0.000999819952994585,0.0006791260093450546,0.0005998839624226093
1717858493565607200,6.524607177734375,-0.0011459181550890207,-0.002153547015041113,-0.0014271740801632404
1717858493575648000,6.53464794921875,-0.0004436424933373928,0.0005980310961604118,-0.00009878957644104958
1717858493585688000,6.54468798828125,-0.0007522059604525566,0.00026728957891464233,-0.00044954707846045494
1717858493595729200,6.554729248046875,-0.0006038679275661707,0.001476098783314228,-0.0011398382484912872
1717858493605770000,6.56477001953125,-0.0006570180412381887,-0.001566101796925068,-0.00015319883823394775
1717858493615810000,6.57481005859375,0.0010356870479881763,-0.0002893824130296707,-0.0005225790664553642
1717858493625851100,6.58485107421875,0.000719255767762661,0.001226973719894886,0.00005368003621697426
1717858493635891200,6.59489111328125,0.00174989877268672,-0.0006865067407488823,0.0009785955771803856
1717858493645932300,6.604932373046875,0.000713986111804843,-0.00020815059542655945,-0.00006847409531474113
1717858493655973000,6.61497314453125,0.0005906817968934774,0.0009077135473489761,0.0007195551879703999
1717858493666013000,6.625012939453125,0.0005511560011655092,-0.0002391347661614418,-0.00009443098679184914
1717858493676054000,6.635053955078125,0.0005199967417865992,0.0005092136561870575,-0.0006952402181923389
1717858493686094000,6.645093994140625,-0.0000702226534485817,0.001141417771577835,-0.000008504372090101242
1717858493696135200,6.65513525390625,0.0018943911418318748,0.0000774851068854332,0.00014942092821002007
1717858493706176000,6.665176025390625,0.000060258898884058,0.00043208058923482895,-0.0004864349029958248
1717858493716216000,6.675216064453125,-0.00047450396232306957,-0.000662744976580143,-0.0005309097468852997
1717858493726257200,6.685257080078125,0.0021735571790486574,0.002043331041932106,-0.00014169607311487198
1717858493736297200,6.695297119140625,-0.0005785534158349037,-0.0006888052448630333,-0.0003656679764389992
1717858493746338000,6.705338134765625,-0.00037795514799654484,-0.000894550234079361,0.0018337122164666653
1717858493756379100,6.715379150390625,0.000357077457010746,0.001012539491057396,0.0005271653644740582
1717858493766419200,6.725419189453125,0.0006355121731758118,0.0008707242086529732,0.00009783124551177025
1717858493776460300,6.735460205078125,0.0005846456624567509,0.0004472816362977028,-0.00019271951168775558
1717858493786500000,6.7455,0.00023874454200267792,-0.0015316265635192394,0.0006231190636754036
1717858493796541200,6.755541259765625,-0.0017650178633630276,-0.0014245673082768917,-0.000013909302651882172
1717858493806582300,6.765582275390625,0.0012327318545430899,0.00033910851925611496,0.0005199932493269444
1717858493816622000,6.7756220703125,-0.0020163245499134064,0.0010842615738511086,0.0009026895277202129
1717858493826663000,6.785662841796875,-0.0002990500070154667,0.0004045562818646431,-0.0009293402545154095
1717858493836703000,6.795702880859375,-0.00043700169771909714,-0.0015938794240355492,0.000015283003449440002
1717858493846744000,6.805744140625,-0.0006796508096158504,0.00025084707885980606,-0.00030360929667949677
1717858493856785200,6.81578515625,0.0010008038952946663,0.00016802269965410233,0.0005422104150056839
1717858493866825200,6.8258251953125,0.0014510704204440117,-0.00032361410558223724,0.0009874035604298115
1717858493876868000,6.8358681640625,0.001101131085306406,-0.00045091286301612854,-0.0006823986768722534
1717858493886908200,6.845908203125,-0.0003017894923686981,-0.0006287982687354088,-0.0018980535678565502
1717858493896949000,6.855948974609375,-0.0001382713671773672,-0.0013057743199169636,-0.0003667357377707958
1717858493906990000,6.865989990234375,0.00029797968454658985,0.0005985293537378311,0.00010315515100955963
1717858493917030100,6.876030029296875,-0.0019369452493265271,0.00037082936614751816,-0.000019616447389125824
1717858493927071000,6.886071044921875,0.000017522135749459267,-0.0014407034032046795,-0.0010887281969189644
1717858493937110800,6.89611083984375,0.00018610036931931973,0.0012951623648405075,-0.00028179073706269264
1717858493947152000,6.90615185546875,-0.00028944876976311207,0.0015523144975304604,0.00009264517575502396
1717858493957193000,6.91619287109375,0.00032014865428209305,0.0011011753231287003,0.0005533723160624504
1717858493967233000,6.92623291015625,0.0009672385640442371,0.0018413597717881203,-0.00044970400631427765
1717858493977273900,6.93627392578125,0.00024312501773238182,-0.0012425808236002922,0.00005869334563612938
1717858493987314000,6.94631396484375,-0.00021706591360270977,-0.0006247824057936668,0.0002133576199412346
1717858493997355000,6.95635498046875,-0.0004234607331454754,-0.000276440754532814,0.0007065748795866966
1717858494007396000,6.96639599609375,-0.0009213821031153202,-0.0003472212702035904,0.00089639937505126
1717858494017436000,6.976435791015625,-0.001102477079257369,-0.00009821541607379913,-0.0006546257063746452
1717858494027477000,6.98647705078125,0.0012540558818727732,-0.0007173493504524231,-0.0004649898037314415
1717858494037517000,6.99651708984375,0.0014170410577207804,0.00032474566251039505,0.00035739410668611526
1717858494047558100,7.00655810546875,-0.0009584256913512945,-0.0007750159129500389,-0.0005407072603702545
1717858494057599000,7.016598876953125,0.00002614501863718033,0.0010676253587007523,-0.00013670604676008224
1717858494067639000,7.02663916015625,0.0016809836961328983,-0.00026410818099975586,-0.0012226402759552002
1717858494077680000,7.03668017578125,0.0003699096851050854,0.0005585420876741409,0.001086586620658636
1717858494087720000,7.046719970703125,-0.0012509049847722054,0.0008531827479600906,-0.00025763269513845444
1717858494097761000,7.056760986328125,0.00012275343760848045,0.00021668709814548492,-0.0005748150870203972
1717858494107801900,7.0668017578125,-0.001608539605513215,0.00048301462084054947,-0.00020821578800678253
1717858494117842000,7.076842041015625,-0.0011507421731948853,0.0007780930027365685,0.00006262771785259247
1717858494127883000,7.086883056640625,0.0017660283483564854,-0.0016709398478269577,0.00008057476952672005
1717858494137923000,7.096923095703125,0.0007042256183922291,-0.0006568077951669693,-0.00016763200983405113
1717858494147964000,7.1069638671875,0.00030097179114818573,0.0006316406652331352,-0.0004420047625899315
1717858494158005000,7.1170048828125,0.0028038108721375465,-0.0016083442606031895,-0.0002936669625341892
1717858494168045000,7.127045166015625,-0.0003340919502079487,-0.000014356337487697601,-0.00005648145452141762
1717858494178086100,7.137086181640625,0.00007203989662230015,0.000011476688086986542,-0.0008466411381959915
1717858494188126200,7.147126220703125,0.0015099183656275272,0.00017634965479373932,0.00059561338275671
1717858494198167000,7.1571669921875,-0.0001684059388935566,0.0013217749074101448,0.002357560908421874
1717858494208208100,7.1672080078125,0.0003889210056513548,-0.000911293551325798,-0.000021470710635185242
1717858494218248200,7.177248291015625,-0.0011722242925316095,-0.00031767506152391434,-0.00044491328299045563
1717858494228289000,7.1872890625,0.0008595308754593134,-0.00006026960909366608,0.0007633473724126816
1717858494238328800,7.197328857421875,0.001471258932724595,0.001497413031756878,-0.0007895417511463165
1717858494248370000,7.207369873046875,-0.0005962718278169632,-0.0006361929699778557,-0.001506756991147995
1717858494258411000,7.217410888671875,-0.00011290819384157658,0.0003806017339229584,0.0021942376624792814
1717858494268451000,7.227451171875,0.0007356342393904924,0.0002463171258568764,-0.0007130005396902561
1717858494278492000,7.237491943359375,0.00013083009980618954,-0.0007885871455073357,-0.0000469437800347805
1717858494288532000,7.247531982421875,0.00029273098334670067,-0.0006769653409719467,0.0010646488517522812
1717858494298573000,7.257572998046875,0.0008346843533217907,0.000028240494430065155,-0.0014011720195412636
1717858494308614000,7.26761376953125,-0.000023252097889780998,0.001294589601457119,0.0009785019792616367
1717858494318654000,7.277654052734375,-0.000028844689950346947,-0.000006897374987602234,0.0016011493280529976
1717858494328695000,7.287695068359375,-0.0004363376647233963,0.0016342820599675179,0.000340502243489027
1717858494338736000,7.297736083984375,-0.0010813551489263773,-0.0007644277065992355,-0.0003074449487030506
1717858494348776200,7.307776123046875,-0.0006478589493781328,-0.0012610163539648056,-0.0013291765935719013
1717858494358817000,7.317817138671875,0.0011465789284557104,0.0014575384557247162,0.0005448898300528526
1717858494368856800,7.32785693359375,-0.0010420454200357199,0.00076304841786623,0.0017944150604307652
1717858494378898000,7.33789794921875,0.001346010947600007,0.00073268823325634,0.0006569791585206985
1717858494388939000,7.34793896484375,-0.00009610760025680065,-0.0008942252025008202,0.00018643541261553764
1717858494398979000,7.35797900390625,-0.0005368608981370926,-0.0006390940397977829,-0.0004199664108455181
1717858494409020000,7.36802001953125,-0.0004199070390313864,0.0010348102077841759,0.00044343434274196625
1717858494419060000,7.37806005859375,-0.000945881474763155,0.0010742247104644775,0.00016753096133470535
1717858494429101000,7.38810107421875,-0.0006865737959742546,0.0006912518292665482,0.0014476762153208256
1717858494439142000,7.398141845703125,0.00031104637309908867,-0.00011169165372848511,0.00003060838207602501
1717858494449182000,7.408181884765625,-0.0006279915105551481,-0.00013807415962219238,0.00005311379209160805
1717858494459223000,7.41822314453125,0.0005917365197092295,0.0005841758102178574,-0.00184572022408247
1717858494469263000,7.42826318359375,0.0013866536319255829,0.0010698754340410233,0.0004809820093214512
1717858494479304200,7.43830419921875,0.0008122101426124573,0.0014142217114567757,-0.0003760228864848614
1717858494489345000,7.448344970703125,0.0018409430049359798,-0.0005461042746901512,0.000022610649466514587
1717858494499385000,7.458385009765625,0.0005389233119785786,0.0005351398140192032,0.0013752300292253494
1717858494509426200,7.46842626953125,-0.001351784449070692,0.0009358646348118782,-0.000008007045835256577
1717858494519466000,7.478466064453125,0.0002698143944144249,0.0017433352768421173,0.0012628533877432346
1717858494529506800,7.4885068359375,0.0013334774412214756,-0.0007032686844468117,0.0008210353553295135
1717858494539548000,7.4985478515625,0.00038778921589255333,0.000029100105166435242,-0.0007654097862541676
1717858494549588000,7.508587890625,-0.0009955638088285923,-0.0005066245794296265,0.0006383615545928478
1717858494559629000,7.518629150390625,0.002345904242247343,0.00026755593717098236,0.0005004098638892174
1717858494569669000,7.528669189453125,0.00014403020031750202,0.00026213936507701874,0.0015689213760197163
1717858494579710000,7.5387099609375,0.0006420409772545099,-0.0008132457733154297,0.0009579919278621674
1717858494589751000,7.5487509765625,-0.0003864085301756859,-0.0001782253384590149,0.00045741116628050804
1717858494599791000,7.558791015625,-0.00040505058132112026,0.0008628042414784431,-0.00019959080964326859
1717858494609832000,7.56883203125,0.0007928428240120411,-0.0006220834329724312,0.002866010181605816
1717858494619872000,7.5788720703125,-0.0011315573938190937,-0.0003869263455271721,-0.0007257950492203236
1717858494629913000,7.5889130859375,0.0004100422374904156,0.000827491283416748,0.0003353627398610115
1717858494639954200,7.5989541015625,0.0020787790417671204,-0.0007472364231944084,0.0006139292381703854
1717858494649994000,7.608993896484375,0.0004764995537698269,0.0011594844982028008,0.0000016903504729270935
1717858494660035000,7.61903515625,0.0002874149940907955,0.0013086218386888504,0.0005974392406642437
1717858494670075000,7.629074951171875,-0.0011924291029572487,-0.0009484933689236641,0.0009863856248557568
1717858494680116000,7.639115966796875,-0.0018486317712813616,-0.0006843078881502151,0.00006892671808600426
1717858494690157000,7.649156982421875,-0.0013229378964751959,-0.000545610673725605,-0.0010170098394155502
1717858494700196900,7.65919677734375,-0.0008715321309864521,-0.00027636531740427017,-0.000009269919246435165
1717858494710238000,7.669238037109375,0.0007282914593815804,0.0006567267701029778,-0.000014872755855321884
1717858494720278000,7.679278076171875,-0.00026054028421640396,0.0005475375801324844,0.00039072660729289055
1717858494730319000,7.689319091796875,-0.0009214205201715231,-0.00006993580609560013,-0.0003316435031592846
1717858494740360000,7.69935986328125,0.0003904527984559536,-0.0005240049213171005,0.000561846885830164
1717858494750400000,7.70939990234375,0.00002376968041062355,-0.0006157504394650459,0.0013189534656703472
1717858494760441000,7.719441162109375,0.0012413666117936373,0.000816764310002327,0.0001519564539194107
1717858494770482200,7.729482177734375,-0.00008774991147220135,0.0007430016994476318,0.0008012549951672554
1717858494780522000,7.73952197265625,-0.0008470171596854925,-0.000017863698303699493,0.00023559993132948875
1717858494790563000,7.74956298828125,0.0008447531145066023,-0.0002443315461277962,-0.0008426709100604057
1717858494800603000,7.759602783203125,0.0006636583711951971,0.00016526225954294205,0.0004540220834314823
1717858494810644000,7.76964404296875,-0.0003388298209756613,0.0004233820363879204,-0.000345530454069376
1717858494820684800,7.779684814453125,0.0009317644871771336,-0.0007284348830580711,-0.0007114489562809467
1717858494830724900,7.789724853515625,0.0006197362672537565,-0.0005507739260792732,-0.0006407061591744423
1717858494840766000,7.799765869140625,0.0003456969279795885,0.00024391338229179382,-0.0002489550970494747
1717858494850806000,7.809805908203125,-0.0005986297037452459,-0.0007584048435091972,0.0006388607434928417
1717858494860847000,7.81984716796875,-0.00029396405443549156,-0.0008002165704965591,0.0002558981068432331
1717858494870888000,7.829887939453125,-0.0010316579136997461,0.0005446728318929672,0.0008382685482501984
1717858494880927000,7.839927001953125,0.001586229307577014,-0.0004303101450204849,-0.00025655701756477356
1717858494890968000,7.849968017578125,-0.0007325881160795689,0.0005057035014033318,0.0006480421870946884
1717858494901008100,7.860008056640625,0.0001382653135806322,0.0014074500650167465,0.0012065069749951363
1717858494911049200,7.87004931640625,-0.0008765324018895626,-0.00021933671087026596,-0.00019165175035595894
1717858494921090000,7.880090087890625,-0.00017212633974850178,0.0003231484442949295,0.00195405725389719
1717858494931129900,7.8901298828125,-0.0012751752510666847,0.0005012340843677521,-0.0002252832055091858
1717858494941171000,7.9001708984375,-0.00020085624419152737,-0.0005914606153964996,0.0005909758619964123
1717858494951211000,7.9102109375,-0.001530644716694951,0.000563344918191433,0.001719463150948286
1717858494961252000,7.920252197265625,-0.0003215696197003126,-0.0007559843361377716,0.0004094541072845459
1717858494971293000,7.93029296875,0.0011200080625712872,0.0011721914634108543,-0.001401066780090332
1717858494981333000,7.9403330078125,0.00029416149482131004,-0.000087750144302845,0.0008005686104297638
1717858494991374000,7.9503740234375,0.000566133065149188,0.0005972124636173248,-0.00034840963780879974
1717858495001414100,7.9604140625,0.0008937020320445299,0.0005029365420341492,0.0003211093135178089
1717858495011455000,7.970455078125,0.0001973200123757124,-0.00007749628275632858,-0.00030464213341474533
1717858495021496000,7.98049609375,0.00028120982460677624,-0.00011770986020565033,0.00041521061211824417
1717858495031536000,7.9905361328125,-0.0005296433810144663,-0.001078854314982891,-0.0003380156122148037
1717858495041577200,8.0005771484375,0.0013548093847930431,0.000781630165874958,0.0012393747456371784
1717858495051617000,8.010616943359375,-0.000604171073064208,0.00012826919555664062,-0.001262265257537365
1717858495061657900,8.020657958984375,-0.00017433683387935162,0.00020496826618909836,0.0005020787939429283
1717858495071699000,8.030698974609376,0.00032425601966679096,0.00045246537774801254,-0.0008744997903704643
1717858495081739000,8.040739013671875,0.00008483766578137875,0.00021651014685630798,-0.00007635029032826424
1717858495091779800,8.05077978515625,0.0002328616101294756,-0.00008277315646409988,-0.00014458317309617996
1717858495101820000,8.06081982421875,0.0007785435300320387,0.00013347622007131577,-0.00032141711562871933
1717858495111861000,8.070861083984376,-0.00009699887596070766,0.00045306049287319183,-0.0018929257057607174
1717858495121902000,8.080902099609375,-0.0006296311039477587,0.00012708920985460281,-0.00003803428262472153
1717858495131942100,8.090942138671876,0.0012820549309253693,-0.0004805373027920723,0.0005004885606467724
1717858495141983000,8.10098291015625,0.00008549634367227554,-0.00046056415885686874,-0.00009872298687696457
1717858495152023000,8.11102294921875,-0.00046017859131097794,-0.00024658162146806717,0.0015372824855148792
1717858495162064100,8.121064208984375,-0.0014330311678349972,-0.00020050909370183945,-0.0009583658538758755
1717858495172105000,8.13110498046875,0.00016178633086383343,-0.0009096600115299225,-0.0008651311509311199
1717858495182145000,8.14114501953125,-0.000606002751737833,0.0009036855772137642,0.0007716473191976547
1717858495192186000,8.15118603515625,0.00009839748963713646,-0.00021185167133808136,0.0004679444245994091
1717858495202226000,8.161225830078125,0.00025499146431684494,0.00020972639322280884,-0.00042048608884215355
1717858495212267000,8.17126708984375,0.0005736753810197115,-0.0004363562911748886,-0.00013425340875983238
1717858495222307800,8.181307861328126,0.0004181468393653631,0.0000779004767537117,-0.00015129754319787025
1717858495232348000,8.191347900390625,0.0016432697884738445,-0.0005633197724819183,0.000736855436116457
1717858495242389000,8.201388916015626,0.0006866622716188431,-0.0014829090796411037,-0.001150793395936489
1717858495252430000,8.21143017578125,-0.0005443177651613951,-0.0008971327915787697,-0.0004973574541509151
1717858495262470000,8.221469970703126,0.0018599843606352806,-0.0006087124347686768,0.001359664835035801
1717858495272511000,8.231510986328125,0.0007344081532210112,-0.0001849532127380371,-0.0010136635974049568
1717858495282551000,8.241551025390624,-0.00043072481639683247,0.0010278504341840744,-0.0013556135818362236
1717858495292592000,8.251592041015625,-0.00039520091377198696,-0.0008838754147291183,0.002335923258215189
1717858495302633000,8.261633056640624,-0.00054167490452528,0.001773693598806858,0.0009627975523471832
1717858495312673000,8.271673095703125,0.0008268547244369984,-0.0012653060257434845,-0.000906018540263176
1717858495322714000,8.281714111328125,0.0003024786710739136,-0.00045943353325128555,0.0004756292328238487
1717858495332754000,8.29175390625,0.0016924131195992231,-0.0015752455219626427,0.00005780346691608429
1717858495342795000,8.301794921875,-0.00009403517469763756,-0.0005363468080759048,0.0012900480069220066
1717858495352836000,8.311836181640626,0.00011649983935058117,0.0002563251182436943,0.00006034784018993378
1717858495362876000,8.3218759765625,-0.0010928416159003973,0.0007324982434511185,-0.0011479281820356846
1717858495372917000,8.3319169921875,-0.0015775079373270273,0.00022978615015745163,-0.0012379046529531479
1717858495382957000,8.34195703125,-0.0011889527086168528,0.0007062256336212158,-0.00036225700750947
1717858495392998000,8.351997802734376,0.00014800881035625935,0.00026404205709695816,-0.0013331682421267033
1717858495403039000,8.3620390625,-0.0010128631256520748,0.0002605803310871124,0.0009337142109870911
1717858495413079000,8.3720791015625,0.0006074230186641216,-0.0009316019713878632,-0.0001780339516699314
1717858495423120100,8.3821201171875,-0.0003332055639475584,-0.0006021689623594284,-0.0004587313160300255
1717858495433160200,8.39216015625,0.0002534850500524044,-0.00032861437648534775,0.0005565499886870384
1717858495443201000,8.402200927734375,0.00088891526684165,0.00016806554049253464,0.00007052300497889519
1717858495453242000,8.4122421875,-0.0002828568685799837,0.0008856495842337608,0.00043470459058880806
1717858495463282200,8.4222822265625,-0.0004988391883671284,0.0009969696402549744,0.000993968453258276
1717858495473323000,8.432322998046875,-0.0009158735629171133,0.00017314497381448746,0.0000070319510996341705
1717858495483362800,8.44236279296875,0.00036750384606420994,-0.00024150870740413666,0.0005628336220979691
1717858495493404000,8.45240380859375,0.001136136706918478,-0.0006318492814898491,-0.0004343325272202492
1717858495503445000,8.462445068359376,-0.0005746781826019287,0.0006118472665548325,-0.00035443762317299843
1717858495513485000,8.472485107421875,-0.00007837801240384579,0.0008127028122544289,0.00007850490510463715
1717858495523526000,8.48252587890625,-0.0005497576203197241,0.00019165407866239548,-0.00023201946169137955
1717858495533566000,8.49256591796875,0.0003075364511460066,0.00047120358794927597,0.0010496489703655243
1717858495543607000,8.50260693359375,0.0005243176128715277,-0.0005373358726501465,0.0015266211703419685
1717858495553647900,8.51264794921875,-0.00005456502549350262,0.0003556283190846443,0.0008067735470831394
1717858495563688000,8.52268798828125,-0.00019624526612460613,-0.001638013869524002,0.0008262144401669502
1717858495573729000,8.53272900390625,-0.001050784019753337,0.0015602363273501396,-0.00020358245819807053
1717858495583770000,8.54277001953125,-0.0009607691317796707,0.00042226724326610565,0.0006044204346835613
1717858495593810200,8.55281005859375,-0.00006384658627212048,-0.00003325659781694412,0.00007998663932085037
1717858495603851000,8.56285107421875,-0.00005452567711472511,0.0002583591267466545,0.0005074241198599339
1717858495613891000,8.57289111328125,-0.000314934179186821,-0.000996963120996952,0.0008890074677765369
1717858495623932200,8.58293212890625,0.0012693803291767836,0.0006012003868818283,0.00001948559656739235
1717858495633973200,8.59297314453125,-0.0007422403432428837,0.0005117990076541901,-0.0012708203867077827
1717858495644013000,8.603012939453125,0.00031077349558472633,0.0005160598084330559,0.000655710231512785
1717858495654054000,8.613053955078126,-0.0017772724386304617,0.0008764220401644707,-0.000343832653015852
1717858495664094000,8.623093994140625,-0.00027152104303240776,0.0007358072325587273,0.00015817303210496902
1717858495674135000,8.633135009765626,-0.00047473167069256306,0.00016147829592227936,0.0015597487799823284
1717858495684176000,8.64317578125,-0.00007871980778872967,-0.00026329606771469116,0.0009331069886684418
1717858495694216000,8.6532158203125,-0.0004438918549567461,0.00026524439454078674,-0.0002847830764949322
1717858495704257000,8.663257080078125,0.0006269649602472782,0.0006487397477030754,-0.00008611148223280907
1717858495714297000,8.673297119140624,0.00009174388833343983,0.00021549221128225327,0.0005317223258316517
1717858495724338200,8.683338134765625,0.00046378769911825657,-0.0016886680386960506,-0.0004925294779241085
1717858495734379000,8.69337890625,-0.0007863845676183701,-0.001071498729288578,0.0009879800491034985
1717858495744419000,8.703419189453125,0.00002161855809390545,0.0015272144228219986,0.0006460300646722317
1717858495754460200,8.713460205078125,-0.0003832397051155567,0.0011702179908752441,0.0010952204465866089
1717858495764500000,8.7235,0.0010599270462989807,-0.0005733538419008255,-0.0007530134171247482
1717858495774540800,8.733540771484375,0.00004448206163942814,-0.0007930593565106392,-0.0001858319155871868
1717858495784582000,8.743581787109376,-0.0006548638921231031,-0.0014953352510929108,0.00143496785312891
1717858495794622000,8.7536220703125,-0.0005837245844304562,-0.0010667918249964714,-0.0001352899707853794
1717858495804663000,8.7636630859375,0.00009697931818664074,-0.0002236347645521164,0.00013235770165920258
1717858495814703000,8.773703125,0.000013096723705530167,0.00037480518221855164,0.00017894990742206573
1717858495824744000,8.783743896484374,0.0006155036389827728,-0.001043594442307949,-0.00019122939556837082
1717858495834785000,8.793784912109375,-0.0005285437218844891,-0.0008819913491606712,-0.0010188235901296139
1717858495844825000,8.8038251953125,-0.00016289157792925835,-0.00035788118839263916,0.00042833806946873665
1717858495854866000,8.813865966796875,-0.0011317171156406403,0.000857032835483551,0.0003596511669456959
1717858495864906000,8.823906005859374,-0.001169533934444189,0.000043437816202640533,0.0004395460709929466
1717858495874947000,8.833947021484375,0.00009679142385721207,-0.0006733322516083717,-0.0002531162463128567
1717858495884987600,8.843987548828125,0.0004627094604074955,0.0004984578117728233,-0.0013471427373588085
1717858495895027700,8.85402783203125,0.0000964838545769453,0.0002391533926129341,0.00027679698541760445
1717858495905068500,8.864068603515625,-0.00010591652244329453,0.0009960243478417397,-0.000947724562138319
1717858495915109600,8.874109619140626,-0.0006078348960727453,-0.0009658169001340866,-0.0008526141755282879
1717858495925149700,8.884149658203125,-0.0010419301688671112,-0.0001298505812883377,0.0005285008810460567
1717858495935190800,8.894190673828126,0.00007084943354129791,-0.0000713961198925972,0.00027750711888074875
1717858495945230600,8.904230712890625,0.0005070753395557404,-0.0006319917738437653,0.0004061376675963402
1717858495955271400,8.914271484375,-0.0005098602268844843,-0.0005756150931119919,-0.00007172254845499992
1717858495965312500,8.9243125,0.0001362226903438568,0.0006600916385650635,-0.0015053022652864456
1717858495975352600,8.9343525390625,0.0004178551025688648,-0.0002216137945652008,-0.0018590707331895828
1717858495985393400,8.944393310546875,0.00009241700172424316,-0.0008392008021473885,0.0000030114315450191498
1717858495995433500,8.95443359375,-0.0002635684795677662,0.00022946950048208237,-0.00023730657994747162
1717858496005474600,8.964474609375,-0.00013360613957047462,0.0019645188003778458,0.0008865473791956902
1717858496015515600,8.974515625,-0.0006780801340937614,-0.0006578732281923294,0.0012741698883473873
1717858496025555700,8.9845556640625,0.0003656127955764532,0.0003932761028409004,-0.000014001037925481796
1717858496035596500,8.994596435546875,0.00020438595674932003,-0.00002443511039018631,0.0008155545219779015
1717858496045636600,9.00463671875,0.000818511238321662,-0.00019727367907762527,-0.0001391889527440071
1717858496055677700,9.014677734375,-0.0015198381152004004,-0.0005111284554004669,-0.0008076848462224007
1717858496065718500,9.024718505859376,0.0010578357614576817,-0.0011558802798390388,-0.00024123070761561394
1717858496075758600,9.034758544921875,0.0001357977744191885,-0.0006721531972289085,-0.00041540758684277534
1717858496085799700,9.044799560546876,0.0005773499142378569,-0.0008846735581755638,0.00023946398869156837
1717858496095839500,9.054839599609375,0.00013472908176481724,-0.0000670338049530983,0.00029081758111715317
1717858496105880600,9.064880615234374,0.0006907971110194921,-0.001101939007639885,0.0018383804708719254
1717858496115921400,9.07492138671875,0.0009813911747187376,-0.00009629316627979279,-0.0006912057287991047
1717858496125961500,9.08496142578125,0.00009402609430253506,-0.0006965696811676025,-0.0014044004492461681
1717858496136002600,9.09500244140625,0.0003162031061947346,-0.00014154519885778427,0.00010476168245077133
1717858496146043600,9.105043701171875,0.0011998401023447514,-0.00014926865696907043,0.000494648702442646
1717858496156083500,9.11508349609375,0.0009406476747244596,0.000696045346558094,-0.00023677200078964233
1717858496166124500,9.12512451171875,0.0011121549177914858,0.0003956407308578491,-0.001609631348401308
1717858496176164600,9.13516455078125,-0.00016861711628735065,-0.0006885826587677002,0.0007534017786383629
1717858496186205700,9.145205810546875,-0.001555591356009245,0.00010237656533718109,0.00032250210642814636
1717858496196246500,9.15524658203125,0.00012825592420995235,-0.0013643531128764153,0.000034341588616371155
1717858496206286600,9.16528662109375,0.0004731353837996721,-0.0008927080780267715,0.0009533981792628765
1717858496216327700,9.17532763671875,0.0002631440293043852,-0.0005041193217039108,-0.0007678763940930367
1717858496226367700,9.18536767578125,0.0010085629764944315,0.0015070997178554535,-0.000996642280369997
1717858496236408800,9.195408935546874,-0.000736533896997571,0.002702479250729084,0.0010315380059182644
1717858496246449700,9.20544970703125,0.0014019845984876156,-0.0003361878916621208,-0.0007714224047958851
1717858496256489500,9.215489501953124,0.0016935893800109625,-0.0003269976004958153,0.0008547059260308743
1717858496266530600,9.225530517578125,-0.00038181175477802753,-0.001845798920840025,-0.0006244136020541191
1717858496276570600,9.235570556640624,0.0008503342978656292,-0.000590197741985321,-0.0015745069831609726
1717858496286611500,9.245611572265625,-0.000323054613545537,0.0008923839777708054,0.0013661552220582962
1717858496296652500,9.255652587890625,0.001131128054112196,0.0007157605141401291,0.000007803551852703094
1717858496306692600,9.265692626953125,0.0001886351965367794,-0.00016041938215494156,-0.00006569968536496162
1717858496316733700,9.275733642578125,0.0003130983095616102,-0.00010010786354541779,-0.0004454054869711399
1717858496326773800,9.285773681640626,-0.0020861434750258923,0.00037073902785778046,0.00014288676902651787
1717858496336814600,9.295814697265625,-0.0012682350352406502,-0.000785565935075283,-0.0004332689568400383
1717858496346855700,9.305855712890626,-0.0001734097022563219,0.0003481414169073105,-0.00007800338789820671
1717858496356895700,9.315895751953125,-0.00127236801199615,-0.0006313621997833252,0.0009225201793015003
1717858496366936600,9.3259365234375,0.00018118508160114288,0.00001871492713689804,-0.0014130724593997002
1717858496376976400,9.335976318359375,-0.00048685562796890736,0.0010838406160473824,-0.002121549565345049
1717858496387017500,9.346017578125,-0.00012732879258692265,0.0005738455802202225,0.0019842456094920635
1717858496397058600,9.35605859375,0.00005658133886754513,-0.00047799665480852127,0.0010742736048996449
1717858496407098600,9.3660986328125,0.0005042585544288158,0.00030310917645692825,0.00008650729432702065
1717858496417139500,9.376139404296875,-0.000022210413590073586,0.00041867420077323914,0.001011839136481285
1717858496427179500,9.386179443359374,-0.0008065113797783852,0.0008743414655327797,-0.0002017631195485592
1717858496437220600,9.396220703125,0.0015599881298840046,-0.0012389952316880226,0.0000897897407412529
1717858496447261700,9.40626171875,0.0013325545005500317,-0.000019533559679985046,-0.0005584238097071648
1717858496457301500,9.416301513671876,-0.00028298539109528065,0.0006144912913441658,-0.0002899840474128723
1717858496467342600,9.426342529296875,0.0017229074146598577,-0.00040949415415525436,0.0008077709935605526
1717858496477383700,9.4363837890625,0.0015436999965459108,0.00151088647544384,-0.00009995885193347931
1717858496487423700,9.446423828125,-0.0001857567112892866,-0.0004310905933380127,-0.0016392660327255726
1717858496497464600,9.456464599609374,-0.0004374885465949774,0.000048034824430942535,0.00091950548812747
1717858496507504600,9.466504638671875,-0.00008541857823729515,0.00029038265347480774,0.0007421388290822506
1717858496517545700,9.476545654296874,-0.0018301436211913824,-0.0007075704634189606,0.00021257204934954643
1717858496527586800,9.4865869140625,-0.0016754139214754105,0.0008487803861498833,-0.0008588177151978016
1717858496537626600,9.496626708984374,-0.0006471853703260422,-0.0007903175428509712,-0.001020256895571947
1717858496547667500,9.50666748046875,0.0008332657162100077,0.000751386396586895,0.00021544983610510826
1717858496557707500,9.51670751953125,0.00008859159424901009,-0.00017983373254537582,0.00003842916339635849
1717858496567748600,9.52674853515625,0.0024071396328508854,0.0006108591333031654,-0.0001264205202460289
1717858496577789400,9.53678955078125,0.00018784357234835625,-0.0005873283371329308,0.0003688056021928787
1717858496587829500,9.54682958984375,0.0009702802635729313,0.0010393308475613594,0.00011846842244267464
1717858496597870600,9.55687060546875,-0.0006772072520107031,-0.00014655385166406631,0.00044336961582303047
1717858496607910700,9.56691064453125,-0.0015208965633064508,-0.0013729389756917953,-0.0006075138226151466
1717858496617951700,9.57695166015625,-0.00018106377683579922,-0.0006238408386707306,0.0006370823830366135
1717858496627992600,9.58699267578125,0.0015609099064022303,0.0016451720148324966,-0.0008087479509413242
1717858496638032600,9.59703271484375,0.0015673653688281775,-0.0014360412023961544,0.0010185386054217815
1717858496648073700,9.60707373046875,0.0007234092336148024,0.0006058039143681526,0.0012116176076233387
1717858496658113500,9.617113525390625,0.00044912449084222317,-0.000804537907242775,0.001066387165337801
1717858496668154600,9.627154541015624,-0.0022052484564483166,0.00007430557161569595,0.00044214213266968727
1717858496678195700,9.63719580078125,0.0011828588321805,-0.00030355900526046753,0.00042571406811475754
1717858496688235500,9.647235595703124,-0.0008704382926225662,0.00036702491343021393,-0.002395905088633299
1717858496698276600,9.657276611328125,0.0009475655388087034,-0.000046411529183387756,0.00012082280591130257
1717858496708317400,9.6673173828125,-0.0008407470304518938,0.00005585420876741409,-0.0002986248582601547
1717858496718357500,9.677357421875,0.0009322566911578178,0.00024018995463848114,0.000279297586530447
1717858496728398600,9.687398681640625,0.000017727259546518326,0.00023619551211595535,0.00053815683349967
1717858496738438700,9.697438720703126,0.0007102210074663162,0.0006032437086105347,0.0014365697279572487
1717858496748479500,9.7074794921875,-0.0004264162853360176,-0.00020262878388166428,0.0003065904602408409
1717858496758520600,9.7175205078125,-0.00016573560424149036,-0.001298251561820507,0.00047860993072390556
1717858496768560600,9.727560546875,0.0008345479145646095,0.00037155020982027054,0.00016009574756026268
1717858496778601700,9.737601806640624,-0.0007438829634338617,0.0007295841351151466,-0.0010266541503369808
1717858496788641800,9.747641845703125,0.0010926329996436834,0.000623057596385479,-0.00048230402171611786
1717858496798682600,9.7576826171875,-0.0000020847655832767487,-0.0001994231715798378,0.0014893384650349617
1717858496808723700,9.7677236328125,0.00133215868845582,-0.0006460351869463921,0.0003335266374051571
1717858496818763500,9.777763427734374,-0.0014711760450154543,-0.00019930023699998856,0.00011644884943962097
1717858496828804600,9.7878046875,-0.00009831646457314491,-0.000598507933318615,-0.0003322935663163662
1717858496838844400,9.797844482421874,0.0006490752566605806,-0.0004587071016430855,0.0009180027991533279
1717858496848885500,9.807885498046875,0.0016328466590493917,-0.000515165738761425,0.00004927953705191612
1717858496858926600,9.817926513671875,-0.000006057089194655418,-0.0017624176107347012,0.0001977807842195034
1717858496868966700,9.827966552734376,0.0013204633723944426,0.00020006578415632248,0.0012254947796463966
1717858496879007700,9.8380078125,-0.0001497988123446703,-0.0006118752062320709,0.0008103311993181705
1717858496889047600,9.848047607421876,-0.0006262382958084345,0.0005886778235435486,-0.0009726551361382008
1717858496899088600,9.858088623046875,0.0009723780676722527,-0.00038396473973989487,-0.000600071158260107
1717858496909129700,9.868129638671874,0.0003944719210267067,0.00019953306764364243,-0.000609125941991806
1717858496919169800,9.878169677734375,-0.0010386321227997541,-0.00002376176416873932,-0.00026585953310132027
1717858496929210600,9.888210693359374,0.0013126730918884277,-0.00017795898020267487,0.00043668271973729134
1717858496939250700,9.898250732421875,0.000977254705503583,-0.0008264733478426933,0.0005507096648216248
1717858496949291800,9.908291748046874,-0.0014369005803018808,0.0005394620820879936,0.00008758623152971268
1717858496959332600,9.91833251953125,-0.00010763807222247124,-0.0014162464067339897,0.001996837556362152
1717858496969372700,9.92837255859375,0.0001802498009055853,-0.00014405418187379837,0.00012010801583528519
1717858496979413800,9.938413818359376,-0.00003304029814898968,-0.000006017275154590607,-0.001433324534446001
1717858496989454800,9.948454833984375,-0.00010414677672088146,-0.000041437335312366486,-0.0007994920015335083
1717858496999495000,9.958494873046876,0.0004554011393338442,-0.00005394313484430313,0.0003000502474606037
1717858497009535700,9.96853564453125,-0.0007201181724667549,0.0002640383318066597,0.001581297256052494
1717858497019575800,9.978575927734376,0.00012118276208639145,-0.0018089036457240582,0.0002508796751499176
1717858497029617000,9.988616943359375,0.001297767274081707,0.0003453269600868225,0.0003038765862584114
1717858497039657700,9.99865771484375,0.0009025344625115395,0.00040080584585666656,0.0015812632627785206
1717858497049697500,10.008697509765625,0.002103886567056179,-0.0009294431656599045,0.0003053429536521435
1717858497059738600,10.018738525390624,-0.000006390269845724106,0.0003757113590836525,0.0002756156027317047
1717858497069778700,10.02877880859375,0.0008258474990725517,0.0003615962341427803,-0.00011613545939326286
1717858497079819800,10.03881982421875,0.00041921110823750496,-0.00004146154969930649,0.0015985127538442612
1717858497089860600,10.048860595703125,0.0001438399776816368,-0.0002891356125473976,0.000602224376052618
1717858497099900700,10.058900634765624,-0.00028970465064048767,0.0005580876022577286,0.00006082234904170036
1717858497109941800,10.068941650390625,-0.00015894346870481968,0.0009373212233185768,0.0010358057916164398
1717858497119981800,10.07898193359375,0.0013281197752803564,-0.00034916773438453674,-0.0014400561340153217
1717858497130022700,10.089022705078126,-0.0003523346967995167,0.0005352683365345001,0.0003993888385593891
1717858497140063700,10.099063720703125,-0.0006366162560880184,-0.0014995578676462173,-0.0009140330366790295
1717858497150103800,10.109103759765626,-0.0009455429390072823,0.0004560016095638275,-0.00010682875290513039
1717858497160145000,10.119144775390625,0.00036516343243420124,0.0003326116129755974,0.0003903321921825409
1717858497170184700,10.129184814453126,-0.000130184693261981,0.0008335523307323456,0.0005922000855207443
1717858497180225500,10.1392255859375,0.001508292742073536,0.000020604580640792847,0.0005373749881982803
1717858497190266600,10.1492666015625,0.000718133058398962,0.0011923955753445625,0.00007638148963451385
1717858497200306700,10.159306640625,0.0011889385059475899,0.0011855699121952057,0.0008716355077922344
1717858497210347800,10.16934765625,0.0015460685826838017,0.0008955514058470726,-0.0008194716647267342
1717858497220387600,10.1793876953125,0.00021923822350800037,0.0030738133937120438,0.00223028426989913
1717858497230428700,10.1894287109375,-0.0007722564041614532,-0.0010642055422067642,0.0009061605669558048
1717858497240469800,10.1994697265625,0.00028933328576385975,-0.0011279601603746414,0.0009232121519744396
1717858497250509800,10.209509765625,0.0008656412828713655,-0.002044886816293001,0.0012880652211606503
1717858497260550700,10.219550537109376,0.0011827994603663683,0.00009857490658760071,-0.0012670336291193962
1717858497270591700,10.229591796875,-0.000011095544323325157,0.000773952342569828,0.001886948011815548
1717858497280631800,10.2396318359375,-0.0009639132767915726,-0.001358846202492714,0.00046140700578689575
1717858497290673000,10.2496728515625,-0.0004573799669742584,0.0006182845681905746,-0.00021370407193899155
1717858497300712700,10.259712646484376,0.0022376999258995056,-0.0004579313099384308,0.00042095547541975975
1717858497310753800,10.26975390625,-0.0006121487822383642,-0.00006937608122825623,-0.00005654944106936455
1717858497320795000,10.279794921875,0.00014245929196476936,-0.0006934292614459991,-0.001038269605487585
1717858497330834700,10.289834716796875,-0.0010338588617742062,0.0011651907116174698,-0.0005405247211456299
1717858497340875500,10.29987548828125,0.000207139877602458,-0.0005709771066904068,0.000498626846820116
1717858497350915600,10.30991552734375,0.0015112899709492922,0.0007100040093064308,0.00035934383049607277
1717858497360956700,10.319956787109374,-0.0006136137526482344,-0.0009489115327596664,0.0006379634141921997
1717858497370997800,10.329997802734376,0.0010340837761759758,-0.0009374599903821945,0.0006363657303154469
1717858497381037800,10.340037841796875,0.0006120000034570694,-0.0013286629691720009,-0.0005658627487719059
1717858497391078700,10.35007861328125,-0.0003342211712151766,-0.000040492042899131775,0.0009960811585187912
1717858497401118700,10.36011865234375,0.0007550574373453856,-0.0008523231372237206,-0.0010022488422691822
1717858497411159800,10.370159912109376,0.0006724994163960218,-0.001036347821354866,-0.0000024978071451187134
1717858497421200600,10.38020068359375,0.0004473279695957899,-0.0008154632523655891,0.00006423657760024071
1717858497431240700,10.39024072265625,0.0017991482745856047,-0.00016112439334392548,0.0004314864054322243
1717858497441281800,10.40028173828125,0.0002751590218394995,0.00011059083044528961,0.0010555754415690899
1717858497451323000,10.410322998046874,0.00037875608541071415,0.0014903740957379341,0.0007194844074547291
1717858497461363000,10.420363037109375,-0.0004918717313557863,-0.00037532858550548553,-0.00041309837251901627
1717858497471403800,10.43040380859375,-0.00010544690303504467,0.0009522577747702599,-0.0006101722829043865
1717858497481443600,10.440443603515625,-0.000007941387593746185,-0.0005181394517421722,0.0017048828303813934
1717858497491484700,10.450484619140624,0.0012826265301555395,-0.0005801906809210777,-0.0004264451563358307
1717858497501525800,10.46052587890625,0.00015801494009792805,-0.00006665755063295364,0.00008370494470000267
1717858497511565600,10.470565673828125,-0.00004225480370223522,0.000447331927716732,0.0014507053419947624
1717858497521606700,10.480606689453126,0.0012865466997027397,-0.0017622467130422592,-0.00015644030645489693
1717858497531646700,10.490646728515625,-0.0008205461781471968,0.0014985278248786926,-0.0014584599994122982
1717858497541687800,10.500687744140626,0.000990043394267559,-0.0003869207575917244,-0.0002312231808900833
1717858497551728600,10.510728759765625,0.0008606137707829475,0.0017233677208423615,0.0005117990076541901
1717858497561768700,10.520768798828126,-0.002007838571444154,-0.0010467180982232094,0.0006228303536772728
1717858497571809800,10.530809814453125,-0.0005297842435538769,0.00006621703505516052,-0.00022698426619172096
1717858497581849900,10.540849853515626,0.0000618230551481247,-0.0015358706004917622,-2.537854015827179e-7
1717858497591890700,10.550890625,-0.000985864782705903,-0.00026687420904636383,0.0012828572653234005
1717858497601931800,10.560931884765624,-0.0007325939368456602,0.00014587771147489548,0.0002824738621711731
1717858497611971600,10.5709716796875,0.0003643622621893883,-0.0011167274788022041,-0.00009489571675658226
1717858497622012700,10.5810126953125,0.0015073700342327356,0.00036899372935295105,0.0011756992898881435
1717858497632052700,10.591052734375,-0.00045138481073081493,0.0004430292174220085,0.0008510597981512547
1717858497642093600,10.601093505859374,0.0010790410451591015,-0.000168677419424057,-0.00027642352506518364
1717858497652134700,10.611134765625,0.00016823969781398773,-0.0009431242942810059,0.0015446459874510765
1717858497662174700,10.6211748046875,0.002260037465021014,-0.0013842768967151642,-0.0002850303426384926
1717858497672215800,10.6312158203125,-0.0017227197531610727,-0.00012220442295074463,0.0024729392025619745
1717858497682256600,10.641256591796875,-0.000767003744840622,0.000026390887796878815,-0.0016307518817484379
1717858497692296700,10.651296630859376,-0.0002719219774007797,-0.0007001198828220367,-0.0004099588841199875
1717858497702337800,10.661337890625,-0.00007561128586530685,-0.0011837929487228394,-0.00011652009561657906
1717858497712377900,10.6713779296875,0.0006578234024345875,-0.000772600993514061,0.0006912164390087128
1717858497722418700,10.681418701171875,-0.0001781713217496872,-0.0003125658258795738,0.0004349672235548496
1717858497732459800,10.691459716796874,-0.0005486169829964638,0.0006131492555141449,0.000590495765209198
1717858497742499800,10.701499755859375,-0.0012988727539777756,-0.0008878828957676888,0.0005481303669512272
1717858497752541000,10.711541015625,-0.00021496624685823917,-0.001431434415280819,-0.00024069799110293388
1717858497762580700,10.721580810546875,0.00039126118645071983,-0.00006144493818283081,0.0008788993582129478
1717858497772621600,10.73162158203125,0.0011550555936992168,-0.0013775797560811043,-0.00022205151617527008
1717858497782662700,10.74166259765625,-0.0020681642927229404,-0.0019213897176086903,0.00046016089618206024
1717858497792702700,10.75170263671875,0.0009278918150812387,0.00003709923475980759,-0.0002905838191509247
1717858497802743600,10.76174365234375,-0.000961479265242815,0.000926431268453598,0.0006405101157724857
1717858497812783600,10.77178369140625,0.00017116311937570572,-0.00002245325595140457,-0.00016749277710914612
1717858497822824700,10.78182470703125,-0.0002328413538634777,0.00042263418436050415,0.0011419453658163548
1717858497832865800,10.79186572265625,-0.0009809231851249933,-0.0002884296700358391,0.0005888068117201328
1717858497842905900,10.80190576171875,0.0005513245705515146,-0.00031853094696998596,0.000591551885008812
1717858497852946700,10.81194677734375,-0.0014492420013993979,-0.00047512445598840714,-0.0002548010088503361
1717858497862986800,10.82198681640625,-0.0010077606420964003,0.0008761202916502953,0.00023226439952850342
1717858497873027800,10.83202783203125,0.0005246221553534269,-0.0002935398370027542,-0.00008571706712245941
1717858497883068400,10.842068359375,0.0008881650865077972,-0.0004929732531309128,-0.0007921252399682999
1717858497893108500,10.8521083984375,0.0021401173435151577,0.0002804091200232506,-0.0004115593619644642
1717858497903149300,10.8621494140625,-0.0006738777738064528,-0.0002924269065260887,0.0009387722238898277
1717858497913189400,10.872189453125,0.0006281416863203049,-0.0008753929287195206,0.0007299799472093582
1717858497923230500,10.88223046875,0.0007408801466226578,0.0005319453775882721,0.0001916671171784401
1717858497933271300,10.892271240234376,-0.00017285067588090897,-0.00047765951603651047,-0.0007532220333814621
1717858497943311400,10.902311279296875,0.001433465164154768,4.023313522338867e-7,-0.00003768922761082649
1717858497953352400,10.9123525390625,0.0010310616344213486,-0.0013687284663319588,-0.00016179215162992477
1717858497963393500,10.9223935546875,0.00007466482929885387,-0.000718703493475914,-0.00020995177328586578
1717858497973433300,10.932433349609376,0.0006389885675162077,-0.00018873438239097595,-0.0005068941973149776
1717858497983474200,10.94247412109375,-0.0004700759891420603,-0.0005367901176214218,-0.00022710440680384636
1717858497993514200,10.95251416015625,-0.001617898466065526,-0.000983402132987976,0.00036864448338747025
1717858498003555300,10.962555419921875,-0.0006596061866730452,-0.000515335239470005,-0.0012096106074750423
1717858498013596400,10.972596435546874,0.00005412101745605469,0.000052451156079769135,-0.00002876482903957367
1717858498023636200,10.98263623046875,0.00007434026338160038,0.00011324696242809296,-0.000031424686312675476
1717858498033677300,10.99267724609375,0.001234146999195218,-0.0009490875527262688,0.00043809041380882263
1717858498043717400,11.00271728515625,-0.0001858077012002468,0.0006581386551260948,-0.0006265914998948574
1717858498053758500,11.012758544921875,-0.0004955334588885307,0.00080887321382761,-0.000025249551981687546
1717858498063799300,11.02279931640625,0.0007601166144013405,-0.0000380268320441246,0.00009574135765433311
1717858498073839400,11.03283935546875,0.001367317046970129,-0.00045614317059516907,0.0008906950242817402
1717858498083880400,11.04288037109375,0.00012052035890519619,0.0007736906409263611,0.0007921792566776276
1717858498093920300,11.052920166015625,0.00010933517478406429,-0.002066570334136486,0.0015011131763458252
1717858498103961300,11.06296142578125,0.0012680238578468561,-0.0012321081012487411,0.0005823350511491299
1717858498114002400,11.07300244140625,0.0011359311174601316,-0.000405995175242424,0.0009312089532613754
1717858498124042200,11.083042236328126,-0.0023001169320195913,0.0006583016365766525,-0.00024410709738731384
1717858498134083300,11.093083251953125,0.00014067022129893303,0.00003245845437049866,0.0002094293013215065
1717858498144123400,11.103123291015624,0.0016826009377837181,-0.00022864621132612228,-0.00036430777981877327
1717858498154164200,11.113164306640625,-0.0000047781504690647125,-0.00021719466894865036,0.0005092089995741844
1717858498164205300,11.123205322265624,0.0009856834076344967,-0.00045731477439403534,-0.00034788064658641815
1717858498174245400,11.133245361328125,-0.00020954315550625324,0.00015894044190645218,-0.0018911822699010372
1717858498184286500,11.143286376953125,0.0011866595596075058,-0.000882146880030632,-0.00040260516107082367
1717858498194326500,11.153326416015625,-0.0009228303097188473,0.0004190737381577492,-0.0009703910909593105
1717858498204367400,11.163367431640625,0.001551082357764244,0.0027857720851898193,0.0006324467249214649
1717858498214408400,11.173408447265626,-0.0030258262995630503,0.0022494113072752953,0.0022678938694298267
1717858498224448500,11.183448486328125,-0.000875628087669611,0.0015452979132533073,-0.00007934868335723877
1717858498234489300,11.1934892578125,0.00007964787073433399,-0.0006427550688385963,-0.00003327568992972374
1717858498244530400,11.203530517578125,0.00043545314110815525,-0.0019949963316321373,0.00021435273811221123
1717858498254570200,11.2135703125,0.0002210687380284071,0.000040191225707530975,0.001566972117871046
1717858498264611300,11.223611328125,0.00026613310910761356,0.00029694847762584686,0.001768762245774269
1717858498274651400,11.2336513671875,0.00014469283632934093,0.00010946206748485565,0.000714416615664959
1717858498284692200,11.243692138671875,0.0014329422265291214,-0.0002532396465539932,-0.001443464308977127
1717858498294733300,11.2537333984375,0.0007192152552306652,-0.0006348714232444763,0.0009025144390761852
1717858498304773400,11.2637734375,0.00019475515000522137,0.00002726074308156967,-0.00023458898067474365
1717858498314814200,11.273814208984374,0.0014256678987294436,-0.0004481133073568344,0.0013960646465420723
1717858498324854300,11.283854248046875,0.0013874124269932508,0.0004149731248617172,-0.0009575649164617062
1717858498334895400,11.293895263671875,-0.00016973796300590038,-0.00013603456318378448,-0.0011439863592386246
1717858498344936400,11.3039365234375,-0.0009131962433457375,-0.0006503453478217125,0.0006442638114094734
1717858498354976500,11.3139765625,-0.0012636682949960232,0.00012170523405075073,-0.00009742658585309982
1717858498365017300,11.324017333984376,-0.0006383366417139769,-0.0012594591826200485,0.00088840676471591
1717858498375057400,11.334057373046875,0.0005662108305841684,-0.0007318872958421707,0.0006748214364051819
1717858498385098500,11.344098388671876,-0.0010450766421854496,-0.00009054038673639297,-0.00008685421198606491
1717858498395139300,11.354139404296875,0.0007573505863547325,0.0009693978354334831,0.00018478790298104286
1717858498405179100,11.36417919921875,-0.0009475504048168659,-0.0005681579932570457,0.0007916954346001148
1717858498415220200,11.37422021484375,0.0003294353373348713,0.00032906047999858856,0.0015048901550471783
1717858498425261300,11.38426123046875,0.0003160324413329363,0.0004655802622437477,0.0005188281647861004
1717858498435301400,11.39430126953125,-0.00006213667802512646,-0.0013861153274774551,-0.00021593831479549408
1717858498445342200,11.40434228515625,0.00042084301821887493,0.000015722587704658508,0.00048400741070508957
1717858498455382300,11.41438232421875,0.00010605738498270512,0.0001163901761174202,0.0011708368547260761
1717858498465423400,11.42442333984375,0.0008966068271547556,-0.0005334699526429176,-0.0001295492984354496
1717858498475464400,11.43446435546875,-0.0006352432537823915,0.0009419210255146027,0.001047834288328886
1717858498485504500,11.44450439453125,0.0010752915404736996,-0.00033226795494556427,0.0003991951234638691
1717858498495545300,11.45454541015625,0.001137342769652605,-0.0009581111371517181,0.00003274437040090561
1717858498505585400,11.46458544921875,-0.0003014055546373129,0.0013045398518443108,0.0011390680447220802
1717858498515626500,11.47462646484375,-0.0008209883235394955,-0.00008536409586668015,-0.0007355310954153538
1717858498525667300,11.484667236328125,0.00004072836600244045,-0.0005178665742278099,-0.00016919104382395744
