time,seconds_elapsed,z,y,x
1717858487081896700,0.040896728515625,0.0029731530230492353,0.009563411585986614,-0.006401440128684044
1717858487091937800,0.050937744140625,0.004148139618337154,0.010213488712906837,-0.007273092865943909
1717858487101977900,0.060977783203125,0.003023753175511956,0.007573763839900494,-0.0051803807727992535
1717858487112019000,0.07101904296875,0.0034381409641355276,0.008931709453463554,-0.006006227340549231
1717858487122058800,0.081058837890625,0.0035776905715465546,0.008068046532571316,-0.007892810739576817
1717858487132099600,0.091099609375,0.0030562435276806355,0.010367685928940773,-0.006351639050990343
1717858487142139600,0.1011396484375,0.004781972151249647,0.00826938170939684,-0.005385976750403643
1717858487152180700,0.1111806640625,0.003899400355294347,0.00936021190136671,-0.004721251782029867
1717858487162221600,0.1212216796875,0.003734284546226263,0.009750365279614925,-0.0070882695727050304
1717858487172261600,0.13126171875,0.0032266860362142324,0.009308546781539917,-0.004077832214534283
1717858487182302700,0.141302734375,0.0048861014656722546,0.010133061558008194,-0.004845887888222933
1717858487192342800,0.1513427734375,0.003498062025755644,0.008615592494606972,-0.005341768264770508
1717858487202384000,0.1613837890625,0.0035518580116331577,0.00914449617266655,-0.006412891671061516
1717858487212423700,0.171423583984375,0.0029033781029284,0.010265686549246311,-0.006345780100673437
1717858487222464800,0.18146484375,0.0029915287159383297,0.009881925769150257,-0.005909021943807602
1717858487232505900,0.191505859375,0.0046328348107635975,0.009415339678525925,-0.005863481666892767
1717858487242545700,0.201545654296875,0.002907639369368553,0.008729841560125351,-0.006203301250934601
1717858487252586800,0.211586669921875,0.003305249148979783,0.010001501068472862,-0.006875749211758375
1717858487262626600,0.22162646484375,0.004050135146826506,0.008898952975869179,-0.006456567905843258
1717858487272667600,0.231667724609375,0.0015630092239007354,0.010903247632086277,-0.0057479003444314
1717858487282707700,0.241707763671875,0.0049036783166229725,0.010026801377534866,-0.00711756432428956
1717858487292748800,0.251748779296875,0.002267415402457118,0.010671818628907204,-0.006654174067080021
1717858487302789600,0.26178955078125,0.003038400551304221,0.008963135071098804,-0.006850715726613998
1717858487312829700,0.27182958984375,0.0026999127585440874,0.010006560944020748,-0.0038181741256266832
1717858487322870800,0.281870849609375,0.004939364735037088,0.009618006646633148,-0.00689092930406332
1717858487332910800,0.291910888671875,0.004877313040196896,0.01116050872951746,-0.005579855293035507
1717858487342951700,0.30195166015625,0.0036040558479726315,0.01040630228817463,-0.005489840172231197
1717858487352991700,0.31199169921875,0.004482898861169815,0.008709602057933807,-0.006138852797448635
1717858487363032800,0.32203271484375,0.003028546692803502,0.00899722333997488,-0.005847502965480089
1717858487373074000,0.332073974609375,0.003400856629014015,0.00899509247392416,-0.006111688446253538
1717858487383113700,0.34211376953125,0.004244812298566103,0.008670187555253506,-0.005329251755028963
1717858487393154600,0.352154541015625,0.0031489215325564146,0.009862484410405159,-0.006649114191532135
1717858487403194600,0.362194580078125,0.004273840691894293,0.008439024910330772,-0.005501824431121349
1717858487413235700,0.372235595703125,0.00418276060372591,0.01061988715082407,-0.005533782299607992
1717858487423275800,0.38227587890625,0.004012318328022957,0.008099472150206566,-0.006966296583414078
1717858487433316600,0.392316650390625,0.0037832865491509438,0.008507734164595604,-0.006823018658906221
1717858487443357700,0.402357666015625,0.003555586328729987,0.008298410102725029,-0.0075604477897286415
1717858487453397800,0.412397705078125,0.004328702110797167,0.010662231594324112,-0.005050684791058302
1717858487463438800,0.42243896484375,0.005029912106692791,0.008956743404269218,-0.007903729565441608
1717858487473479000,0.43247900390625,0.0010567422723397613,0.00945022702217102,-0.005626993253827095
1717858487483519700,0.442519775390625,0.004127100575715303,0.010156763717532158,-0.0054794540628790855
1717858487493559800,0.452559814453125,0.002484196564182639,0.010113353841006756,-0.00663499953225255
1717858487503601000,0.462600830078125,0.00250496924854815,0.009951700456440449,-0.005254416726529598
1717858487513641700,0.472641845703125,0.005615541245788336,0.008319715037941933,-0.006613161414861679
1717858487523681500,0.482681640625,0.004988633096218109,0.009110407903790474,-0.004265851341187954
1717858487533722600,0.49272265625,0.003263970138505101,0.010604973882436752,-0.005388107616454363
1717858487543762700,0.5027626953125,0.003935087006539106,0.008893626742064953,-0.005276521202176809
1717858487553803800,0.5128037109375,0.00261868629604578,0.009749566204845905,-0.006298109423369169
1717858487563844600,0.5228447265625,0.0035683694295585155,0.009518936276435852,-0.0046658581122756
1717858487573884700,0.532884765625,0.004954811185598373,0.010713630355894566,-0.00355878216214478
1717858487583925800,0.54292578125,0.004054130055010319,0.008386294357478619,-0.003879160387441516
1717858487593965800,0.5529658203125,0.004559864290058613,0.009394034743309021,-0.006140716839581728
1717858487604006700,0.563006591796875,0.0035563854034990072,0.010295780375599861,-0.0052261874079704285
1717858487614046700,0.573046630859375,0.004559331573545933,0.008980445563793182,-0.006131662055850029
1717858487624087800,0.583087890625,0.003992877434939146,0.00836658664047718,-0.00538437906652689
1717858487634129000,0.59312890625,0.0028213527984917164,0.008236091583967209,-0.006702111102640629
1717858487644168700,0.603168701171875,0.003871171036735177,0.008657137863337994,-0.005536978133022785
1717858487654209500,0.61320947265625,0.004887433256953955,0.009331982582807541,-0.006016613449901342
1717858487664249600,0.62324951171875,0.00364719913341105,0.008489890955388546,-0.004983839578926563
1717858487674290700,0.633290771484375,0.003920439630746841,0.00942306313663721,-0.0062187472358345985
1717858487684330800,0.643330810546875,0.003034672001376748,0.010128534398972988,-0.006594785954803228
1717858487694371600,0.65337158203125,0.003715908620506525,0.00869229156523943,-0.005886384751647711
1717858487704412700,0.66341259765625,0.005052815657109022,0.00920601561665535,-0.006690659560263157
1717858487714452700,0.67345263671875,0.004174238536506891,0.00899455975741148,-0.0068331388756632805
1717858487724493800,0.683493896484375,0.0037987329997122288,0.009366603568196297,-0.004760666750371456
1717858487734534000,0.693533935546875,0.0038605183362960815,0.009184709750115871,-0.004988367203623056
1717858487744574700,0.70357470703125,0.004947886802256107,0.00929283443838358,-0.006835002917796373
1717858487754615800,0.71361572265625,0.004042145796120167,0.009943444281816483,-0.007487477269023657
1717858487764655900,0.72365576171875,0.005426190793514252,0.008008125238120556,-0.006258961278945208
1717858487774696700,0.73369677734375,0.0026410568971186876,0.010252904146909714,-0.005541771650314331
1717858487784736500,0.743736572265625,0.00509968725964427,0.009374859742820263,-0.0054885088466107845
1717858487794777600,0.753777587890625,0.004502073861658573,0.010297378525137901,-0.006301571615040302
1717858487804817700,0.763817626953125,0.004324707202613354,0.009337308816611767,-0.00526799913495779
1717858487814858800,0.773858642578125,0.0037462685722857714,0.009861418977379799,-0.004662395920604467
1717858487824899600,0.783899658203125,0.0032085764687508345,0.008038751780986786,-0.004281830508261919
1717858487834939600,0.793939697265625,0.004266117699444294,0.009892844595015049,-0.004808870144188404
1717858487844980700,0.803980712890625,0.003760383464396,0.008249141275882721,-0.0068184914998710155
1717858487855020800,0.814020751953125,0.004796353168785572,0.009974070824682713,-0.0052229915745556355
1717858487865061600,0.8240615234375,0.004436293616890907,0.009986055083572865,-0.004811266902834177
1717858487875103000,0.83410302734375,0.0041436124593019485,0.00765845226123929,-0.006342584267258644
1717858487885143000,0.84414306640625,0.003114566905423999,0.009996441192924976,-0.005772667936980724
1717858487895184100,0.85418408203125,0.0034727619495242834,0.009393768385052681,-0.004862132947891951
1717858487905224200,0.86422412109375,0.004523645620793104,0.008984440006315708,-0.006441920530050993
1717858487915265000,0.87426513671875,0.0036429380998015404,0.00791491474956274,-0.005121258553117514
1717858487925304800,0.884304931640625,0.003762780223041773,0.010639861226081848,-0.006391586735844612
1717858487935346000,0.894345947265625,0.0032586439047008753,0.009970076382160187,-0.005479720421135426
1717858487945387000,0.904386962890625,0.003906590864062309,0.008815862238407135,-0.005004345905035734
1717858487955426800,0.9144267578125,0.002409095410257578,0.008795089088380337,-0.005861883983016014
1717858487965468000,0.924468017578125,0.00219551008194685,0.007744206115603447,-0.005471464246511459
1717858487975508000,0.934508056640625,0.003483148291707039,0.008644887246191502,-0.0060206083580851555
1717858487985549000,0.944549072265625,0.0037473340053111315,0.008401473984122276,-0.00612207455560565
1717858487995589000,0.954589111328125,0.005423794034868479,0.010575412772595882,-0.006720753386616707
1717858488005630000,0.9646298828125,0.002930276095867157,0.008918393403291702,-0.007547931279987097
1717858488015671000,0.974671142578125,0.004941229242831469,0.008809470571577549,-0.005913815461099148
1717858488025711000,0.984711181640625,0.004290352575480938,0.00857564527541399,-0.004023769870400429
1717858488035752000,0.994751953125,0.005903961602598429,0.008311193436384201,-0.004950284026563168
1717858488045791700,1.004791748046875,0.00526720006018877,0.00887791346758604,-0.006082393694669008
1717858488055832800,1.014832763671875,0.0032469260040670633,0.009957026690244675,-0.007415305823087692
1717858488065874000,1.0248740234375,0.005005144979804754,0.0087807085365057,-0.006626211106777191
1717858488075914000,1.0349140625,0.0032570459879934788,0.009671003557741642,-0.006376673001796007
1717858488085954800,1.044954833984375,0.0040887510403990746,0.007772968150675297,-0.006027532275766134
1717858488095995000,1.054994873046875,0.005037102848291397,0.009104548953473568,-0.005945773329585791
1717858488106036000,1.065035888671875,0.004150802735239267,0.01022680476307869,-0.007026750594377518
1717858488116076000,1.075075927734375,0.004372111521661282,0.008841960690915585,-0.0060080913826823235
1717858488126116900,1.085116943359375,0.003597131697461009,0.00833968911319971,-0.007512244861572981
1717858488136158000,1.095157958984375,0.0054914383217692375,0.008578041568398476,-0.005544435232877731
1717858488146198000,1.105197998046875,0.00373002327978611,0.007819040678441525,-0.006159092765301466
1717858488156239000,1.115239013671875,0.004064782522618771,0.009404154494404793,-0.007021424360573292
1717858488166279200,1.125279052734375,0.003641073824837804,0.008364723064005375,-0.006667223758995533
1717858488176320000,1.135320068359375,0.0018788601737469435,0.009235842153429985,-0.00592686515301466
1717858488186361000,1.145361083984375,0.0037324202712625265,0.009796437807381153,-0.006207562051713467
1717858488196401000,1.15540087890625,0.0038962047547101974,0.010038252919912338,-0.0068214209750294685
1717858488206442000,1.16544189453125,0.00466532539576292,0.009520268067717552,-0.006083192303776741
1717858488216482000,1.17548193359375,0.005188902840018272,0.010029464960098267,-0.007281881291419268
1717858488226523000,1.18552294921875,0.0040765004232525826,0.007348726503551006,-0.005666674114763737
1717858488236563000,1.19556298828125,0.003314303932711482,0.010434797964990139,-0.007136206608265638
1717858488246604000,1.20560400390625,0.003198722843080759,0.009648365899920464,-0.006646451074630022
1717858488256644900,1.215644775390625,0.006105030421167612,0.00836791843175888,-0.005915147252380848
1717858488266685000,1.225684814453125,0.0038634478114545345,0.009285377338528633,-0.005408347584307194
1717858488276726000,1.23572607421875,0.0033595776185393333,0.007735950406640768,-0.0059902481734752655
1717858488286766000,1.24576611328125,0.002528138691559434,0.009301356039941311,-0.0065015750005841255
1717858488296807200,1.25580712890625,0.003832022426649928,0.00908271037042141,-0.006570817437022924
1717858488306848000,1.265847900390625,0.003200853243470192,0.009817210957407951,-0.005239502992480993
1717858488316887800,1.2758876953125,0.003734018187969923,0.009137305431067944,-0.005656021647155285
1717858488326929000,1.285928955078125,0.003979827743023634,0.008221711032092571,-0.006970557849854231
1717858488336969000,1.295968994140625,0.0031201594974845648,0.008607336319983006,-0.005251487251371145
1717858488347009800,1.306009765625,0.0021321268286556005,0.008043545298278332,-0.00615270109847188
1717858488357049900,1.3160498046875,0.00523737259209156,0.00923264678567648,-0.00561021501198411
1717858488367091000,1.326091064453125,0.003858387703076005,0.009302155114710331,-0.006329801399260759
1717858488377132000,1.336132080078125,0.0030623688362538815,0.010208162479102612,-0.006713829003274441
1717858488387172000,1.346172119140625,0.004559331573545933,0.0091170659288764,-0.00583605095744133
1717858488397213000,1.356212890625,0.004701011814177036,0.010267018340528011,-0.005702893249690533
1717858488407253000,1.3662529296875,0.004465588368475437,0.00806298665702343,-0.005838980432599783
1717858488417294000,1.376294189453125,0.004019509069621563,0.007506652269512415,-0.006613161414861679
1717858488427334100,1.386334228515625,0.0016887104138731956,0.008628642186522484,-0.005120992194861174
1717858488437375000,1.396375,0.003989415243268013,0.008745288476347923,-0.00535428524017334
1717858488447416000,1.406416015625,0.003634948516264558,0.008518386632204056,-0.006079730577766895
1717858488457455900,1.416455810546875,0.0028668928425759077,0.00774607015773654,-0.006145510356873274
1717858488467497000,1.4264970703125,0.003909520339220762,0.008496548980474472,-0.004792624618858099
1717858488477537000,1.436537109375,0.005662945564836264,0.009928531013429165,-0.004987834487110376
1717858488487577900,1.446577880859375,0.0036522590089589357,0.00875274557620287,-0.006583333946764469
1717858488497619000,1.456618896484375,0.004393683280795813,0.008592689409852028,-0.0065231467597186565
1717858488507659000,1.466658935546875,0.002947852946817875,0.007137005217373371,-0.005209941882640123
1717858488517699800,1.476699951171875,0.004004861693829298,0.008113586343824863,-0.006904777605086565
1717858488527740000,1.486739990234375,0.003041330026462674,0.009542904794216156,-0.006117014680057764
1717858488537781000,1.496781005859375,0.004881307948380709,0.008852880448102951,-0.0046850331127643585
1717858488547821000,1.506821044921875,0.004692489746958017,0.00890933908522129,-0.006968161091208458
1717858488557862100,1.516862060546875,0.003710582386702299,0.008357265964150429,-0.007947937585413456
1717858488567903000,1.526903076171875,0.005789712071418762,0.008882175199687481,-0.00518810423091054
1717858488577943000,1.536943115234375,0.004306064918637276,0.008679774589836597,-0.005306880921125412
1717858488587984100,1.546984130859375,0.004447478801012039,0.008288555778563023,-0.004854409955441952
1717858488598024000,1.55702392578125,0.004162254277616739,0.008786833845078945,-0.005843508057296276
1717858488608064800,1.567064697265625,0.003677559085190296,0.008927715010941029,-0.005288771353662014
1717858488618105900,1.57710595703125,0.0043619913049042225,0.008627843111753464,-0.005034972447901964
1717858488628146000,1.58714599609375,0.0045572011731565,0.009652361273765564,-0.0054877097718417645
1717858488638187000,1.59718701171875,0.0054421694949269295,0.00899855513125658,-0.006024869158864021
1717858488648227000,1.60722705078125,0.0035918052308261395,0.008958075195550919,-0.003993942867964506
1717858488658268000,1.617267822265625,0.0031055121216923,0.010429205372929573,-0.004619252867996693
1717858488668308000,1.627307861328125,0.003061569994315505,0.009576461277902126,-0.006037119776010513
1717858488678349000,1.63734912109375,0.003900199430063367,0.009693906642496586,-0.005024053156375885
1717858488688390100,1.64739013671875,0.003394731320440769,0.009807622991502285,-0.00507092522457242
1717858488698430000,1.657429931640625,0.005272526293992996,0.00851572398096323,-0.005357481073588133
1717858488708471000,1.667470947265625,0.004543086513876915,0.008334362879395485,-0.005372661165893078
1717858488718510800,1.6775107421875,0.004624579101800919,0.0100198769941926,-0.006350839976221323
1717858488728552000,1.687552001953125,0.004847485572099686,0.009255017153918743,-0.006881341803818941
1717858488738592800,1.6975927734375,0.0049223206005990505,0.008609200827777386,-0.005721002817153931
1717858488748632800,1.7076328125,0.002995523624122143,0.008473645895719528,-0.005824067164212465
1717858488758674000,1.717673828125,0.0038075214251875877,0.010575146414339542,-0.006601443514227867
1717858488768714000,1.7277138671875,0.0036131106317043304,0.009005213156342506,-0.005496231839060783
1717858488778755000,1.737755126953125,0.004166781902313232,0.00920148752629757,-0.005084773525595665
1717858488788795000,1.747794921875,0.004322044085711241,0.010399644263088703,-0.005312473513185978
1717858488798836000,1.7578359375,0.00452710734680295,0.009442503564059734,-0.005658152047544718
1717858488808877000,1.767876953125,0.004623514134436846,0.008537827990949154,-0.00703846849501133
1717858488818917000,1.777917236328125,0.005510879214853048,0.0091759217903018,-0.007400658447295427
1717858488828958000,1.7879580078125,0.004130030050873756,0.009802296757698059,-0.005622199270874262
1717858488838998000,1.797998046875,0.004809402395039797,0.009148490615189075,-0.006710633169859648
1717858488849039000,1.8080390625,0.005096491426229477,0.009241967462003231,-0.004866127856075764
1717858488859080200,1.818080078125,0.003698864486068487,0.010044378228485584,-0.004857339430600405
1717858488869119700,1.82811962890625,0.004634166602045298,0.009454221464693546,-0.005880792159587145
1717858488879160600,1.83816064453125,0.0040946099907159805,0.008960205130279064,-0.005877596326172352
1717858488889200600,1.84820068359375,0.004592887591570616,0.008056594990193844,-0.006617955397814512
1717858488899241700,1.85824169921875,0.004795287735760212,0.009133044630289078,-0.0046882289461791515
1717858488909281500,1.868281494140625,0.005799832288175821,0.007757788058370352,-0.006676544900983572
1717858488919322400,1.878322265625,0.0037739656399935484,0.010174340568482876,-0.005206213798373938
1717858488929363500,1.888363525390625,0.00561021501198411,0.009438775479793549,-0.005050951149314642
1717858488939403500,1.898403564453125,0.0031667647417634726,0.009771403856575489,-0.007508249953389168
1717858488949444600,1.908444580078125,0.0036578518338501453,0.008820655755698681,-0.007015032693743706
1717858488959484700,1.918484619140625,0.004061054438352585,0.009614011272788048,-0.005262406077235937
1717858488969525500,1.928525390625,0.003971039317548275,0.009997772984206676,-0.004898352082818747
1717858488979566600,1.938566650390625,0.005461877211928368,0.008988700807094574,-0.005681321490556002
1717858488989606700,1.948606689453125,0.003221093211323023,0.009179649874567986,-0.00654551712796092
1717858488999647700,1.958647705078125,0.0037558560725301504,0.010305901058018208,-0.0067782774567604065
1717858489009687600,1.9686875,0.003940146882086992,0.008451541885733604,-0.006373477168381214
1717858489019728600,1.978728759765625,0.002843723399564624,0.00911546777933836,-0.006839263718575239
1717858489029768700,1.988768798828125,0.0031308121979236603,0.007842476479709148,-0.004959871061146259
1717858489039809800,1.998809814453125,0.0044261738657951355,0.00785765703767538,-0.0062768044881522655
1717858489049850600,2.0088505859375,0.004316185135394335,0.009260876104235649,-0.005341502372175455
1717858489059890400,2.018890380859375,0.0029494508635252714,0.009246495552361012,-0.0046783750876784325
1717858489069931500,2.028931640625,0.0037534593138843775,0.009409747086465359,-0.006454170681536198
1717858489079971600,2.0389716796875,0.0029736857395619154,0.01019751001149416,-0.005826730281114578
1717858489090012700,2.0490126953125,0.00430100504308939,0.009548763744533062,-0.005795571021735668
1717858489100053500,2.059053466796875,0.005209941882640123,0.009954096749424934,-0.0073236930184066296
1717858489110093600,2.069093505859375,0.003750795964151621,0.008870989084243774,-0.005331914871931076
1717858489120134700,2.079134765625,0.004196875728666782,0.007815312594175339,-0.005112736485898495
1717858489130174700,2.0891748046875,0.003338006092235446,0.009153816848993301,-0.006363090593367815
1717858489140215600,2.099215576171875,0.0032320122700184584,0.009375658817589283,-0.0073236930184066296
1717858489150256600,2.109256591796875,0.0033981935121119022,0.009008674882352352,-0.005057875532656908
1717858489160296700,2.119296630859375,0.0027297399938106537,0.008262990042567253,-0.0049675945192575455
1717858489170337800,2.129337890625,0.004501274786889553,0.009817743673920631,-0.006110623013228178
1717858489180377600,2.139377685546875,0.0033241575583815575,0.009532518684864044,-0.0057383133098483086
1717858489190418400,2.14941845703125,0.0036312201991677284,0.009856625460088253,-0.0059998356737196445
1717858489200458500,2.15945849609375,0.004258926957845688,0.010268882848322392,-0.006893326062709093
1717858489210499600,2.16949951171875,0.0017094830982387066,0.007750597782433033,-0.0062336609698832035
1717858489220540400,2.17954052734375,0.003308444982394576,0.0080912159755826,-0.0067724185064435005
1717858489230580500,2.18958056640625,0.004037884995341301,0.008341552689671516,-0.006450176239013672
1717858489240621600,2.19962158203125,0.0041558630764484406,0.00951148010790348,-0.006246710661798716
1717858489250661600,2.20966162109375,0.003681021276861429,0.009473662823438644,-0.006689327768981457
1717858489260702700,2.21970263671875,0.0029859361238777637,0.008622250519692898,-0.005276787560433149
1717858489270743600,2.22974365234375,0.004521781112998724,0.007979363203048706,-0.007733553647994995
1717858489280783600,2.23978369140625,0.005966546013951302,0.010163421742618084,-0.006187322083860636
1717858489290824700,2.24982470703125,0.0027955202385783195,0.00890800729393959,-0.005918608978390694
1717858489300864800,2.25986474609375,0.0032754219137132168,0.007507184520363808,-0.005534581374377012
1717858489310905600,2.269905517578125,0.003994208760559559,0.008638495579361916,-0.005831257440149784
1717858489320945400,2.2799453125,0.003483681008219719,0.008412126451730728,-0.005504487548023462
1717858489330986500,2.289986572265625,0.003983556292951107,0.008681106381118298,-0.0054392400197684765
1717858489341027600,2.300027587890625,0.003692739177495241,0.009594570845365524,-0.004849882796406746
1717858489351067600,2.310067626953125,0.004929777234792709,0.008557535707950592,-0.005271727219223976
1717858489361108500,2.3201083984375,0.004261856433004141,0.009398828260600567,-0.007062703371047974
1717858489371148500,2.3301484375,0.0030269487760961056,0.010084059089422226,-0.005929261911660433
1717858489381189600,2.340189697265625,0.00364693277515471,0.008493886329233646,-0.005599029827862978
1717858489391230500,2.35023046875,0.0030474551022052765,0.01145851705223322,-0.004069842863827944
1717858489401270500,2.3602705078125,0.0046357642859220505,0.009532785043120384,-0.00535561703145504
1717858489411311600,2.3703115234375,0.003925233148038387,0.009000685065984726,-0.0057103498838841915
1717858489421351700,2.3803515625,0.003906058380380273,0.007505320478230715,-0.007388674188405275
1717858489431392800,2.390392822265625,0.005664810072630644,0.0076123797334730625,-0.0054698665626347065
1717858489441433600,2.40043359375,0.002284193178638816,0.010303503833711147,-0.00621155695989728
1717858489451473700,2.4104736328125,0.002575809368863702,0.010417753830552101,-0.005421929527074099
1717858489461514800,2.4205146484375,0.0028815402183681726,0.010086456313729286,-0.00510021997615695
1717858489471554600,2.430554443359375,0.00458702864125371,0.009215869009494781,-0.006908239796757698
1717858489481595400,2.440595458984375,0.003953196108341217,0.007442736066877842,-0.006882939953356981
1717858489491635500,2.450635498046875,0.004151601810008287,0.008982576429843903,-0.005342034623026848
1717858489501676500,2.460676513671875,0.004765460267663002,0.008548746816813946,-0.005151618737727404
1717858489511717600,2.470717529296875,0.004000334069132805,0.008445949293673038,-0.006953513715416193
1717858489521757700,2.4807578125,0.004114317707717419,0.0098038949072361,-0.006091182120144367
1717858489531798500,2.490798583984375,0.002532133599743247,0.00893810112029314,-0.00706829596310854
1717858489541838600,2.500838623046875,0.004193147178739309,0.009868876077234745,-0.0065620290115475655
1717858489551879700,2.510879638671875,0.003983023576438427,0.00851572398096323,-0.0055004931055009365
1717858489561920800,2.520920654296875,0.003296460723504424,0.009188438765704632,-0.005967345088720322
1717858489571960600,2.530960693359375,0.005018194206058979,0.008903213776648045,-0.006583600305020809
1717858489582001700,2.541001708984375,0.0046485476195812225,0.009093896485865116,-0.005079447291791439
1717858489592041500,2.55104150390625,0.002823217073455453,0.009959423914551735,-0.004752943757921457
1717858489602082600,2.56108251953125,0.005154548212885857,0.008620918728411198,-0.00626002624630928
1717858489612122600,2.57112255859375,0.0024668860714882612,0.01056342851370573,-0.006586529780179262
1717858489622163500,2.58116357421875,0.003947070799767971,0.008272310718894005,-0.006610498297959566
1717858489632204500,2.59120458984375,0.004037352278828621,0.009044361300766468,-0.005151885095983744
1717858489642244600,2.60124462890625,0.0036397422663867474,0.009161007590591908,-0.005151086021214724
1717858489652285700,2.61128564453125,0.0037494644057005644,0.008736765943467617,-0.006040315609425306
1717858489662325500,2.621325439453125,0.002517486223950982,0.008346080780029297,-0.0065164887346327305
1717858489672366600,2.63136669921875,0.004307929426431656,0.008027300238609314,-0.005155080929398537
1717858489682407700,2.64140771484375,0.004689826630055904,0.009985522367060184,-0.005388373974710703
1717858489692447700,2.65144775390625,0.004059722647070885,0.00947765726596117,-0.005470665637403727
1717858489702488600,2.661488525390625,0.003620034782215953,0.00959909800440073,-0.005008607171475887
1717858489712528600,2.671528564453125,0.004397944081574678,0.008326639421284199,-0.006146043073385954
1717858489722569700,2.68156982421875,0.0036663739010691643,0.009705890901386738,-0.00512951472774148
1717858489732609500,2.691609619140625,0.004883171990513802,0.010277937166392803,-0.006376140285283327
1717858489742650600,2.701650634765625,0.004948685877025127,0.00905714463442564,-0.005679457448422909
1717858489752691500,2.71169140625,0.004971855320036411,0.008708270266652107,-0.0046637277118861675
1717858489762731500,2.7217314453125,0.004511128645390272,0.00821079220622778,-0.006455502472817898
1717858489772772600,2.731772705078125,0.004285824950784445,0.009190035983920097,-0.005877329967916012
1717858489782812700,2.741812744140625,0.004472246393561363,0.008505071513354778,-0.005194761790335178
1717858489792853500,2.751853515625,0.003915645647794008,0.008270978927612305,-0.004661330953240395
1717858489802894600,2.76189453125,0.0012231898726895452,0.007948470301926136,-0.006395048461854458
1717858489812934700,2.7719345703125,0.0037023264449089766,0.007964183576405048,-0.005888249259442091
1717858489822975700,2.781975830078125,0.006170810665935278,0.008437426760792732,-0.0062757390551269054
1717858489833015800,2.792015869140625,0.0034469293896108866,0.009309878572821617,-0.006389189511537552
1717858489843056600,2.802056640625,0.00395719101652503,0.00899988692253828,-0.005182245280593634
1717858489853097700,2.81209765625,0.0022303974255919456,0.00965608935803175,-0.00660677021369338
1717858489863137500,2.822137451171875,0.0036709012929350138,0.010172476060688496,-0.007375358138233423
1717858489873179000,2.832178955078125,0.0025811356026679277,0.007820372469723225,-0.006197442300617695
1717858489883219000,2.842218994140625,0.0037238982040435076,0.008404670283198357,-0.006172408349812031
1717858489893260000,2.852260009765625,0.004549478180706501,0.009240103885531425,-0.005016330163925886
1717858489903301000,2.862301025390625,0.004821919370442629,0.00908537395298481,-0.0049095372669398785
1717858489913341000,2.8723408203125,0.005014466121792793,0.008423046208918095,-0.004620584659278393
1717858489923381800,2.8823818359375,0.005906358826905489,0.009381251409649849,-0.004993959795683622
1717858489933421800,2.892421875,0.00418302696198225,0.00993012823164463,-0.006128732580691576
1717858489943463000,2.902462890625,0.0032799490727484226,0.008508799597620964,-0.005708485841751099
1717858489953503000,2.9125029296875,0.003242398612201214,0.009002283215522766,-0.00561101408675313
1717858489963543800,2.922543701171875,0.004040814470499754,0.009281915612518787,-0.007242466323077679
1717858489973585000,2.9325849609375,0.0030245520174503326,0.009736516512930393,-0.0038567897863686085
1717858489983625000,2.942625,0.005170261021703482,0.00869042705744505,-0.0070251524448394775
1717858489993666000,2.952666015625,0.0032983249984681606,0.009097358211874962,-0.005131911486387253
1717858490003705900,2.962705810546875,0.003477822057902813,0.00821079220622778,-0.004805141594260931
1717858490013747000,2.972746826171875,0.003431216813623905,0.008807872422039509,-0.006043245084583759
1717858490023788000,2.9827880859375,0.0034679684322327375,0.009182579815387726,-0.005017129238694906
1717858490033827800,2.992827880859375,0.0035981968976557255,0.008884571492671967,-0.00526640098541975
1717858490043868700,3.00286865234375,0.004209125880151987,0.009346097707748413,-0.006114085204899311
1717858490053908700,3.01290869140625,0.005049886181950569,0.009692574851214886,-0.005430984310805798
1717858490063949800,3.02294970703125,0.0032567796297371387,0.009104016236960888,-0.005902896635234356
1717858490073990000,3.032989990234375,0.003365170443430543,0.009111206978559494,-0.005650429055094719
1717858490084031000,3.043031005859375,0.003951332066208124,0.008732505142688751,-0.004796619527041912
1717858490094071800,3.05307177734375,0.004004595335572958,0.009043295867741108,-0.006518086884170771
1717858490104111900,3.06311181640625,0.003025350859388709,0.00945049338042736,-0.00564137427136302
1717858490114153000,3.073153076171875,0.003906857222318649,0.010313889943063259,-0.00484295841306448
1717858490124193000,3.083193115234375,0.002752110594883561,0.008922388777136803,-0.005456284619867802
1717858490134233900,3.09323388671875,0.004581169690936804,0.008525044657289982,-0.005555087700486183
1717858490144275000,3.10327490234375,0.002752909669652581,0.008805209770798683,-0.006232329644262791
1717858490154315000,3.11331494140625,0.003942277282476425,0.00948245171457529,-0.00529702752828598
1717858490164356000,3.123356201171875,0.0032743564806878567,0.0089966906234622,-0.0067990501411259174
1717858490174396000,3.13339599609375,0.0029489181470125914,0.008330101147294044,-0.006532734259963036
1717858490184436700,3.143436767578125,0.003905525663867593,0.009290170855820179,-0.005364139098674059
1717858490194477800,3.153477783203125,0.005090898834168911,0.010061955079436302,-0.006660565733909607
1717858490204518000,3.163517822265625,0.0028751487843692303,0.009003082290291786,-0.006872819736599922
1717858490214558700,3.173558837890625,0.003388073528185487,0.009771403856575489,-0.006673082709312439
1717858490224598800,3.183598876953125,0.003882356220856309,0.00971387978643179,-0.005167864263057709
1717858490234640000,3.193639892578125,0.0033401367254555225,0.009698433801531792,-0.005452556069940329
1717858490244681000,3.203680908203125,0.00344586418941617,0.009832656942307949,-0.006735400762408972
1717858490254721000,3.213720947265625,0.004994226153939962,0.009123457595705986,-0.0051902346312999725
1717858490264761900,3.223761962890625,0.0035595810040831566,0.008496815338730812,-0.005285575985908508
1717858490274802000,3.233802001953125,0.0023667511995881796,0.007927165366709232,-0.0049164616502821445
1717858490284843000,3.243843017578125,0.0035236284602433443,0.008503207005560398,-0.00552366254851222
1717858490294882800,3.2538828125,0.004031226970255375,0.00839961040765047,-0.004259726032614708
1717858490304923600,3.263923583984375,0.002728408435359597,0.008133560419082642,-0.006148706190288067
1717858490314964700,3.27396484375,0.004442951641976833,0.009488310664892197,-0.006103964988142252
1717858490325004800,3.2840048828125,0.003510046284645796,0.008905078284442425,-0.005322860088199377
1717858490335046000,3.2940458984375,0.004150802735239267,0.008079231716692448,-0.006057093385607004
1717858490345086000,3.3040859375,0.004211789462715387,0.008562062866985798,-0.0054725296795368195
1717858490355126800,3.314126708984375,0.003049053018912673,0.008570585399866104,-0.005594768561422825
1717858490365167900,3.32416796875,0.003724963404238224,0.009547964669764042,-0.005793440621346235
1717858490375208000,3.3342080078125,0.005583050660789013,0.010509632527828217,-0.004969192203134298
1717858490385249000,3.3442490234375,0.003257844829931855,0.009079515002667904,-0.005328719038516283
1717858490395288800,3.354288818359375,0.004829376470297575,0.008865396492183208,-0.005336442030966282
1717858490405330000,3.364329833984375,0.005032042972743511,0.00863370206207037,-0.006197708658874035
1717858490415371000,3.37437109375,0.0040826257318258286,0.007851265370845795,-0.005845638457685709
1717858490425411000,3.3844111328125,0.0035340148024260998,0.009474994614720345,-0.004519117996096611
1717858490435452000,3.394451904296875,0.0035294874105602503,0.009031045250594616,-0.005618737079203129
1717858490445491700,3.40449169921875,0.003953196108341217,0.008342884480953217,-0.005512476898729801
1717858490455532800,3.41453271484375,0.0024676851462572813,0.009325857274234295,-0.005947371479123831
1717858490465574000,3.424573974609375,0.003329750383272767,0.008189486339688301,-0.00675324397161603
1717858490475614000,3.434614013671875,0.004627508576959372,0.0089391665533185,-0.005132444202899933
1717858490485654800,3.44465478515625,0.003739078063517809,0.009721070528030396,-0.006376406643539667
1717858490495694800,3.45469482421875,0.002998985582962632,0.010427074506878853,-0.006145776715129614
1717858490505736000,3.46473583984375,0.003977430984377861,0.007980694994330406,-0.005951632279902697
1717858490515776000,3.47477587890625,0.005395830608904362,0.009269931353628635,-0.005074386950582266
1717858490525816800,3.48481689453125,0.003963049966841936,0.00782809592783451,-0.007025951519608498
1717858490535858000,3.49485791015625,0.002892725635319948,0.009110407903790474,-0.006296245381236076
1717858490545898000,3.50489794921875,0.003811516100540757,0.008006527088582516,-0.004085022956132889
1717858490555939000,3.51493896484375,0.003179814200848341,0.008712264709174633,-0.006085323169827461
1717858490565979000,3.524978759765625,0.004378236830234528,0.00875913631170988,-0.005366269499063492
1717858490576020000,3.53502001953125,0.00583605095744133,0.008618255145847797,-0.005111138802021742
1717858490586061000,3.54506103515625,0.00392816262319684,0.008126103319227695,-0.006345780100673437
1717858490596100900,3.555100830078125,0.0032376048620790243,0.008826514706015587,-0.006612895056605339
1717858490606141700,3.5651416015625,0.003973968792706728,0.009766610339283943,-0.0059987702406942844
1717858490616181800,3.575181640625,0.0029313412960618734,0.01017114520072937,-0.005496498197317123
1717858490626222800,3.585222900390625,0.0038434739690274,0.008260592818260193,-0.004723382648080587
1717858490636264000,3.595263916015625,0.004912200383841991,0.008382033556699753,-0.006174805108457804
1717858490646304000,3.605303955078125,0.004552141297608614,0.009563145227730274,-0.006049636751413345
1717858490656344800,3.6153447265625,0.003005110891535878,0.008905611000955105,-0.005914880894124508
1717858490666385000,3.625385009765625,0.005026716738939285,0.008921856060624123,-0.005299957003444433
1717858490676426000,3.635426025390625,0.004465322010219097,0.00865926779806614,-0.006380667444318533
1717858490686466800,3.645466796875,0.005678924731910229,0.009333847090601921,-0.005568403284996748
1717858490696507000,3.6555068359375,0.004624845460057259,0.008020109497010708,-0.004794222768396139
1717858490706548000,3.6655478515625,0.0027771443128585815,0.008588427677750587,-0.006669886875897646
1717858490716587800,3.675587890625,0.004758536349982023,0.007837416604161263,-0.006896521896123886
1717858490726628900,3.68562890625,0.0029284118209034204,0.008069644682109356,-0.0067758806981146336
1717858490736669000,3.6956689453125,0.00506826164200902,0.007276288699358702,-0.005655222572386265
1717858490746709800,3.705709716796875,0.004765460267663002,0.00830693170428276,-0.005632319487631321
1717858490756750800,3.715750732421875,0.003849332919344306,0.009856891818344593,-0.006169745232909918
1717858490766791000,3.725791015625,0.003859186777845025,0.009381517767906189,-0.0062973108142614365
1717858490776831700,3.735831787109375,0.004649613052606583,0.009154349565505981,-0.004244812298566103
1717858490786871800,3.745871826171875,0.004685565363615751,0.009517871774733067,-0.005857622716575861
1717858490796913000,3.755912841796875,0.00493217445909977,0.007430219557136297,-0.004357464145869017
1717858490806954000,3.7659541015625,0.005145227070897818,0.009342901408672333,-0.004938033409416676
1717858490816994000,3.775994140625,0.004029628820717335,0.009457151405513287,-0.0057316552847623825
1717858490827035000,3.786034912109375,0.0037417414132505655,0.009111473336815834,-0.006928479764610529
1717858490837075000,3.796074951171875,0.0030514500103890896,0.008400674909353256,-0.005131378769874573
1717858490847116000,3.806115966796875,0.005438175052404404,0.010070477612316608,-0.005597165785729885
1717858490857156900,3.816156982421875,0.003456783015280962,0.009048622101545334,-0.006085855886340141
1717858490867196700,3.82619677734375,0.0027896612882614136,0.009483249858021736,-0.005597698036581278
1717858490877237800,3.83623779296875,0.0044291033409535885,0.00890774093568325,-0.004671717062592506
1717858490887277800,3.84627783203125,0.0041521345265209675,0.009385512210428715,-0.0063002402894198895
1717858490897319000,3.85631884765625,0.003067695302888751,0.007620102725923061,-0.004687163513153791
1717858490907359700,3.86635986328125,0.004108458757400513,0.008905611000955105,-0.005702626891434193
1717858490917399800,3.87639990234375,0.006640858482569456,0.00929176900535822,-0.006944725289940834
1717858490927441000,3.88644091796875,0.0032501218374818563,0.009586048312485218,-0.005931125953793526
1717858490937481000,3.89648095703125,0.004156928043812513,0.009105614386498928,-0.005021922755986452
1717858490947522000,3.90652197265625,0.0030780816450715065,0.008537295274436474,-0.005922071170061827
1717858490957563000,3.91656298828125,0.0020160130225121975,0.008070709183812141,-0.006190784275531769
1717858490967603000,3.92660302734375,0.003293531248345971,0.01041429117321968,-0.006384928710758686
1717858490977644000,3.93664404296875,0.004493285436183214,0.009495766833424568,-0.0060445768758654594
1717858490987683800,3.946683837890625,0.003923102747648954,0.009182845242321491,-0.006503705866634846
1717858490997724700,3.956724609375,0.00293373828753829,0.010074205696582794,-0.005911951418966055
1717858491007766000,3.96676611328125,0.004324174486100674,0.009673133492469788,-0.00510021997615695
1717858491017805800,3.976805908203125,0.00401578051969409,0.008582036942243576,-0.006113019771873951
1717858491027847000,3.986846923828125,0.0028940571937710047,0.010112821124494076,-0.00570023013278842
1717858491037887000,3.996886962890625,0.003941744565963745,0.008994294330477715,-0.005998503882437944
1717858491047927800,4.006927734375,0.004161987919360399,0.008609733544290066,-0.0059601543471217155
1717858491057967900,4.0169677734375,0.0037864823825657368,0.009583651088178158,-0.00555269094184041
1717858491068009000,4.027009033203125,0.005203284323215485,0.00968698225915432,-0.005991047248244286
1717858491078049800,4.0370498046875,0.004162786994129419,0.00893890019506216,-0.005960687063634396
1717858491088089900,4.04708984375,0.002383262850344181,0.008728510700166225,-0.005337241105735302
1717858491098131000,4.057130859375,0.007011570502072573,0.007504255045205355,-0.0060056946240365505
1717858491108171000,4.0671708984375,0.005065598525106907,0.009516806341707706,-0.006453638430684805
1717858491118212000,4.077212158203125,0.004012584686279297,0.009354086592793465,-0.005658951122313738
1717858491128253000,4.0872529296875,0.003825897118076682,0.008904279209673405,-0.00694978516548872
1717858491138292700,4.097292724609375,0.004625111818313599,0.009748500771820545,-0.00504109775647521
1717858491148333800,4.107333740234375,0.004239486064761877,0.008794556371867657,-0.004852545913308859
1717858491158374000,4.117373779296875,0.0029915287159383297,0.009464342147111893,-0.0054552191868424416
1717858491168414700,4.127414794921875,0.004811533261090517,0.00930082332342863,-0.006195844151079655
1717858491178455800,4.137455810546875,0.0038096518255770206,0.009297361597418785,-0.005542837083339691
1717858491188496000,4.147495849609375,0.004156928043812513,0.00894023198634386,-0.006136455573141575
1717858491198537000,4.157536865234375,0.0041129859164357185,0.007751396391540766,-0.005276254843920469
1717858491208577000,4.167576904296875,0.003658917034044862,0.010478206910192966,-0.006508765742182732
1717858491218617900,4.177617919921875,0.004230431281030178,0.01016848161816597,-0.005959089379757643
1717858491228659000,4.187658935546875,0.003317233407869935,0.009734386578202248,-0.005064799915999174
1717858491238699000,4.197698974609375,0.002671949565410614,0.007684551179409027,-0.006025135517120361
1717858491248739800,4.20773974609375,0.004424042999744415,0.008762332610785961,-0.006295979022979736
1717858491258780000,4.21777978515625,0.004895422607660294,0.009601227939128876,-0.007360977120697498
1717858491268821000,4.227821044921875,0.00318966805934906,0.010305368341505527,-0.005034173373132944
1717858491278862000,4.237862060546875,0.0031180288642644882,0.008698150515556335,-0.005364139098674059
1717858491288902000,4.24790185546875,0.0032959282398223877,0.008798285387456417,-0.004848817363381386
1717858491298942700,4.257942626953125,0.004223241005092859,0.009734120219945908,-0.005520733073353767
1717858491308982800,4.267982666015625,0.0035055188927799463,0.010395382530987263,-0.006126069463789463
1717858491319023900,4.27802392578125,0.00461712246760726,0.008853944949805737,-0.007078682072460651
1717858491329065000,4.28806494140625,0.0036578518338501453,0.00836818479001522,-0.0051862397231161594
1717858491339104800,4.298104736328125,0.0035694348625838757,0.008274441584944725,-0.007647000718861818
1717858491349145900,4.308145751953125,0.0023853934835642576,0.008741294033825397,-0.006762298755347729
1717858491359186000,4.31818603515625,0.004048271104693413,0.008408398367464542,-0.006036587059497833
1717858491369227000,4.32822705078125,0.004063983913511038,0.008535963483154774,-0.005477589555084705
1717858491379267800,4.338267822265625,0.003780889790505171,0.00905900914222002,-0.005696501582860947
1717858491389308000,4.348307861328125,0.00472631212323904,0.008258994668722153,-0.005111405160278082
1717858491399349000,4.358348876953125,0.003863980295136571,0.009550894610583782,-0.0036043222062289715
1717858491409388800,4.368388916015625,0.0047058057971298695,0.01037514302879572,-0.0049398974515497684
1717858491419430000,4.378429931640625,0.005298092495650053,0.008452074602246284,-0.006485596299171448
1717858491429470700,4.388470703125,0.005047755315899849,0.008422247134149075,-0.007334611844271421
1717858491439510800,4.3985107421875,0.003943875432014465,0.009368468075990677,-0.005702626891434193
1717858491449552000,4.4085517578125,0.004116980824619532,0.010036921128630638,-0.005331115797162056
1717858491459592000,4.418592041015625,0.0037433390971273184,0.009880593977868557,-0.005059739574790001
1717858491469632800,4.4286328125,0.003620833856984973,0.007711449172347784,-0.00689066294580698
1717858491479673900,4.438673828125,0.002275138394907117,0.008584965951740742,-0.008335161954164505
1717858491489714000,4.4487138671875,0.003840544493868947,0.008333830162882805,-0.0065013086423277855
1717858491499755000,4.458755126953125,0.004485296085476875,0.009618006646633148,-0.005943909287452698
1717858491509795000,4.468795166015625,0.0041308291256427765,0.00851545762270689,-0.005350556690245867
1717858491519836000,4.4788359375,0.004985437728464603,0.007727960590273142,-0.006964965257793665
1717858491529877000,4.488876953125,0.0036677054595202208,0.007425425574183464,-0.007524229120463133
1717858491539917000,4.4989169921875,0.0046964846551418304,0.010367419570684433,-0.005253884010016918
1717858491549958000,4.5089580078125,0.004060255363583565,0.008244880475103855,-0.00669412175193429
1717858491559997700,4.518997802734375,0.0024106933269649744,0.007318633142858744,-0.005917011294513941
1717858491570038800,4.529038818359375,0.0033875408116728067,0.008360461331903934,-0.005104747135192156
1717858491580079900,4.539079833984375,0.004255465231835842,0.008959938772022724,-0.005927131045609713
1717858491590120000,4.549119873046875,0.005185973364859819,0.009245962835848331,-0.006265352945774794
1717858491600160800,4.559160888671875,0.00401551416143775,0.009670737199485302,-0.005489840172231197
1717858491610200800,4.569200927734375,0.004234159830957651,0.00908484123647213,-0.006347378250211477
1717858491620242000,4.579241943359375,0.003923901356756687,0.007506918627768755,-0.005320729687809944
1717858491630282800,4.58928271484375,0.003970240708440542,0.009858756326138973,-0.005276787560433149
1717858491640322800,4.59932275390625,0.003724963404238224,0.008664860390126705,-0.005279450677335262
1717858491650364000,4.609364013671875,0.005310875829309225,0.009103749878704548,-0.006332997232675552
1717858491660404000,4.619404052734375,0.003436010330915451,0.009811618365347385,-0.004944690968841314
1717858491670445000,4.629445068359375,0.003099919529631734,0.008096275851130486,-0.005712214391678572
1717858491680486000,4.63948583984375,0.0031169636640697718,0.00902705080807209,-0.005766808986663818
1717858491690526000,4.64952587890625,0.0030804784037172794,0.009274458512663841,-0.005877862684428692
1717858491700567000,4.659567138671875,0.0022652847692370415,0.008423312567174435,-0.004892493132501841
1717858491710606800,4.66960693359375,0.005192098673433065,0.00882038939744234,-0.007215302437543869
1717858491720648000,4.67964794921875,0.003980360459536314,0.009436910971999168,-0.006013950332999229
1717858491730687700,4.689687744140625,0.003153981640934944,0.010302704758942127,-0.0049532135017216206
1717858491740728800,4.699728759765625,0.003977697342634201,0.007537811063230038,-0.005200887098908424
1717858491750770000,4.70977001953125,0.004639759194105864,0.009440373629331589,-0.004996356554329395
1717858491760810000,4.71981005859375,0.003320162883028388,0.009067797102034092,-0.005562810692936182
1717858491770850800,4.729850830078125,0.0036799560766667128,0.00929443258792162,-0.0054826498962938786
1717858491780891000,4.739890869140625,0.00464721629396081,0.00869362335652113,-0.005751362536102533
1717858491790932000,4.749931884765625,0.0046240463852882385,0.00908803753554821,-0.004369714763015509
1717858491800973000,4.75997314453125,0.0043984767980873585,0.010304036550223827,-0.006640059407800436
1717858491811012900,4.770012939453125,0.004282363224774599,0.008187356404960155,-0.006475476082414389
1717858491821054000,4.780053955078125,0.0051841093227267265,0.008640093728899956,-0.006639260333031416
1717858491831093800,4.79009375,0.003984621725976467,0.009444101713597775,-0.007125020958483219
1717858491841134800,4.800134765625,0.0031249532476067543,0.009034774266183376,-0.00643632747232914
1717858491851175700,4.81017578125,0.004577441141009331,0.009368734434247017,-0.006086388137191534
1717858491861215700,4.8202158203125,0.0032296155113726854,0.01031628716737032,-0.005014466121792793
1717858491871256800,4.8302568359375,0.0027329358272254467,0.009457684122025967,-0.0057127466425299644
1717858491881297000,4.840296875,0.002843723399564624,0.008860070258378983,-0.006334328558295965
1717858491891338000,4.850337890625,0.004333495628088713,0.01085664238780737,-0.005317267496138811
1717858491901378800,4.86037890625,0.003326820908114314,0.007873369380831718,-0.005877862684428692
1717858491911419000,4.8704189453125,0.0028818065766245127,0.009082444943487644,-0.007000118959695101
1717858491921460000,4.8804599609375,0.004085821565240622,0.008448345586657524,-0.005391037091612816
1717858491931500000,4.8905,0.004033091012388468,0.010270480997860432,-0.006061088293790817
1717858491941540900,4.900540771484375,0.0024021712597459555,0.009787649847567081,-0.006293049547821283
1717858491951582000,4.91058203125,0.004234692547470331,0.009006277658045292,-0.005125786177814007
1717858491961622000,4.9206220703125,0.005179582163691521,0.008356733247637749,-0.006015814375132322
1717858491971663000,4.9306630859375,0.0037356161046773195,0.007668039761483669,-0.006138852797448635
1717858491981703000,4.940702880859375,0.0029108349699527025,0.007139668334275484,-0.006706638727337122
1717858491991743700,4.95074365234375,0.004789162427186966,0.00948271807283163,-0.005345496814697981
1717858492001784800,4.960784912109375,0.0034056503791362047,0.009702428244054317,-0.005985986907035112
1717858492011825000,4.970824951171875,0.002329467097297311,0.007655256427824497,-0.005025651305913925
1717858492021865700,4.98086572265625,0.004771585576236248,0.00947712454944849,-0.004817658569663763
1717858492031905800,4.99090576171875,0.0029672940727323294,0.008044078014791012,-0.005195294506847858
1717858492041947000,5.00094677734375,0.005916212219744921,0.009104282595217228,-0.005913282744586468
1717858492051988000,5.010988037109375,0.0024956483393907547,0.009846772067248821,-0.005554821342229843
1717858492062028000,5.021028076171875,0.004324973560869694,0.010076070204377174,-0.0052173989824950695
1717858492072068900,5.03106884765625,0.003937750123441219,0.009022790007293224,-0.006324474699795246
1717858492082109000,5.04110888671875,0.0033665020018815994,0.007801197934895754,-0.006222742144018412
1717858492092150000,5.05114990234375,0.003522296901792288,0.00839747954159975,-0.006074137985706329
1717858492102190800,5.06119091796875,0.004460794851183891,0.009473662823438644,-0.00515880947932601
1717858492112230700,5.071230712890625,0.0037758296821266413,0.007735684048384428,-0.006518086884170771
1717858492122271700,5.081271728515625,0.003635747591033578,0.009048622101545334,-0.005117264110594988
1717858492132311800,5.091311767578125,0.0033949976786971092,0.008468586020171642,-0.005382781382650137
1717858492142353000,5.101352783203125,0.00347542529925704,0.008477373979985714,-0.006066947244107723
1717858492152393700,5.111393798828125,0.004548412747681141,0.010147709399461746,-0.006167614832520485
1717858492162433800,5.121433837890625,0.00333161442540586,0.009830792434513569,-0.005561745725572109
1717858492172475000,5.131474853515625,0.001817607437260449,0.008927715010941029,-0.006643521599471569
1717858492182515000,5.141514892578125,0.0037830201908946037,0.010035856626927853,-0.007798268459737301
1717858492192556000,5.15155615234375,0.0038277613930404186,0.009103483520448208,-0.0049646650440990925
1717858492202596900,5.161596923828125,0.00418329332023859,0.009188704192638397,-0.007197192870080471
1717858492212637000,5.171636962890625,0.0031609057914465666,0.008381234481930733,-0.004609931726008654
1717858492222678000,5.181677978515625,0.004541222471743822,0.009843575768172741,-0.006171875633299351
1717858492232718000,5.191718017578125,0.003991545643657446,0.009038235992193222,-0.005526592023670673
1717858492242759000,5.201759033203125,0.004067446105182171,0.008567389100790024,-0.00532419141381979
1717858492252800000,5.211800048828125,0.0030450583435595036,0.008927182294428349,-0.00624191714450717
1717858492262839800,5.22183984375,0.004396612755954266,0.008549812249839306,-0.005023254547268152
1717858492272881000,5.231880859375,0.004866926930844784,0.00939243659377098,-0.005628058221191168
1717858492282921000,5.2419208984375,0.005110606085509062,0.009911486878991127,-0.007021424360573292
1717858492292961800,5.2519619140625,0.005090099759399891,0.010161290876567364,-0.005138835404068232
1717858492303003000,5.2620029296875,0.004408863373100758,0.009109608829021454,-0.006203301250934601
1717858492313043000,5.27204296875,0.004162786994129419,0.009619870223104954,-0.005387574899941683
1717858492323083800,5.282083740234375,0.0027387947775423527,0.009041165933012962,-0.006718090269714594
1717858492333123800,5.292123779296875,0.0030240193009376526,0.009416405111551285,-0.005432049743831158
1717858492343165000,5.3021650390625,0.003972637467086315,0.009613744914531708,-0.004427505191415548
1717858492353206000,5.3122060546875,0.004287955816835165,0.009645436890423298,-0.0062800003215670586
1717858492363246000,5.32224609375,0.0052016861736774445,0.011216701939702034,-0.005382781382650137
1717858492373287000,5.332286865234375,0.005628590937703848,0.009494967758655548,-0.0037473340053111315
1717858492383327000,5.342326904296875,0.005154548212885857,0.009671268984675407,-0.006229133810847998
1717858492393368000,5.3523681640625,0.00535348616540432,0.00771704176440835,-0.007924235425889492
1717858492403409000,5.362408935546875,0.00415373221039772,0.009542105719447136,-0.0071098413318395615
1717858492413448700,5.37244873046875,0.003034672001376748,0.008488825522363186,-0.005483714863657951
1717858492423489800,5.38248974609375,0.0034908715169876814,0.010395915247499943,-0.004135889001190662
1717858492433529900,5.39252978515625,0.0025481125339865685,0.00811864621937275,-0.00762969022616744
1717858492443571000,5.402571044921875,0.002697782125324011,0.008012119680643082,-0.005739111918956041
1717858492453611800,5.41261181640625,0.004449076950550079,0.009211341850459576,-0.006870955694466829
1717858492463651800,5.42265185546875,0.00427171029150486,0.010115218348801136,-0.006192914675921202
1717858492473693000,5.43269287109375,0.0039880839176476,0.008715461008250713,-0.005477056838572025
1717858492483733000,5.44273291015625,0.0031902005430310965,0.00782676413655281,-0.005201153457164764
1717858492493773800,5.45277392578125,0.003171558491885662,0.007197192870080471,-0.00752050057053566
1717858492503815000,5.46281494140625,0.005462143570184708,0.01025743130594492,-0.004516987595707178
1717858492513855000,5.47285498046875,0.0033657029271125793,0.009195628575980663,-0.006628341507166624
1717858492523896000,5.48289599609375,0.004555337131023407,0.009514142759144306,-0.0060946443118155
1717858492533935900,5.492935791015625,0.0054885088466107845,0.0089365029707551,-0.00711623253300786
1717858492543976700,5.502976806640625,0.0032027175184339285,0.008009723387658596,-0.006338856182992458
1717858492554017800,5.513017822265625,0.0038248319178819656,0.011349326930940151,-0.005863215308636427
1717858492564057900,5.523057861328125,0.00512738386169076,0.010943461209535599,-0.0049311090260744095
1717858492574099000,5.533098876953125,0.0041372207924723625,0.010186058469116688,-0.005910086911171675
1717858492584138800,5.543138671875,0.0034085798542946577,0.008284561336040497,-0.005200887098908424
1717858492594179800,5.553179931640625,0.0034051176626235247,0.008859803900122643,-0.005745503585785627
1717858492604221000,5.563220947265625,0.0033401367254555225,0.009545834735035896,-0.0052056810818612576
1717858492614261000,5.573260986328125,0.0044173854403197765,0.01053120382130146,-0.004336425103247166
1717858492624301800,5.5833017578125,0.004051733296364546,0.007965780794620514,-0.004492486361414194
1717858492634342000,5.593341796875,0.004495149478316307,0.008462727069854736,-0.006380933802574873
1717858492644383000,5.603383056640625,0.0034179009962826967,0.009327189065515995,-0.006471215281635523
1717858492654424000,5.613424072265625,0.003942809998989105,0.01047447882592678,-0.0054211304523050785
1717858492664464000,5.6234638671875,0.0037499971222132444,0.008975918404757977,-0.003969707991927862
1717858492674505000,5.6335048828125,0.0035574506036937237,0.009373794309794903,-0.007482417393475771
1717858492684544800,5.643544677734375,0.003784351982176304,0.009974603541195393,-0.006982009392231703
1717858492694585900,5.6535859375,0.0041465419344604015,0.008377771824598312,-0.0065468489192426205
1717858492704626700,5.663626708984375,0.0032929987646639347,0.009522931650280952,-0.004532699938863516
1717858492714666800,5.673666748046875,0.003704723436385393,0.009460879489779472,-0.007229417096823454
1717858492724707800,5.683707763671875,0.003704457078129053,0.010027334094047546,-0.006825149059295654
1717858492734748000,5.693747802734375,0.004067711997777224,0.007272826507687569,-0.006365487817674875
1717858492744789000,5.7037890625,0.0034416031558066607,0.00917245913296938,-0.005029912106692791
1717858492754829800,5.713829833984375,0.003913248889148235,0.010001501068472862,-0.005843508057296276
1717858492764870000,5.723869873046875,0.003590740030631423,0.010176737792789936,-0.0058094197884202
1717858492774911000,5.733910888671875,0.00387303507886827,0.008983374573290348,-0.006667490117251873
1717858492784951000,5.743950927734375,0.004909005016088486,0.01001961063593626,-0.005172391422092915
1717858492794991900,5.753991943359375,0.0035547874867916107,0.008477373979985714,-0.006557501386851072
1717858492805033000,5.764032958984375,0.0026162895374000072,0.010209760628640652,-0.005827795248478651
1717858492815072800,5.77407275390625,0.004868258256465197,0.008493619970977306,-0.008021174930036068
1717858492825113900,5.78411376953125,0.004001133143901825,0.009711217135190964,-0.0059598879888653755
1717858492835154000,5.79415380859375,0.0031230889726430178,0.009830259718000889,-0.005881857592612505
1717858492845194800,5.80419482421875,0.0027949875220656395,0.008921056985855103,-0.005919141694903374
1717858492855235800,5.81423583984375,0.0037324202712625265,0.009647566825151443,-0.005900233518332243
1717858492865276000,5.82427587890625,0.0014929680619388819,0.008317850530147552,-0.0057404437102377415
1717858492875316200,5.834316162109375,0.0036163064651191235,0.010062487795948982,-0.00600409647449851
1717858492885356300,5.844356201171875,0.0030807447619736195,0.008922388777136803,-0.0059905145317316055
1717858492895397000,5.854397216796875,0.004197940696030855,0.009082444943487644,-0.004602208733558655
1717858492905438200,5.864438232421875,0.005825931206345558,0.009710684418678284,-0.004395014606416225
1717858492915478000,5.87447802734375,0.002615224104374647,0.009299492463469505,-0.007012103218585253
1717858492925519000,5.88451904296875,0.0035454663448035717,0.0095698032528162,-0.005419532768428326
1717858492935559000,5.894558837890625,0.00421471893787384,0.009852098301053047,-0.004622715059667826
1717858492945600000,5.90460009765625,0.0033318807836622,0.010132262483239174,-0.005357481073588133
1717858492955641000,5.91464111328125,0.003674097126349807,0.00914609432220459,-0.006071474403142929
1717858492965681200,5.92468115234375,0.0028911277186125517,0.008537295274436474,-0.00538357999175787
1717858492975722000,5.934721923828125,0.005603024736046791,0.009730391204357147,-0.006743922829627991
1717858492985762000,5.944761962890625,0.0038607846945524216,0.01016741618514061,-0.0054879761300981045
1717858492995803100,5.95480322265625,0.0037803570739924908,0.009635848924517632,-0.0062728095799684525
1717858493005844200,5.96484423828125,0.0049401638098061085,0.008696286007761955,-0.005542570725083351
1717858493015884300,5.97488427734375,0.004573712591081858,0.008864598348736763,-0.005268531385809183
1717858493025925000,5.984925048828125,0.0032402679789811373,0.008566057309508324,-0.006659766659140587
1717858493035966200,5.99496630859375,0.0051838429644703865,0.010089385323226452,-0.00549197057262063
1717858493046006300,6.00500634765625,0.004475442226976156,0.010426541790366173,-0.0057015614584088326
1717858493056047000,6.015047119140625,0.004805141594260931,0.007710916455835104,-0.005086903925985098
1717858493066087000,6.0250869140625,0.002663427498191595,0.008298676460981369,-0.004998486954718828
1717858493076128000,6.0351279296875,0.00301656243391335,0.0081474082544446,-0.006556968670338392
1717858493086169000,6.045169189453125,0.003960120491683483,0.00857617799192667,-0.005539641249924898
1717858493096209200,6.055209228515625,0.004338289611041546,0.009396164678037167,-0.005513808690011501
1717858493106250000,6.06525,0.004298608284443617,0.009328520856797695,-0.004564391914755106
1717858493116290000,6.0752900390625,0.0041731735691428185,0.010144246742129326,-0.005256547126919031
1717858493126331100,6.0853310546875,0.0031758195254951715,0.00854288786649704,-0.005830991081893444
1717858493136372000,6.0953720703125,0.0036165728233754635,0.008293616585433483,-0.00675297761335969
1717858493146412000,6.105412109375,0.0030985879711806774,0.008273908868432045,-0.006620085798203945
1717858493156453000,6.115453125,0.0031585090328007936,0.00944782979786396,-0.005686914082616568
1717858493166493200,6.1254931640625,0.0065194182097911835,0.010193781927227974,-0.006380933802574873
1717858493176534300,6.1355341796875,0.004849882796406746,0.010025203227996826,-0.006060022860765457
1717858493186575000,6.1455751953125,0.003940413240343332,0.00945155881345272,-0.007111172657459974
1717858493196615000,6.155614990234375,0.004757470916956663,0.008678975515067577,-0.006385994143784046
1717858493206656000,6.165656005859375,0.004549744538962841,0.008325573988258839,-0.006292783189564943
1717858493216696000,6.175696044921875,0.004194478504359722,0.009801231324672699,-0.005678658373653889
1717858493226737000,6.18573681640625,0.004363323096185923,0.009573264978826046,-0.006803577765822411
1717858493236778000,6.195778076171875,0.004504204262048006,0.010380735620856285,-0.006166016682982445
1717858493246818000,6.205818115234375,0.0032586439047008753,0.007159376051276922,-0.006889065261930227
1717858493256859100,6.215859130859375,0.004254932515323162,0.008598548360168934,-0.006434197071939707
1717858493266899200,6.225899169921875,0.0037169738207012415,0.008555937558412552,-0.007816910743713379
1717858493276940000,6.23593994140625,0.0036011263728141785,0.00791305024176836,-0.006299973931163549
1717858493286981000,6.245981201171875,0.003079146845266223,0.009808422066271305,-0.005114068277180195
1717858493297021200,6.256021240234375,0.003945473115891218,0.009120794013142586,-0.0059785302728414536
1717858493307062300,6.266062255859375,0.0036248285323381424,0.008549545891582966,-0.005006476305425167
1717858493317102000,6.27610205078125,0.003959321416914463,0.010236125439405441,-0.004599279258400202
1717858493327143200,6.28614306640625,0.004116980824619532,0.012223643250763416,-0.004785700235515833
1717858493337184300,6.296184326171875,0.0038695731200277805,0.010751181282103062,-0.005025917664170265
1717858493347224000,6.30622412109375,0.004929777234792709,0.010059557855129242,-0.0065415226854383945
1717858493357265000,6.316264892578125,0.003370763035491109,0.007522897329181433,-0.006846987176686525
1717858493367305000,6.326304931640625,0.003608316881582141,0.008401207625865936,-0.007214769721031189
1717858493377346000,6.336345947265625,0.005332447588443756,0.008710933849215508,-0.007803594693541527
1717858493387387100,6.34638720703125,0.0027915253303945065,0.009749033488333225,-0.005072789266705513
1717858493397427200,6.35642724609375,0.003721767570823431,0.010393785312771797,-0.0068059745244681835
1717858493407468000,6.366468017578125,0.0037734329234808683,0.007800931576639414,-0.006911701988428831
1717858493417508000,6.376508056640625,0.0036767602432519197,0.007784686051309109,-0.00782729685306549
1717858493427549200,6.386549072265625,0.003940413240343332,0.007501591928303242,-0.00546240946277976
1717858493437590000,6.396590087890625,0.004738562274724245,0.010556504130363464,-0.005218463949859142
1717858493447630000,6.406630126953125,0.0047177900560200214,0.008845156989991665,-0.005694637540727854
1717858493457671200,6.416671142578125,0.003614974906668067,0.008187356404960155,-0.006179066374897957
1717858493467711200,6.426711181640625,0.004219512455165386,0.008215053007006645,-0.006977482233196497
1717858493477752300,6.43675244140625,0.004473578184843063,0.008252870291471481,-0.005130579695105553
1717858493487793200,6.446793212890625,0.0062760054133832455,0.011028416454792023,-0.004262122791260481
1717858493497833000,6.4568330078125,0.003925499506294727,0.009552759118378162,-0.005034173373132944
1717858493507874000,6.4668740234375,0.003363838652148843,0.008698416873812675,-0.0057676080614328384
1717858493517914000,6.4769140625,0.0035542547702789307,0.009611348621547222,-0.006934072356671095
1717858493527955000,6.486954833984375,0.00410473020747304,0.009311743080615997,-0.00628958735615015
1717858493537996000,6.49699609375,0.003581685246899724,0.010173541493713856,-0.004716724622994661
1717858493548036000,6.5070361328125,0.004797950852662325,0.010486196726560593,-0.005793706979602575
1717858493558077200,6.5170771484375,0.004507400095462799,0.008476309478282928,-0.00592606607824564
1717858493568117200,6.5271171875,0.004009122494608164,0.008225439116358757,-0.0059995693154633045
1717858493578158000,6.537157958984375,0.0035180358681827784,0.008931443095207214,-0.0040946099907159805
1717858493588199200,6.54719921875,0.003317499766126275,0.009127452038228512,-0.00546240946277976
1717858493598239200,6.5572392578125,0.004343083128333092,0.010498447343707085,-0.006024869158864021
1717858493608280000,6.567280029296875,0.0035023230593651533,0.007671235594898462,-0.005446430761367083
1717858493618320000,6.57731982421875,0.0035294874105602503,0.00842704065144062,-0.006383863277733326
1717858493628361000,6.58736083984375,0.004748416133224964,0.010152502916753292,-0.006105030421167612
1717858493638402000,6.597402099609375,0.004924184642732143,0.008461927995085716,-0.004905809182673693
1717858493648442000,6.607442138671875,0.0035843485966324806,0.009544769302010536,-0.006362824235111475
1717858493658483000,6.61748291015625,0.003459446132183075,0.009737848304212093,-0.0063785370439291
1717858493668523000,6.62752294921875,0.002508697798475623,0.009728527627885342,-0.00510021997615695
1717858493678564000,6.637564208984375,0.0030312100425362587,0.009603092446923256,-0.005579056218266487
1717858493688605200,6.647605224609375,0.002502838848158717,0.00939083844423294,-0.005915413144975901
1717858493698645000,6.65764501953125,0.0054301852360367775,0.009273659437894821,-0.006808104924857616
1717858493708686000,6.66768603515625,0.003989681601524353,0.009104548953473568,-0.005834453273564577
1717858493718726100,6.67772607421875,0.003891677362844348,0.007355917245149612,-0.005193696822971106
1717858493728767200,6.687767333984375,0.0044256411492824554,0.009199623949825764,-0.006461361423134804
1717858493738808000,6.69780810546875,0.0032716933637857437,0.008563927374780178,-0.005697034299373627
1717858493748848000,6.70784814453125,0.004306863993406296,0.009559416212141514,-0.005273325368762016
1717858493758889200,6.71788916015625,0.0034876756835728884,0.009907757863402367,-0.006941263098269701
1717858493768929000,6.727928955078125,0.0019952403381466866,0.00905634555965662,-0.005250954534858465
1717858493778970000,6.73797021484375,0.003183010034263134,0.00863050576299429,-0.005727660376578569
1717858493789011000,6.748010986328125,0.004756405483931303,0.008272310718894005,-0.0054576159454882145
1717858493799051000,6.758051025390625,0.005057342816144228,0.009561813436448574,-0.005459746345877647
1717858493809092000,6.768092041015625,0.002427471335977316,0.009464342147111893,-0.006656571291387081
1717858493819132200,6.778132080078125,0.0035683694295585155,0.009453688748180866,-0.0049156625755131245
1717858493829173000,6.788173095703125,0.003516171593219042,0.008677910082042217,-0.005564142484217882
1717858493839214000,6.798214111328125,0.0029494508635252714,0.008860869333148003,-0.005105013493448496
1717858493849254100,6.808254150390625,0.0007499461644329131,0.00821105856448412,-0.006539924535900354
1717858493859295200,6.818295166015625,0.0027861990965902805,0.008931443095207214,-0.005882123950868845
1717858493869335300,6.828335205078125,0.005601426586508751,0.009215336292982101,-0.006317817140370607
1717858493879378200,6.838378173828125,0.0032597091048955917,0.008010788820683956,-0.005465338937938213
1717858493889419000,6.8484189453125,0.003879426745697856,0.008772985078394413,-0.00717642018571496
1717858493899459000,6.858458984375,0.0027137610595673323,0.008610266260802746,-0.00466505903750658
1717858493909500200,6.868500244140625,0.002511094557121396,0.00926167517900467,-0.006431800313293934
1717858493919540000,6.8785400390625,0.0028852687682956457,0.01004890538752079,-0.006998254451900721
1717858493929580800,6.888580810546875,0.0019028285751119256,0.008176437579095364,-0.005566272884607315
1717858493939622000,6.898621826171875,0.0043891556560993195,0.009370598942041397,-0.0068184914998710155
1717858493949662000,6.908661865234375,0.0049705239944159985,0.009975668974220753,-0.00478277076035738
1717858493959703000,6.918703125,0.004140949342399836,0.009170595556497574,-0.0065620290115475655
1717858493969743000,6.9287431640625,0.004999552387744188,0.009148490615189075,-0.005948436446487904
1717858493979784000,6.938783935546875,0.0025302693247795105,0.006971622817218304,-0.004500209353864193
1717858493989825000,6.948824951171875,0.0033750240691006184,0.010519219562411308,-0.005884254351258278
1717858493999865000,6.958864990234375,0.005082110408693552,0.009168997406959534,-0.005599562544375658
1717858494009906200,6.96890625,0.00202293717302382,0.008866461925208569,-0.005651760380715132
1717858494019947000,6.978947021484375,0.0039145806804299355,0.008204400539398193,-0.004244545940309763
1717858494029987000,6.988987060546875,0.0041555967181921005,0.009006544016301632,-0.005126585252583027
1717858494040028200,6.999028076171875,0.0041579934768378735,0.009269664995372295,-0.005289836786687374
1717858494050068000,7.00906787109375,0.0033718282356858253,0.00836632028222084,-0.006558034103363752
1717858494060108800,7.01910888671875,0.004774515051394701,0.008758870884776115,-0.006203567609190941
1717858494070150000,7.02914990234375,0.004049869254231453,0.008992163464426994,-0.007026750594377518
1717858494080190000,7.03918994140625,0.004092213232070208,0.008389223366975784,-0.005036836490035057
1717858494090231000,7.04923095703125,0.004169445019215345,0.00968591682612896,-0.006960703991353512
1717858494100271000,7.05927099609375,0.00529596209526062,0.01019857544451952,-0.006400641519576311
1717858494110312000,7.06931201171875,0.002639192622154951,0.008596683852374554,-0.00538544449955225
1717858494120353000,7.07935302734375,0.0017188041238114238,0.008860869333148003,-0.006067479960620403
1717858494130393000,7.08939306640625,0.00373082235455513,0.009041964076459408,-0.004985171370208263
1717858494140434000,7.099433837890625,0.0051806471310555935,0.009702161885797977,-0.0062879896722733974
1717858494150474000,7.109473876953125,0.0054490938782691956,0.008804677054286003,-0.005147357936948538
1717858494160515000,7.11951513671875,0.003169161733239889,0.008322112262248993,-0.005727660376578569
1717858494170556200,7.12955615234375,0.0024527714122086763,0.007977498695254326,-0.006344981025904417
1717858494180596200,7.13959619140625,0.004453870467841625,0.007840879261493683,-0.004839762579649687
1717858494190637000,7.149636962890625,0.00449941074475646,0.009928264655172825,-0.006195844151079655
1717858494200676900,7.1596767578125,0.003436809405684471,0.008821721188724041,-0.0070608388632535934
1717858494210718000,7.169718017578125,0.00427250936627388,0.008096275851130486,-0.005341768264770508
1717858494220759000,7.179759033203125,0.004763862583786249,0.008892561309039593,-0.005104214418679476
1717858494230798800,7.189798828125,0.0046453517861664295,0.00956820510327816,-0.005784918554127216
1717858494240840000,7.19983984375,0.00421471893787384,0.009357549250125885,-0.005532450973987579
1717858494250880000,7.2098798828125,0.003500725142657757,0.0086001455783844,-0.007014499977231026
1717858494260921000,7.219921142578125,0.0044080642983317375,0.009455286897718906,-0.006436061579734087
1717858494270962000,7.2299619140625,0.0032743564806878567,0.009183910675346851,-0.006560697220265865
1717858494281002000,7.240001953125,0.004248807206749916,0.009138903580605984,-0.006192914675921202
1717858494291043000,7.25004296875,0.004518851637840271,0.009848369285464287,-0.004506867378950119
1717858494301083100,7.260083251953125,0.003938282374292612,0.009249424561858177,-0.0064983791671693325
1717858494311124000,7.2701240234375,0.0034298852551728487,0.007859520614147186,-0.006045109126716852
1717858494321165000,7.2801650390625,0.0018458369886502624,0.010121876373887062,-0.004849882796406746
1717858494331205000,7.290205078125,0.002251968951895833,0.010357832536101341,-0.005241101142019033
1717858494341246200,7.30024609375,0.0029790119733661413,0.00917565543204546,-0.006511428859084845
1717858494351286000,7.3102861328125,0.00395772373303771,0.008492288179695606,-0.006601976230740547
1717858494361326800,7.320326904296875,0.004739627707749605,0.008416121825575829,-0.0067662931978702545
1717858494371368000,7.330367919921875,0.002490854589268565,0.010549846105277538,-0.004544151946902275
1717858494381408000,7.340407958984375,0.005316202063113451,0.009754359722137451,-0.006570817437022924
1717858494391449000,7.350448974609375,0.004478638060390949,0.007988950237631798,-0.006130862981081009
1717858494401489000,7.360489013671875,0.005622998345643282,0.009431584738194942,-0.006159092765301466
1717858494411530000,7.370530029296875,0.004012851044535637,0.008469385094940662,-0.006425142288208008
1717858494421571000,7.380571044921875,0.004515123087912798,0.009271794930100441,-0.007398793939501047
1717858494431611100,7.390611083984375,0.003709516953676939,0.008933041244745255,-0.005291434936225414
1717858494441652000,7.40065185546875,0.0029374666046351194,0.008170045912265778,-0.0067750816233456135
1717858494451693000,7.410693115234375,0.00532525684684515,0.009709352627396584,-0.004449076950550079
1717858494461733000,7.420733154296875,0.002353701740503311,0.00811944529414177,-0.00452684098854661
1717858494471774200,7.430774169921875,0.0041366880759596825,0.008137022145092487,-0.00475560687482357
1717858494481814000,7.44081396484375,0.004421379882842302,0.009072057902812958,-0.006020075641572475
1717858494491854800,7.450854736328125,0.003413107246160507,0.0083687175065279,-0.005363073665648699
1717858494501895000,7.46089501953125,0.0026610305067151785,0.01013678964227438,-0.005906891077756882
1717858494511936000,7.47093603515625,0.0029462550301104784,0.00939110480248928,-0.005126052536070347
1717858494521976800,7.480976806640625,0.0033603766933083534,0.010496316477656364,-0.005626726895570755
1717858494532017000,7.491016845703125,0.005804892163723707,0.008343683555722237,-0.006146309431642294
1717858494542058000,7.50105810546875,0.0028847360517829657,0.007925300858914852,-0.005601160228252411
1717858494552099000,7.51109912109375,0.00430286955088377,0.009712282568216324,-0.0046514770947396755
1717858494562139100,7.52113916015625,0.003994741477072239,0.007830225862562656,-0.005268797744065523
1717858494572180000,7.531179931640625,0.005553489550948143,0.008599347434937954,-0.005199822131544352
1717858494582220000,7.541219970703125,0.005029646214097738,0.008989766240119934,-0.005804892163723707
1717858494592261000,7.55126123046875,0.005079447291791439,0.00885021686553955,-0.005839513149112463
1717858494602302000,7.561302001953125,0.00373055599629879,0.01037514302879572,-0.005222192499786615
1717858494612342000,7.571342041015625,0.004891428165137768,0.008319182321429253,-0.006224073935300112
1717858494622383000,7.581383056640625,0.0037819549906998873,0.008069378323853016,-0.006675479467958212
1717858494632423000,7.5914228515625,0.0043862261809408665,0.009495500475168228,-0.005093295592814684
1717858494642464000,7.601464111328125,0.0024458470288664103,0.008871788159012794,-0.004677842371165752
1717858494652504800,7.6115048828125,0.004356665071099997,0.01059085875749588,-0.006897320970892906
1717858494662545000,7.621544921875,0.0049284459091722965,0.010000170208513737,-0.004787298385053873
1717858494672586000,7.6315859375,0.0027316042687743902,0.008587096817791462,-0.004520982038229704
1717858494682626000,7.6416259765625,0.002319879597052932,0.008623049594461918,-0.006580404471606016
1717858494692667000,7.6516669921875,0.0041127195581793785,0.007794539909809828,-0.0065108961425721645
1717858494702708000,7.6617080078125,0.003525492735207081,0.008706405758857727,-0.00663526589050889
1717858494712748000,7.671748046875,0.0036903421860188246,0.009062470868229866,-0.007247260306030512
1717858494722789000,7.6817890625,0.0018210695125162601,0.009047024883329868,-0.006786799523979425
1717858494732829200,7.6918291015625,0.005031243897974491,0.009316003881394863,-0.0060056946240365505
1717858494742870000,7.7018701171875,0.005607818253338337,0.008519185706973076,-0.005547896958887577
1717858494752911000,7.7119111328125,0.00571860559284687,0.009973271749913692,-0.00523604080080986
1717858494762951000,7.721950927734375,0.0037089844699949026,0.009220396168529987,-0.0057351174764335155
1717858494772992000,7.731991943359375,0.0035055188927799463,0.010163688100874424,-0.005923935677856207
1717858494783032000,7.742031982421875,0.0038722362369298935,0.009036371484398842,-0.0046480149030685425
1717858494793073000,7.752072998046875,0.004039749037474394,0.00839668046683073,-0.006594253238290548
1717858494803114000,7.762114013671875,0.0026732811238616705,0.009782856330275536,-0.0054269894026219845
1717858494813154000,7.772154052734375,0.0028280108235776424,0.009954629465937614,-0.006332730874419212
1717858494823195000,7.78219482421875,0.00586614478379488,0.007833688519895077,-0.006025401875376701
1717858494833235000,7.79223486328125,0.0044256411492824554,0.008115983568131924,-0.004771052859723568
1717858494843276000,7.802276123046875,0.003512975759804249,0.009970076382160187,-0.0065404572524130344
1717858494853317000,7.812317138671875,0.0032535837963223457,0.009297627955675125,-0.0032794165890663862
1717858494863357200,7.822357177734375,0.0031678301747888327,0.008332498371601105,-0.005991047248244286
1717858494873397000,7.83239697265625,0.003192597534507513,0.010071275755763054,-0.004818723537027836
1717858494883436800,7.842436767578125,0.004057059530168772,0.009354619309306145,-0.0067686899565160275
1717858494893478000,7.852477783203125,0.003379551460966468,0.008384429849684238,-0.006533266510814428
1717858494903519000,7.86251904296875,0.004551874939352274,0.01082761399447918,-0.004786499310284853
1717858494913559000,7.87255908203125,0.00495054991915822,0.00839801225811243,-0.005948702804744244
1717858494923600000,7.882599853515625,0.0020548950415104628,0.009546367451548576,-0.005253617651760578
1717858494933640000,7.892639892578125,0.004338821861892939,0.010400176979601383,-0.006037918850779533
1717858494943681000,7.902680908203125,0.002228533150628209,0.009289105422794819,-0.004043477587401867
1717858494953722000,7.91272216796875,0.004116714466363192,0.008823585696518421,-0.00520647969096899
1717858494963762000,7.922761962890625,0.0038932752795517445,0.009763681329786777,-0.005816077347844839
1717858494973803000,7.932802978515625,0.0047087352722883224,0.008555937558412552,-0.008404670283198357
1717858494983844000,7.942843994140625,0.004059189930558205,0.0095069520175457,-0.006491188891232014
1717858494993884200,7.95288427734375,0.003940146882086992,0.009974869899451733,-0.0065013086423277855
1717858495003925000,7.962925048828125,0.004590490832924843,0.009409747086465359,-0.005608617328107357
1717858495013965000,7.972965087890625,0.003409378696233034,0.009366603568196297,-0.005936984904110432
1717858495024006100,7.983006103515625,0.0034794199746102095,0.008888832293450832,-0.00570023013278842
1717858495034047200,7.993047119140625,0.00321896281093359,0.009225189685821533,-0.006423011887818575
1717858495044087000,8.003087158203124,0.003328418591991067,0.008584965951740742,-0.0057678744196891785
1717858495054127900,8.0131279296875,0.004502872936427593,0.009064601734280586,-0.006345780100673437
1717858495064168000,8.02316796875,0.0046272422187030315,0.009226787835359573,-0.00777669670060277
1717858495074209000,8.033208984375,0.004086354281753302,0.00836711935698986,-0.006894125137478113
1717858495084249900,8.043249755859375,0.004267981741577387,0.009747701697051525,-0.005275455769151449
1717858495094290000,8.0532900390625,0.005136438645422459,0.007531952112913132,-0.006872020661830902
1717858495104331000,8.0633310546875,0.004730839282274246,0.00932266190648079,-0.005283711478114128
1717858495114371000,8.07337109375,0.0028762139845639467,0.009072856977581978,-0.006893592420965433
1717858495124412200,8.083412109375,0.003576891729608178,0.008727977983653545,-0.0056994310580194
1717858495134453000,8.093452880859376,0.004570250865072012,0.009606288745999336,-0.00629091914743185
1717858495144493000,8.1034931640625,0.004328169394284487,0.008882441557943821,-0.006674148142337799
1717858495154534100,8.1135341796875,0.003975833300501108,0.008723184466362,-0.005022189114242792
1717858495164574000,8.123573974609375,0.00284958234988153,0.00866193138062954,-0.006716758478432894
1717858495174614800,8.13361474609375,0.004522846546024084,0.008684035390615463,-0.005632053129374981
1717858495184656000,8.14365576171875,0.00330258603207767,0.009531453251838684,-0.005843508057296276
1717858495194696000,8.153696044921874,0.003716174978762865,0.009428389370441437,-0.0060267336666584015
1717858495204737000,8.163737060546875,0.005139900837093592,0.008521316573023796,-0.0058094197884202
1717858495214777000,8.173777099609374,0.005746036302298307,0.009008142165839672,-0.006742058787494898
1717858495224818000,8.18381787109375,0.003911118488758802,0.008562861941754818,-0.00538384635001421
1717858495234859000,8.19385888671875,0.0044317664578557014,0.008563394658267498,-0.004816593136638403
1717858495244899000,8.203899169921876,0.0037713022902607918,0.0092307822778821,-0.007527158595621586
1717858495254940200,8.213940185546875,0.0043798345141112804,0.010159160941839218,-0.005089300684630871
1717858495264980000,8.22397998046875,0.004488491453230381,0.009644105099141598,-0.006539125461131334
1717858495275021000,8.23402099609375,0.0032115059439092875,0.009258479811251163,-0.007477357517927885
1717858495285062100,8.244062255859374,0.0031758195254951715,0.011185809038579464,-0.005372661165893078
1717858495295102200,8.254102294921875,0.004131628200411797,0.011351724155247211,-0.004750014282763004
1717858495305143000,8.26414306640625,0.0036935380194336176,0.009494701400399208,-0.005531385540962219
1717858495315182800,8.274182861328125,0.0049468218348920345,0.008894957602024078,-0.006968959700316191
1717858495325224000,8.284223876953124,0.00355904852040112,0.009156214073300362,-0.005853894166648388
1717858495335265000,8.29426513671875,0.002481267089024186,0.00871945545077324,-0.007306116167455912
1717858495345305000,8.30430517578125,0.0031941954512149096,0.009801764041185379,-0.004317250568419695
1717858495355346000,8.314345947265625,0.003310841741040349,0.009339706040918827,-0.005380916874855757
1717858495365387000,8.324386962890625,0.002825613832101226,0.008828112855553627,-0.006976150441914797
1717858495375427000,8.334427001953125,0.002798982197418809,0.008874718099832535,-0.005496498197317123
1717858495385468000,8.344468017578125,0.0036993969697505236,0.00953784491866827,-0.005620601586997509
1717858495395508000,8.354508056640626,0.002971555106341839,0.008391886949539185,-0.007511445786803961
1717858495405549000,8.364549072265625,0.0040796962566673756,0.009188438765704632,-0.005754292011260986
1717858495415590100,8.374590087890626,0.006297843065112829,0.007611047942191362,-0.0046610645949840546
1717858495425630200,8.384630126953125,0.004381699021905661,0.009953564032912254,-0.00640783179551363
1717858495435671000,8.394671142578124,0.0026117621455341578,0.008945558220148087,-0.006382531952112913
1717858495445710800,8.4047109375,0.00466532539576292,0.010328005068004131,-0.005799832288175821
1717858495455752000,8.414751953125,0.004701278172433376,0.009817743673920631,-0.0059969061985611916
1717858495465793000,8.42479296875,0.0036637107841670513,0.009369533509016037,-0.00627094553783536
1717858495475832800,8.434832763671874,0.003811782458797097,0.010446515865623951,-0.005043494515120983
1717858495485874000,8.4448740234375,0.003285009181126952,0.008650746196508408,-0.005379851907491684
1717858495495914000,8.4549140625,0.002424808219075203,0.00887684803456068,-0.006332198157906532
1717858495505955000,8.464955078125,0.004457332659512758,0.009752229787409306,-0.0062853265553712845
1717858495515996000,8.474995849609375,0.0028996497858315706,0.007668572477996349,-0.006387325469404459
1717858495526036000,8.485035888671876,0.004357197787612677,0.009379120543599129,-0.006124471314251423
1717858495536077000,8.4950771484375,0.004743089899420738,0.008481635712087154,-0.005769738461822271
1717858495546117000,8.5051171875,0.00484269205480814,0.008551943115890026,-0.00592420157045126
1717858495556158000,8.515157958984375,0.002947586588561535,0.007931692525744438,-0.0064951833337545395
1717858495566199000,8.525198974609374,0.004238154739141464,0.008450742810964584,-0.0057260626927018166
1717858495576239000,8.535239013671875,0.0026847326662391424,0.010409764014184475,-0.005592904519289732
1717858495586280200,8.5452802734375,0.0029997846577316523,0.009148756973445415,-0.004451740067452192
1717858495596320000,8.555320068359375,0.003582484321668744,0.009967146441340446,-0.006984672509133816
1717858495606360800,8.56536083984375,0.003907656297087669,0.010134393349289894,-0.00544323492795229
1717858495616402000,8.57540185546875,0.003531351685523987,0.008382299914956093,-0.004054662771522999
1717858495626442000,8.58544189453125,0.003862382611259818,0.009821205399930477,-0.005368399899452925
1717858495636483000,8.595483154296875,0.003242398612201214,0.008797752670943737,-0.005893309134989977
1717858495646523000,8.60552294921875,0.0026200178544968367,0.009238239377737045,-0.005660282447934151
1717858495656564000,8.61556396484375,0.0038282941095530987,0.010102967731654644,-0.005584116093814373
1717858495666605000,8.62560498046875,0.003674629610031843,0.009608685038983822,-0.00717642018571496
1717858495676645000,8.63564501953125,0.003564641112461686,0.008637962862849236,-0.005850432440638542
1717858495686686000,8.64568603515625,0.005118595436215401,0.009783121757209301,-0.0041521345265209675
1717858495696727000,8.65572705078125,0.004741758108139038,0.009220396168529987,-0.006376673001796007
1717858495706767000,8.66576708984375,0.004334561061114073,0.010261692106723785,-0.0044048684649169445
1717858495716808200,8.67580810546875,0.0029856697656214237,0.009241435676813126,-0.005780923645943403
1717858495726848000,8.685847900390625,0.002379534300416708,0.009236108511686325,-0.0057401773519814014
1717858495736889000,8.69588916015625,0.00344506511464715,0.008528773672878742,-0.005903961602598429
1717858495746930200,8.70593017578125,0.0034133736044168472,0.00911280419677496,-0.005833387840539217
1717858495756970000,8.715969970703124,0.004471980035305023,0.008892294950783253,-0.005234709475189447
1717858495767010800,8.7260107421875,0.003531351685523987,0.009189769625663757,-0.006669354159384966
1717858495777051000,8.73605078125,0.002703641075640917,0.00788721814751625,-0.007099188398569822
1717858495787092000,8.746092041015626,0.002900714986026287,0.009845173917710781,-0.004552141297608614
1717858495797133000,8.756133056640625,0.004267981741577387,0.008143680170178413,-0.005637113004922867
1717858495807173000,8.766173095703126,0.003960120491683483,0.009486446157097816,-0.0054421694949269295
1717858495817214000,8.7762138671875,0.003108441596850753,0.008125037886202335,-0.0065681543201208115
1717858495827254000,8.78625390625,0.004506601020693779,0.008219047449529171,-0.005133775528520346
1717858495837295000,8.796295166015625,0.003875964554026723,0.010114951990544796,-0.0057068876922130585
1717858495847336000,8.8063359375,0.003852795111015439,0.008402539417147636,-0.004869590047746897
1717858495857376000,8.8163759765625,0.0024615598376840353,0.00885021686553955,-0.005930859595537186
1717858495867417000,8.8264169921875,0.00443842401728034,0.009592439979314804,-0.005973470397293568
1717858495877456600,8.83645654296875,0.0029952572658658028,0.009148756973445415,-0.005495965480804443
1717858495887497700,8.846497802734374,0.004171042703092098,0.007779892534017563,-0.006853911560028791
1717858495897538600,8.85653857421875,0.003858121344819665,0.009427856653928757,-0.005967345088720322
1717858495907578600,8.86657861328125,0.002776079112663865,0.01004997082054615,-0.004969724919646978
1717858495917619700,8.87661962890625,0.003971838392317295,0.009501892141997814,-0.0062818643637001514
1717858495927659500,8.886659423828124,0.0022650184109807014,0.00917245913296938,-0.005886384751647711
1717858495937700600,8.89670068359375,0.0035393410362303257,0.008145011961460114,-0.005286374595016241
1717858495947741400,8.906741455078125,0.004822984803467989,0.009553823620080948,-0.006863232236355543
1717858495957781500,8.916781494140626,0.0035273567773401737,0.008865929208695889,-0.006582002621144056
1717858495967822600,8.926822509765625,0.0030509172938764095,0.008924518711864948,-0.007169762160629034
1717858495977862700,8.936862548828126,0.0046213832683861256,0.009061139076948166,-0.005785451270639896
1717858495987903500,8.946903564453125,0.003982224967330694,0.009129582904279232,-0.005533515941351652
1717858495997944600,8.956944580078124,0.004620318301022053,0.009615076705813408,-0.005932990461587906
1717858496007984600,8.966984619140625,0.0037830201908946037,0.009435047395527363,-0.005970008205622435
1717858496018025700,8.977025634765624,0.0033244239166378975,0.008865396492183208,-0.005825931206345558
1717858496028065800,8.987065673828125,0.0036016590893268585,0.009193232282996178,-0.005688245873898268
1717858496038106600,8.997106689453124,0.003061303636059165,0.009653426706790924,-0.004899683874100447
1717858496048147700,9.007147705078125,0.003912449814379215,0.008799617178738117,-0.00498197553679347
1717858496058187500,9.0171875,0.0028724854346364737,0.008226770907640457,-0.006391586735844612
1717858496068228600,9.027228515625,0.00481393001973629,0.008196677081286907,-0.005364139098674059
1717858496078269400,9.03726953125,0.0035063179675489664,0.008432366885244846,-0.00586641114205122
1717858496088309500,9.0473095703125,0.004523645620793104,0.007874168455600739,-0.006582801695913076
1717858496098350600,9.0573505859375,0.004448544234037399,0.00933011807501316,-0.00577719509601593
1717858496108390700,9.067390625,0.0035276231355965137,0.009178318083286285,-0.005080512259155512
1717858496118431500,9.077431396484375,0.0032205607276409864,0.009975935332477093,-0.006518353242427111
1717858496128472600,9.08747265625,0.003950799349695444,0.008158859796822071,-0.006724481470882893
1717858496138512600,9.0975126953125,0.004467719234526157,0.009747968055307865,-0.0049225869588553905
1717858496148553700,9.1075537109375,0.005514075048267841,0.009155414998531342,-0.005665875039994717
1717858496158593500,9.117593505859375,0.0029859361238777637,0.010247045196592808,-0.005560946650803089
1717858496168634600,9.127634521484374,0.003079146845266223,0.009515208192169666,-0.006192381959408522
1717858496178675700,9.13767578125,0.0031989889685064554,0.00914609432220459,-0.005579588934779167
1717858496188715800,9.1477158203125,0.003964914008975029,0.009346097707748413,-0.005193963181227446
1717858496198756600,9.157756591796876,0.00421205535531044,0.009282714687287807,-0.006067479960620403
1717858496208796400,9.16779638671875,0.004150270018726587,0.008948753587901592,-0.0054243262857198715
1717858496218837500,9.17783740234375,0.0030746194534003735,0.008295480161905289,-0.006127400789409876
1717858496228878600,9.187878662109375,0.005012335255742073,0.011937086470425129,-0.005528456065803766
1717858496238918700,9.197918701171876,0.005378786474466324,0.011245996691286564,-0.006423810962587595
1717858496248959500,9.20795947265625,0.004735366906970739,0.008851815015077591,-0.006100769154727459
1717858496258999600,9.21799951171875,0.005116465035825968,0.009150621481239796,-0.005718073341995478
1717858496269040600,9.22804052734375,0.004807271994650364,0.00777536490932107,-0.00694871973246336
1717858496279081500,9.23808154296875,0.003638144349679351,0.007759119849652052,-0.006286125164479017
1717858496289121500,9.24812158203125,0.003453587181866169,0.009620669297873974,-0.005877596326172352
1717858496299162600,9.25816259765625,0.004026965703815222,0.010673150420188904,-0.005125786177814007
1717858496309202700,9.26820263671875,0.004218447022140026,0.009966880083084106,-0.005222458858042955
1717858496319243800,9.278243896484375,0.004268514458090067,0.009758088737726212,-0.006082393694669008
1717858496329284600,9.28828466796875,0.0030567762441933155,0.00851226132363081,-0.007078948430716991
1717858496339324700,9.29832470703125,0.003993942867964506,0.00984277669340372,-0.005488774739205837
1717858496349365800,9.30836572265625,0.004569451790302992,0.009242766536772251,-0.005241899751126766
1717858496359406600,9.318406494140625,0.0035278894938528538,0.009021990932524204,-0.006082393694669008
1717858496369446400,9.3284462890625,0.0025478461757302284,0.00797057431191206,-0.00646828580647707
1717858496379487500,9.338487548828125,0.0030146983917802572,0.009614011272788048,-0.005712214391678572
1717858496389527600,9.348527587890626,0.0037561224307864904,0.009483516216278076,-0.005315136630088091
1717858496399568600,9.358568603515625,0.0041060615330934525,0.009399360977113247,-0.005570800509303808
1717858496409609500,9.368609375,0.004117779433727264,0.011269166134297848,-0.006309028714895248
1717858496419649500,9.3786494140625,0.0037894118577241898,0.008507467806339264,-0.005635781679302454
1717858496429690600,9.388690673828124,0.0049281795509159565,0.009108010679483414,-0.006970557849854231
1717858496439730700,9.398730712890625,0.0044141896069049835,0.008980179205536842,-0.005215534474700689
1717858496449771500,9.408771484375,0.004001932218670845,0.009591907262802124,-0.006030461750924587
1717858496459812600,9.4188125,0.005089833401143551,0.008754076436161995,-0.006165750324726105
1717858496469852700,9.428852783203125,0.0054424358531832695,0.008894159458577633,-0.005792375188320875
1717858496479893800,9.438893798828126,0.0052142031490802765,0.010308563709259033,-0.006001166999340057
1717858496489933600,9.44893359375,0.004006459377706051,0.009077916853129864,-0.0051843756809830666
1717858496499974400,9.458974365234376,0.0032501218374818563,0.008555937558412552,-0.005811283830553293
1717858496510015500,9.469015380859375,0.00384453940205276,0.009615076705813408,-0.006126069463789463
1717858496520055600,9.4790556640625,0.003925765864551067,0.008610266260802746,-0.005608617328107357
1717858496530096600,9.4890966796875,0.0018700717482715845,0.009690177626907825,-0.005579322576522827
1717858496540136400,9.499136474609376,0.003498328384011984,0.009580988436937332,-0.006734068971127272
1717858496550177500,9.509177490234375,0.0052232579328119755,0.009237440302968025,-0.006071208510547876
1717858496560218600,9.519218505859374,0.003908987622708082,0.008284827694296837,-0.005634716246277094
1717858496570258700,9.5292587890625,0.0046448190696537495,0.009126386605203152,-0.006413158029317856
1717858496580299500,9.539299560546874,0.004085821565240622,0.008699748665094376,-0.0042733084410429
1717858496590339600,9.549339599609375,0.003356115659698844,0.009503490291535854,-0.007217965554445982
1717858496600380700,9.559380615234375,0.0005896238726563752,0.009107744321227074,-0.006232063286006451
1717858496610421800,9.569421875,0.002639458980411291,0.009243831969797611,-0.006041114684194326
1717858496620461800,9.5794619140625,0.003933222498744726,0.00791251752525568,-0.0059257997199893
1717858496630502700,9.589502685546876,0.004372910596430302,0.009492305107414722,-0.005563077051192522
1717858496640543700,9.599543701171875,0.004596083424985409,0.00908803753554821,-0.006065881811082363
1717858496650583600,9.60958349609375,0.004803277086466551,0.009936253540217876,-0.004941495135426521
1717858496660624400,9.619624267578125,0.004238154739141464,0.008400142192840576,-0.006395048461854458
1717858496670664400,9.62966455078125,0.004462126176804304,0.00743208359926939,-0.006416620220988989
1717858496680705500,9.63970556640625,0.0026546388398855925,0.008447546511888504,-0.00637960247695446
1717858496690746600,9.64974658203125,0.003117762738838792,0.009243831969797611,-0.0073138391599059105
1717858496700786700,9.65978662109375,0.005016063805669546,0.009874468669295311,-0.006186789367347956
1717858496710827500,9.66982763671875,0.003739610780030489,0.008981244638562202,-0.006915962789207697
1717858496720867600,9.67986767578125,0.004232029430568218,0.008934106677770615,-0.006445382256060839
1717858496730908700,9.68990869140625,0.0049409628845751286,0.010013218969106674,-0.005311674904078245
1717858496740949500,9.699949462890626,0.0032503881957381964,0.010369284078478813,-0.0054570832289755344
1717858496750989600,9.709989501953125,0.00398648576810956,0.009032643400132656,-0.00583818182349205
1717858496761030700,9.72003076171875,0.002481799805536866,0.007927964441478252,-0.005382248666137457
1717858496771070500,9.730070556640625,0.0046666571870446205,0.009593771770596504,-0.006537261418998241
1717858496781111800,9.74011181640625,0.003501257859170437,0.009259810671210289,-0.004211256746202707
1717858496791152600,9.750152587890625,0.0027020431589335203,0.008170312270522118,-0.005400358233600855
1717858496801192400,9.7601923828125,0.0031619712244719267,0.009008142165839672,-0.0059870523400604725
1717858496811233500,9.770233642578125,0.005361475981771946,0.008729309774935246,-0.0068155620247125626
1717858496821274600,9.780274658203124,0.004297809209674597,0.00953917670994997,-0.005790777504444122
1717858496831314700,9.790314697265625,0.0037729002069681883,0.008699215948581696,-0.0062368568032979965
1717858496841355500,9.80035546875,0.003008306724950671,0.009187906049191952,-0.005101817660033703
1717858496851395600,9.8103955078125,0.005885319784283638,0.008404936641454697,-0.005587844643741846
1717858496861436700,9.820436767578125,0.004837365821003914,0.00824008695781231,-0.006447246763855219
1717858496871477500,9.8304775390625,0.0033396040089428425,0.010803379118442535,-0.004531368613243103
1717858496881517600,9.840517578125,0.004065581597387791,0.01013971958309412,-0.005203816574066877
1717858496891558700,9.85055859375,0.003543335711583495,0.0089953588321805,-0.006156163290143013
1717858496901598700,9.8605986328125,0.004098871257156134,0.009296828880906105,-0.004698082339018583
1717858496911639800,9.870639892578126,0.003629888640716672,0.009958358481526375,-0.006312224548310041
1717858496921680600,9.8806806640625,0.004190217703580856,0.010174074210226536,-0.005243497900664806
1717858496931720700,9.890720703125,0.004025900736451149,0.00872025452554226,-0.006619819439947605
1717858496941761800,9.90076171875,0.005446430761367083,0.009065399877727032,-0.006296245381236076
1717858496951801900,9.9108017578125,0.004005128052085638,0.00933065079152584,-0.0064954496920108795
1717858496961842700,9.9208427734375,0.004426706116646528,0.009102950803935528,-0.004505536053329706
1717858496971883800,9.9308837890625,0.004733236040920019,0.009871006943285465,-0.007122624199837446
1717858496981923800,9.940923828125,0.004541222471743822,0.009475527331233025,-0.007399859372526407
1717858496991965000,9.95096484375,0.0028458540327847004,0.00806298665702343,-0.006592122372239828
1717858497002004700,9.961004638671875,0.003787015099078417,0.009412676095962524,-0.006729275453835726
1717858497012045600,9.971045654296875,0.004446413833647966,0.008796154521405697,-0.006777478381991386
1717858497022086700,9.981086669921876,0.00256409146822989,0.008612129837274551,-0.006933273747563362
1717858497032126700,9.991126708984375,0.005215002223849297,0.008025702089071274,-0.006593187805265188
1717858497042167600,10.00116748046875,0.004839229863137007,0.010326406918466091,-0.005785184912383556
1717858497052207600,10.01120751953125,0.003772634081542492,0.009197759442031384,-0.00583764910697937
1717858497062248700,10.021248779296876,0.00526746641844511,0.009695770218968391,-0.006439789664000273
1717858497072289800,10.031289794921875,0.004214984830468893,0.007989216595888138,-0.006539125461131334
1717858497082329900,10.041329833984374,0.004742823541164398,0.009470467455685139,-0.005344165489077568
1717858497092370700,10.05137060546875,0.0032948628067970276,0.009296296164393425,-0.0049404301680624485
1717858497102411800,10.061411865234374,0.004023503512144089,0.009818541817367077,-0.005796636454761028
1717858497112451800,10.071451904296875,0.0036253612488508224,0.010817760601639748,-0.005156146362423897
1717858497122492700,10.08149267578125,0.0033571808598935604,0.008529571816325188,-0.005548163317143917
1717858497132532700,10.09153271484375,0.004294879734516144,0.010913367383182049,-0.0054541537538170815
1717858497142573800,10.10157373046875,0.0033393376506865025,0.009968744590878487,-0.00654525076970458
1717858497152615000,10.111614990234376,0.004340153653174639,0.009197759442031384,-0.006996923126280308
1717858497162654700,10.12165478515625,0.0023853934835642576,0.008759669028222561,-0.005519401282072067
1717858497172695600,10.131695556640626,0.004342284053564072,0.009099222719669342,-0.00472577940672636
1717858497182735600,10.141735595703125,0.0034589136485010386,0.010002832859754562,-0.006228334736078978
1717858497192776700,10.151776611328126,0.004095409065485001,0.010182863101363182,-0.006469617132097483
1717858497202817800,10.16181787109375,0.005599296186119318,0.009336509741842747,-0.006403836887329817
1717858497212857600,10.171857666015624,0.004670652095228434,0.012400210835039616,-0.004999019671231508
1717858497222898700,10.181898681640625,0.004592887591570616,0.00999297946691513,-0.005891445092856884
1717858497232938800,10.191938720703124,0.004728708881884813,0.008472314104437828,-0.005882656667381525
1717858497242979800,10.201979736328125,0.005373992491513491,0.008595618419349194,-0.005283445119857788
1717858497253020700,10.212020751953125,0.004042412154376507,0.008678709156811237,-0.0062728095799684525
1717858497263060700,10.222060791015625,0.004496481269598007,0.010060623288154602,-0.0065314024686813354
1717858497273101800,10.232101806640625,0.0031340080313384533,0.01031708624213934,-0.005915945861488581
1717858497283141600,10.2421416015625,0.0033310819417238235,0.008888034150004387,-0.005490106530487537
1717858497293182700,10.2521826171875,0.003102316288277507,0.010025203227996826,-0.007004379760473967
1717858497303223600,10.2622236328125,0.005160673521459103,0.009398828260600567,-0.00660384027287364
1717858497313263600,10.272263671875,0.0028301412239670753,0.010213488712906837,-0.005915679503232241
1717858497323304700,10.2823046875,0.0032266860362142324,0.008504538796842098,-0.006125004030764103
1717858497333345500,10.292345458984375,0.0033569145016372204,0.00935941282659769,-0.0062821307219564915
1717858497343385600,10.302385498046876,0.0036461339332163334,0.008669122122228146,-0.006396646611392498
1717858497353426700,10.3124267578125,0.0046272422187030315,0.008224107325077057,-0.007050985470414162
1717858497363466800,10.322466796875,0.0035297537688165903,0.007800665218383074,-0.006413158029317856
1717858497373507800,10.3325078125,0.004523645620793104,0.00948218535631895,-0.005616073962301016
1717858497383548700,10.342548583984374,0.004004595335572958,0.008283762261271477,-0.0054610781371593475
1717858497393588700,10.352588623046875,0.0027031085919588804,0.009211874566972256,-0.004995291121304035
1717858497403629800,10.3626298828125,0.00526773277670145,0.008568188175559044,-0.008357798680663109
1717858497413670000,10.372669921875,0.0031041805632412434,0.010521084070205688,-0.006344981025904417
1717858497423710700,10.382710693359375,0.003084473079070449,0.008854211308062077,-0.00615163566544652
1717858497433751800,10.392751708984376,0.004252535756677389,0.008695753291249275,-0.006175337824970484
1717858497443791600,10.40279150390625,0.004467719234526157,0.009267534129321575,-0.005751362536102533
1717858497453832700,10.412832763671876,0.004424309358000755,0.009251555427908897,-0.005806223955005407
1717858497463872800,10.422872802734375,0.002868490759283304,0.0075689698569476604,-0.006578007712960243
1717858497473913600,10.43291357421875,0.004496747627854347,0.009884322062134743,-0.006627542432397604
1717858497483954700,10.44295458984375,0.0026437200140208006,0.008798285387456417,-0.004563859198242426
1717858497493994800,10.452994873046874,0.00487251952290535,0.009282980114221573,-0.005082909017801285
1717858497504035600,10.46303564453125,0.004487160127609968,0.00957006961107254,-0.006880010478198528
1717858497514075600,10.47307568359375,0.002814695006236434,0.009313340298831463,-0.007035272661596537
1717858497524116700,10.48311669921875,0.006159092765301466,0.00803129468113184,-0.006160690449178219
1717858497534157800,10.49315771484375,0.004013916477560997,0.01010696217417717,-0.006108492612838745
1717858497544198000,10.503197998046875,0.00336170825175941,0.008813997730612755,-0.005649629980325699
1717858497554238700,10.51323876953125,0.0034325483720749617,0.009139969013631344,-0.005027515348047018
1717858497564278800,10.52327880859375,0.003433080855756998,0.009320264682173729,-0.007751929108053446
1717858497574319900,10.53331982421875,0.00395825644955039,0.008869924582540989,-0.005900765769183636
1717858497584361000,10.54336083984375,0.0031550468411296606,0.009473929181694984,-0.004735632799565792
1717858497594400800,10.55340087890625,0.0033574472181499004,0.008594286628067493,-0.004862132947891951
1717858497604441600,10.563441650390626,0.004848284646868706,0.008363923989236355,-0.0057196710258722305
1717858497614482700,10.573482666015625,0.00427250936627388,0.009005213156342506,-0.005330583080649376
1717858497624522800,10.583522705078124,0.0046789078041911125,0.009457684122025967,-0.004756938200443983
1717858497634563600,10.5935634765625,0.003719104453921318,0.00953944306820631,-0.005775064695626497
1717858497644603600,10.603603759765624,0.004577441141009331,0.010202303528785706,-0.0059420447796583176
1717858497654644700,10.613644775390625,0.0030059099663048983,0.007969243451952934,-0.007106112781912088
1717858497664685800,10.623685791015625,0.003916711080819368,0.009483782574534416,-0.005164402071386576
1717858497674726000,10.633725830078125,0.003352120751515031,0.009822004474699497,-0.005360676907002926
1717858497684766700,10.6437666015625,0.0018032263033092022,0.010430269874632359,-0.006759102921932936
1717858497694806800,10.653806884765626,0.00487145408987999,0.007567638531327248,-0.005662945564836264
1717858497704848000,10.663847900390625,0.002703907433897257,0.009219330735504627,-0.005380384158343077
1717858497714888700,10.673888671875,0.004991562571376562,0.009176986292004585,-0.004771585576236248
1717858497724928500,10.683928466796875,0.0038626487366855145,0.009800964966416359,-0.004782504867762327
1717858497734969600,10.693969482421876,0.004770254250615835,0.00905474741011858,-0.00595642626285553
1717858497745009700,10.704009765625,0.0019526296528056264,0.008897088468074799,-0.00666535971686244
1717858497755050800,10.71405078125,0.0031672974582761526,0.008876049891114235,-0.00637933611869812
1717858497765091600,10.724091552734375,0.004342017695307732,0.010354902595281601,-0.005906092468649149
1717858497775131600,10.734131591796874,0.004444815684109926,0.00872265174984932,-0.006327404174953699
1717858497785172700,10.7441728515625,0.0036064526066184044,0.008729043416678905,-0.0057593523524701595
1717858497795212800,10.754212890625,0.0049156625755131245,0.008585498668253422,-0.004667456261813641
1717858497805253600,10.764253662109375,0.005081044975668192,0.009914682246744633,-0.004736431874334812
1717858497815294700,10.774294677734375,0.00487172044813633,0.009501625783741474,-0.005682386923581362
1717858497825334800,10.784334716796875,0.0038059235084801912,0.00933118350803852,-0.0049766493029892445
1717858497835375900,10.7943759765625,0.005225654691457748,0.010523481294512749,-0.006554571911692619
1717858497845416700,10.804416748046876,0.00313001312315464,0.00821052584797144,-0.006826480850577354
1717858497855456800,10.814456787109375,0.0028823392931371927,0.009049421176314354,-0.006194246467202902
1717858497865497900,10.824497802734374,0.0036133769899606705,0.010043845511972904,-0.004576376173645258
1717858497875537400,10.834537353515625,0.004573446698486805,0.009335977025330067,-0.005474926438182592
1717858497885578500,10.84457861328125,0.003567304229363799,0.008057394064962864,-0.006055495701730251
1717858497895619300,10.854619384765625,0.0036019254475831985,0.009905894286930561,-0.007150054909288883
1717858497905659400,10.864659423828124,0.0055228634737432,0.008882973343133926,-0.005840578582137823
1717858497915700500,10.874700439453125,0.004451473709195852,0.009316802956163883,-0.006113019771873951
1717858497925740300,10.884740234375,0.005721535068005323,0.008594819344580173,-0.006200638134032488
1717858497935781000,10.894781005859375,0.0027747475542128086,0.008588960394263268,-0.005456284619867802
1717858497945822200,10.904822265625,0.0041127195581793785,0.0092321140691638,-0.006189186125993729
1717858497955862300,10.9148623046875,0.00418302696198225,0.00989444274455309,-0.006076534744352102
1717858497965903400,10.9249033203125,0.0038365498185157776,0.008500277064740658,-0.006458698306232691
1717858497975943400,10.934943359375,0.0034727619495242834,0.009284045547246933,-0.0068027786910533905
1717858497985984300,10.944984375,0.003865045728161931,0.007485346868634224,-0.004996356554329395
1717858497996025300,10.955025390625,0.003917776048183441,0.009049421176314354,-0.005792108830064535
1717858498006065400,10.9650654296875,0.003546531544998288,0.007788680959492922,-0.006198773626238108
1717858498016106200,10.975106201171876,0.002855441300198436,0.00820839498192072,-0.006441121455281973
1717858498026146300,10.985146240234375,0.00384400668554008,0.009580722078680992,-0.0059716058894991875
1717858498036187400,10.9951875,0.004637628793716431,0.00971547793596983,-0.006175870541483164
1717858498046228500,11.005228515625,0.004713262431323528,0.009571400471031666,-0.005053614266216755
1717858498056268500,11.0152685546875,0.004187554586678743,0.00980629213154316,-0.006162554491311312
1717858498066309400,11.025309326171875,0.005453355144709349,0.009356217458844185,-0.0043532028794288635
1717858498076350500,11.0353505859375,0.004948153160512447,0.008332764729857445,-0.00558198569342494
1717858498086390300,11.045390380859375,0.002414954360574484,0.009138637222349644,-0.006660565733909607
1717858498096431400,11.055431396484375,0.005410211626440287,0.008154598996043205,-0.004350007511675358
1717858498106471400,11.065471435546876,0.0034996599424630404,0.009327988140285015,-0.0046211169101297855
1717858498116512300,11.07551220703125,0.00373002327978611,0.008608135394752026,-0.005636846646666527
1717858498126553300,11.08555322265625,0.0028820729348808527,0.01004890538752079,-0.005934854503720999
1717858498136593400,11.095593505859375,0.0039012646302580833,0.00902625173330307,-0.006476008798927069
1717858498146634200,11.10563427734375,0.004057059530168772,0.007930627092719078,-0.006421946454793215
1717858498156674300,11.11567431640625,0.0032631712965667248,0.009178850799798965,-0.0062760054133832455
1717858498166715400,11.12571533203125,0.003066629869863391,0.009749566204845905,-0.006764162797480822
1717858498176756500,11.135756591796875,0.002986735198646784,0.010014284402132034,-0.007645136676728725
1717858498186796500,11.145796630859374,0.004061054438352585,0.009909622371196747,-0.00566986994817853
1717858498196837400,11.15583740234375,0.0041705104522407055,0.00920281931757927,-0.006360161118209362
1717858498206877200,11.165877197265624,0.004490355961024761,0.010616425424814224,-0.0017837852938100696
1717858498216918300,11.175918212890625,0.004479437135159969,0.012060657143592834,-0.005820338614284992
1717858498226959400,11.18595947265625,0.0035808864049613476,0.010411628521978855,-0.006332198157906532
1717858498236999200,11.195999267578125,0.004334294702857733,0.007523696403950453,-0.00663446681573987
1717858498247040300,11.206040283203125,0.004296744242310524,0.006811034400016069,-0.005449626594781876
1717858498257080300,11.216080322265626,0.004714061506092548,0.009282181970775127,-0.005359877832233906
1717858498267121400,11.226121337890625,0.004485828336328268,0.00965928565710783,-0.004807005636394024
1717858498277162200,11.236162353515626,0.004203533288091421,0.008668056689202785,-0.007107976824045181
1717858498287202300,11.246202392578125,0.004067446105182171,0.007110107224434614,-0.007392136380076408
1717858498297243400,11.256243408203124,0.0034194989129900932,0.007388141471892595,-0.007337008602917194
1717858498307284500,11.266284423828125,0.004047738388180733,0.008176703006029129,-0.005440838169306517
1717858498317324300,11.27632421875,0.003970772959291935,0.008816394954919815,-0.004906075540930033
1717858498327365400,11.286365478515625,0.003230147995054722,0.009633985348045826,-0.006175337824970484
1717858498337405400,11.296405517578124,0.004723116289824247,0.010094179771840572,-0.006198507267981768
1717858498347446500,11.306446533203125,0.0032591766212135553,0.008711466565728188,-0.005919141694903374
1717858498357487400,11.3164873046875,0.0035920715890824795,0.008345015347003937,-0.005795571021735668
1717858498367527200,11.326527099609375,0.004436826333403587,0.00862970668822527,-0.004509796854108572
1717858498377568300,11.336568359375,0.003620034782215953,0.008270712569355965,-0.004670385736972094
1717858498387608300,11.3466083984375,0.0022921827621757984,0.008142082020640373,-0.005252552684396505
1717858498397649400,11.3566494140625,0.005986253265291452,0.009337308816611767,-0.005816077347844839
1717858498407690200,11.366690185546876,0.005948702804744244,0.009472597390413284,-0.004628307651728392
1717858498417730300,11.376730224609375,0.00487278588116169,0.00857378076761961,-0.005900233518332243
1717858498427771400,11.386771484375,0.004022971261292696,0.009484848007559776,-0.007535147946327925
1717858498437811500,11.3968115234375,0.004590757191181183,0.008928780443966389,-0.004501008428633213
1717858498447852300,11.406852294921874,0.004597947467118502,0.00905794370919466,-0.006486927624791861
1717858498457893400,11.416893310546875,0.0018093516118824482,0.009121859446167946,-0.005830724723637104
1717858498467933400,11.426933349609374,0.003492735791951418,0.009985788725316525,-0.0052413675002753735
1717858498477974500,11.436974609375,0.0037063213530927896,0.009287774562835693,-0.005392634775489569
1717858498488014300,11.447014404296874,0.003995806910097599,0.009216135367751122,-0.005796370096504688
1717858498498055400,11.457055419921875,0.0034466630313545465,0.008506402373313904,-0.004406998865306377
1717858498508096500,11.467096435546875,0.004447212442755699,0.009889648295938969,-0.0071127708069980145
1717858498518136300,11.47713623046875,0.003817641409114003,0.009739979170262814,-0.006967894732952118
1717858498528177200,11.48717724609375,0.004169445019215345,0.008258196525275707,-0.006514891050755978
1717858498538218200,11.49721826171875,0.004333229269832373,0.008707204833626747,-0.007172957994043827
1717858498548258300,11.50725830078125,0.003885818412527442,0.010453440248966217,-0.005993976723402739
1717858498558299400,11.51729931640625,0.005547630600631237,0.008402805775403976,-0.00698041170835495
1717858498568339500,11.52733935546875,0.004286091309040785,0.009758887812495232,-0.005332979839295149
1717858498578380300,11.53738037109375,0.003549993736669421,0.009840646758675575,-0.006137521006166935
1717858498588421400,11.54742138671875,0.005281314719468355,0.00933118350803852,-0.00538544449955225
1717858498598461400,11.55746142578125,0.0041609229519963264,0.008861934766173363,-0.007708519697189331
1717858498608502300,11.567502197265625,0.004713262431323528,0.0079708406701684,-0.0062187472358345985
1717858498618542300,11.577542236328124,0.004201669245958328,0.00999218039214611,-0.00549223693087697
1717858498628583400,11.58758349609375,0.0027214842848479748,0.010248109698295593,-0.006924218963831663
1717858498638624500,11.59762451171875,0.003084739437326789,0.009681922383606434,-0.004941495135426521
1717858498648664300,11.607664306640626,0.0033212280832231045,0.009210010059177876,-0.005848301574587822
1717858498658705200,11.617705078125,0.003261040663346648,0.010548247955739498,-0.004890096373856068
1717858498668745200,11.6277451171875,0.0034352114889770746,0.008253934793174267,-0.005425125360488892
1717858498678786300,11.637786376953125,0.003573695896193385,0.008374043740332127,-0.005446697119623423
1717858498688827400,11.647827392578124,0.003296727081760764,0.009014267474412918,-0.00566960358992219
1717858498698867200,11.6578671875,0.004258394706994295,0.008955145254731178,-0.005390770733356476
1717858498708908300,11.667908203125,0.0030594393610954285,0.009039567783474922,-0.005011270288378
1717858498718948400,11.6779482421875,0.0037404096219688654,0.009808155708014965,-0.006013950332999229
1717858498728989400,11.687989501953124,0.004792624618858099,0.008586297743022442,-0.005573463626205921
1717858498739030300,11.6980302734375,0.005411809775978327,0.008805742487311363,-0.006330067757517099
1717858498749070300,11.7080703125,0.003359045134857297,0.008919458836317062,-0.006909837480634451
1717858498759111400,11.718111328125,0.004430168308317661,0.00860227644443512,-0.006484797224402428
1717858498769151500,11.7281513671875,0.0041065942496061325,0.00926220789551735,-0.006490123458206654
1717858498779192300,11.7381923828125,0.003930825740098953,0.007795338984578848,-0.006204632576555014
1717858498789233400,11.7482333984375,0.004735366906970739,0.009296828880906105,-0.006102633662521839
1717858498799273200,11.758273193359376,0.0030149647500365973,0.008533833548426628,-0.005297826137393713
1717858498809314300,11.768314208984375,0.003531617810949683,0.008446482010185719,-0.005971073638647795
1717858498819355100,11.778355224609374,0.0028698223177343607,0.009731989353895187,-0.00498037738725543
1717858498829395200,11.788395263671875,0.003641340183094144,0.007921839132905006,-0.004583300091326237
1717858498839436300,11.798436279296874,0.002763828495517373,0.009837983176112175,-0.00561154680326581
1717858498849476400,11.808476318359375,0.003828826593235135,0.009762083180248737,-0.004207528196275234
1717858498859517400,11.818517333984374,0.002802444389089942,0.008888034150004387,-0.005524727515876293
1717858498869558300,11.828558349609375,0.002377670258283615,0.007797469384968281,-0.0051865060813724995
1717858498879599000,11.83859912109375,0.003501257859170437,0.010454504750669003,-0.0067630973644554615
1717858498889640200,11.84864013671875,0.002548911375924945,0.008682171814143658,-0.004002464935183525
1717858498899680300,11.85868017578125,0.005478122271597385,0.00857191625982523,-0.0062544336542487144
1717858498909721000,11.86872119140625,0.004599012900143862,0.00905581284314394,-0.005037635564804077
1717858498919762200,11.87876220703125,0.0033449302427470684,0.009257680736482143,-0.007074687164276838
1717858498929802200,11.88880224609375,0.004614459350705147,0.009699765592813492,-0.006329535041004419
1717858498939843000,11.898843017578125,0.0041071269661188126,0.0089404983446002,-0.00603392394259572
1717858498949883100,11.908883056640626,0.004455734975636005,0.009073389694094658,-0.006820355542004108
1717858498959924200,11.91892431640625,0.004534830804914236,0.008359928615391254,-0.005762547720223665
1717858498969965300,11.92896533203125,0.00373082235455513,0.007833422161638737,-0.005089833401143551
