time,seconds_elapsed,z,y,x
1716738009138591200,0.49959130859375,9.80455493927002,0.0454898327589035,0.047884032130241394
1716738009148591400,0.50959130859375,9.80455493927002,0.043095629662275314,0.047884032130241394
1716738009158591200,0.51959130859375,9.80216121673584,0.043095629662275314,0.047884032130241394
1716738009168591400,0.52959130859375,9.799766540527344,0.043095629662275314,0.05027823522686958
1716738009178591200,0.53959130859375,9.799766540527344,0.0454898327589035,0.05027823522686958
1716738009188591400,0.54959130859375,9.799766540527344,0.05027823522686958,0.05027823522686958
1716738009198591200,0.55959130859375,9.799766540527344,0.047884032130241394,0.047884032130241394
1716738009208591400,0.56959130859375,9.799766540527344,0.047884032130241394,0.047884032130241394
1716738009218591200,0.57959130859375,9.799766540527344,0.0454898327589035,0.047884032130241394
1716738009228591400,0.58959130859375,9.799766540527344,0.047884032130241394,0.05027823522686958
1716738009238591200,0.59959130859375,9.799766540527344,0.047884032130241394,0.05027823522686958
1716738009248591400,0.60959130859375,9.799766540527344,0.047884032130241394,0.05027823522686958
1716738009258591200,0.61959130859375,9.799766540527344,0.0454898327589035,0.047884032130241394
1716738009268591400,0.62959130859375,9.797372817993164,0.047884032130241394,0.047884032130241394
1716738009278591200,0.63959130859375,9.799766540527344,0.05027823522686958,0.05027823522686958
1716738009288591400,0.64959130859375,9.797372817993164,0.05027823522686958,0.05027823522686958
1716738009298591200,0.65959130859375,9.799766540527344,0.05027823522686958,0.05027823522686958
1716738009308591400,0.66959130859375,9.799766540527344,0.047884032130241394,0.047884032130241394
1716738009318591200,0.67959130859375,9.799766540527344,0.047884032130241394,0.05027823522686958
1716738009328591400,0.68959130859375,9.797372817993164,0.0454898327589035,0.05027823522686958
1716738009338591200,0.69959130859375,9.797372817993164,0.0454898327589035,0.05027823522686958
1716738009348591400,0.70959130859375,9.799766540527344,0.047884032130241394,0.0454898327589035
1716738009358591200,0.71959130859375,9.799766540527344,0.0454898327589035,0.0454898327589035
1716738009368591400,0.72959130859375,9.797372817993164,0.05027823522686958,0.043095629662275314
1716738009378591200,0.73959130859375,9.799766540527344,0.047884032130241394,0.0454898327589035
1716738009388591400,0.74959130859375,9.80216121673584,0.047884032130241394,0.043095629662275314
1716738009398591200,0.75959130859375,9.80216121673584,0.047884032130241394,0.043095629662275314
1716738009408591400,0.76959130859375,9.80216121673584,0.047884032130241394,0.043095629662275314
1716738009418591200,0.77959130859375,9.80216121673584,0.0454898327589035,0.047884032130241394
1716738009428591400,0.78959130859375,9.80216121673584,0.0454898327589035,0.047884032130241394
1716738009438591200,0.79959130859375,9.80455493927002,0.047884032130241394,0.05027823522686958
1716738009448591400,0.80959130859375,9.80216121673584,0.047884032130241394,0.047884032130241394
1716738009458591200,0.81959130859375,9.80455493927002,0.047884032130241394,0.05027823522686958
1716738009468591400,0.82959130859375,9.80455493927002,0.05027823522686958,0.05027823522686958
1716738009478591500,0.839591552734375,9.80455493927002,0.047884032130241394,0.047884032130241394
1716738009488591400,0.84959130859375,9.806949615478516,0.05027823522686958,0.0454898327589035
1716738009498591500,0.859591552734375,9.806949615478516,0.05027823522686958,0.0454898327589035
1716738009508591400,0.86959130859375,9.806949615478516,0.05027823522686958,0.0454898327589035
1716738009518591500,0.879591552734375,9.80455493927002,0.05027823522686958,0.047884032130241394
1716738009528591400,0.88959130859375,9.80216121673584,0.05027823522686958,0.047884032130241394
1716738009538591500,0.899591552734375,9.80216121673584,0.05027823522686958,0.0454898327589035
1716738009548591400,0.90959130859375,9.799766540527344,0.0454898327589035,0.043095629662275314
1716738009558591500,0.919591552734375,9.799766540527344,0.047884032130241394,0.047884032130241394
1716738009568591400,0.92959130859375,9.799766540527344,0.047884032130241394,0.047884032130241394
1716738009578591500,0.939591552734375,9.80216121673584,0.047884032130241394,0.043095629662275314
1716738009588591400,0.94959130859375,9.80216121673584,0.05027823522686958,0.043095629662275314
1716738009598591500,0.959591552734375,9.80455493927002,0.047884032130241394,0.0454898327589035
1716738009608591400,0.96959130859375,9.80455493927002,0.05027823522686958,0.0454898327589035
1716738009618591500,0.979591552734375,9.806949615478516,0.05027823522686958,0.040701430290937424
1716738009628591400,0.98959130859375,9.80455493927002,0.05027823522686958,0.038307227194309235
1716738009638591500,0.999591552734375,9.80216121673584,0.05027823522686958,0.040701430290937424
1716738009648591400,1.00959130859375,9.80216121673584,0.05027823522686958,0.040701430290937424
1716738009658591500,1.019591552734375,9.80216121673584,0.047884032130241394,0.040701430290937424
1716738009668591400,1.02959130859375,9.80216121673584,0.047884032130241394,0.040701430290937424
1716738009678591500,1.039591552734375,9.80216121673584,0.05027823522686958,0.040701430290937424
1716738009688591400,1.04959130859375,9.80216121673584,0.05027823522686958,0.040701430290937424
1716738009698591500,1.059591552734375,9.80216121673584,0.047884032130241394,0.038307227194309235
1716738009708591400,1.06959130859375,9.80216121673584,0.047884032130241394,0.038307227194309235
1716738009718591500,1.079591552734375,9.80216121673584,0.047884032130241394,0.038307227194309235
1716738009728591400,1.08959130859375,9.80455493927002,0.043095629662275314,0.035913024097681046
1716738009738591500,1.099591552734375,9.80455493927002,0.0454898327589035,0.038307227194309235
1716738009748591400,1.10959130859375,9.80455493927002,0.0454898327589035,0.035913024097681046
1716738009758591500,1.119591552734375,9.806949615478516,0.043095629662275314,0.038307227194309235
1716738009768591400,1.12959130859375,9.80455493927002,0.040701430290937424,0.038307227194309235
1716738009778591500,1.139591552734375,9.80216121673584,0.0454898327589035,0.040701430290937424
1716738009788591400,1.14959130859375,9.80455493927002,0.047884032130241394,0.040701430290937424
1716738009798591500,1.159591552734375,9.80455493927002,0.043095629662275314,0.040701430290937424
1716738009808591400,1.16959130859375,9.80216121673584,0.047884032130241394,0.043095629662275314
1716738009818591500,1.179591552734375,9.80216121673584,0.047884032130241394,0.0454898327589035
1716738009828591400,1.18959130859375,9.80216121673584,0.05027823522686958,0.0454898327589035
1716738009838591500,1.199591552734375,9.80216121673584,0.05027823522686958,0.0454898327589035
1716738009848591400,1.20959130859375,9.771036148071289,0.05267243832349777,0.0454898327589035
1716738009858591500,1.219591552734375,9.811738014221191,0.05267243832349777,0.043095629662275314
1716738009868591400,1.22959130859375,9.816526412963867,0.05027823522686958,0.040701430290937424
1716738009878591500,1.239591552734375,9.794978141784668,0.05267243832349777,0.040701430290937424
1716738009888591400,1.24959130859375,9.794978141784668,0.047884032130241394,0.040701430290937424
1716738009898591200,1.25959130859375,9.816526412963867,0.047884032130241394,0.040701430290937424
1716738009908591400,1.26959130859375,9.814131736755371,0.05267243832349777,0.043095629662275314
1716738009918591500,1.279591552734375,9.797372817993164,0.05027823522686958,0.0454898327589035
1716738009928591400,1.28959130859375,9.790189743041992,0.05267243832349777,0.0454898327589035
1716738009938591200,1.29959130859375,9.809343338012695,0.05506663769483566,0.043095629662275314
1716738009948591400,1.30959130859375,9.818920135498047,0.05267243832349777,0.040701430290937424
1716738009958591500,1.319591552734375,9.80455493927002,0.05267243832349777,0.040701430290937424
1716738009968591400,1.32959130859375,9.792584419250488,0.05267243832349777,0.040701430290937424
1716738009978591500,1.339591552734375,9.806949615478516,0.05267243832349777,0.043095629662275314
1716738009988591400,1.34959130859375,9.816526412963867,0.05267243832349777,0.0454898327589035
1716738009998591500,1.359591552734375,9.80455493927002,0.05027823522686958,0.0454898327589035
1716738010008591400,1.36959130859375,9.794978141784668,0.05027823522686958,0.043095629662275314
1716738010018591500,1.379591552734375,9.806949615478516,0.047884032130241394,0.043095629662275314
1716738010028591400,1.38959130859375,9.811738014221191,0.0454898327589035,0.043095629662275314
1716738010038591500,1.399591552734375,9.799766540527344,0.0454898327589035,0.043095629662275314
1716738010048591400,1.40959130859375,9.792584419250488,0.0454898327589035,0.047884032130241394
1716738010058591500,1.419591552734375,9.80216121673584,0.043095629662275314,0.047884032130241394
1716738010068591400,1.42959130859375,9.811738014221191,0.043095629662275314,0.0454898327589035
1716738010078591500,1.439591552734375,9.806949615478516,0.043095629662275314,0.047884032130241394
1716738010088591400,1.44959130859375,9.797372817993164,0.0454898327589035,0.0454898327589035
1716738010098591200,1.45959130859375,9.80455493927002,0.05027823522686958,0.043095629662275314
1716738010108591400,1.46959130859375,9.811738014221191,0.047884032130241394,0.043095629662275314
1716738010118591200,1.47959130859375,9.806949615478516,0.047884032130241394,0.0454898327589035
1716738010128591400,1.48959130859375,9.799766540527344,0.047884032130241394,0.0454898327589035
1716738010138591500,1.499591552734375,9.80216121673584,0.05027823522686958,0.043095629662275314
1716738010148591400,1.50959130859375,9.809343338012695,0.047884032130241394,0.043095629662275314
1716738010158591500,1.519591552734375,9.806949615478516,0.047884032130241394,0.040701430290937424
1716738010168591400,1.52959130859375,9.80216121673584,0.05267243832349777,0.0454898327589035
1716738010178591500,1.539591552734375,9.80455493927002,0.05027823522686958,0.0454898327589035
1716738010188591400,1.54959130859375,9.806949615478516,0.05027823522686958,0.0454898327589035
1716738010198591500,1.559591552734375,9.80455493927002,0.05027823522686958,0.043095629662275314
1716738010208591000,1.569591064453125,9.797372817993164,0.05267243832349777,0.043095629662275314
1716738010221237000,1.582237060546875,9.80216121673584,0.05027823522686958,0.038307227194309235
1716738010231236900,1.59223681640625,9.809343338012695,0.05027823522686958,0.038307227194309235
1716738010241237000,1.602237060546875,9.806949615478516,0.05027823522686958,0.040701430290937424
1716738010251236900,1.61223681640625,9.80216121673584,0.05027823522686958,0.040701430290937424
1716738010261237000,1.622237060546875,9.80216121673584,0.05027823522686958,0.040701430290937424
1716738010271236900,1.63223681640625,9.806949615478516,0.047884032130241394,0.043095629662275314
1716738010281237000,1.642237060546875,9.80455493927002,0.0454898327589035,0.043095629662275314
1716738010291236900,1.65223681640625,9.799766540527344,0.0454898327589035,0.0454898327589035
1716738010301237000,1.662237060546875,9.799766540527344,0.0454898327589035,0.040701430290937424
1716738010311236900,1.67223681640625,9.80455493927002,0.047884032130241394,0.040701430290937424
1716738010321237000,1.682237060546875,9.80455493927002,0.047884032130241394,0.040701430290937424
1716738010331236900,1.69223681640625,9.80216121673584,0.047884032130241394,0.040701430290937424
1716738010341237000,1.702237060546875,9.80216121673584,0.05027823522686958,0.043095629662275314
1716738010351236900,1.71223681640625,9.80216121673584,0.05027823522686958,0.043095629662275314
1716738010361237000,1.722237060546875,9.799766540527344,0.05027823522686958,0.043095629662275314
1716738010371236900,1.73223681640625,9.797372817993164,0.047884032130241394,0.047884032130241394
1716738010381237000,1.742237060546875,9.80216121673584,0.05027823522686958,0.05267243832349777
1716738010391237000,1.752237060546875,9.80455493927002,0.05027823522686958,0.047884032130241394
1716738010401237000,1.762237060546875,9.80455493927002,0.05267243832349777,0.047884032130241394
1716738010411237000,1.772237060546875,9.799766540527344,0.05267243832349777,0.047884032130241394
1716738010421237000,1.782237060546875,9.80216121673584,0.05506663769483566,0.05027823522686958
1716738010431237000,1.792237060546875,9.806949615478516,0.05506663769483566,0.05027823522686958
1716738010441237000,1.802237060546875,9.806949615478516,0.05267243832349777,0.05027823522686958
1716738010451237000,1.812237060546875,9.80455493927002,0.05027823522686958,0.05027823522686958
1716738010461237000,1.822237060546875,9.80216121673584,0.05027823522686958,0.05027823522686958
1716738010471237000,1.832237060546875,9.80216121673584,0.05267243832349777,0.047884032130241394
1716738010481237000,1.842237060546875,9.80216121673584,0.047884032130241394,0.047884032130241394
1716738010491237000,1.852237060546875,9.797372817993164,0.05027823522686958,0.043095629662275314
1716738010501237000,1.862237060546875,9.799766540527344,0.05267243832349777,0.043095629662275314
1716738010511237400,1.8722373046875,9.80216121673584,0.05267243832349777,0.043095629662275314
1716738010521237500,1.882237548828125,9.80216121673584,0.05027823522686958,0.043095629662275314
1716738010531237400,1.8922373046875,9.797372817993164,0.05027823522686958,0.040701430290937424
1716738010541237500,1.902237548828125,9.799766540527344,0.05027823522686958,0.043095629662275314
1716738010551237400,1.9122373046875,9.80216121673584,0.05027823522686958,0.040701430290937424
1716738010561237500,1.922237548828125,9.80455493927002,0.05267243832349777,0.040701430290937424
1716738010571237400,1.9322373046875,9.80455493927002,0.05267243832349777,0.040701430290937424
1716738010581237500,1.942237548828125,9.80216121673584,0.05267243832349777,0.040701430290937424
1716738010591237400,1.9522373046875,9.80455493927002,0.05027823522686958,0.040701430290937424
1716738010601237500,1.962237548828125,9.806949615478516,0.05027823522686958,0.038307227194309235
1716738010611237400,1.9722373046875,9.80455493927002,0.05267243832349777,0.033518824726343155
1716738010621237500,1.982237548828125,9.806949615478516,0.05267243832349777,0.035913024097681046
1716738010631237400,1.9922373046875,9.80455493927002,0.05027823522686958,0.040701430290937424
1716738010641237500,2.002237548828125,9.80455493927002,0.05027823522686958,0.038307227194309235
1716738010651237400,2.0122373046875,9.799766540527344,0.05027823522686958,0.038307227194309235
1716738010661237500,2.022237548828125,9.799766540527344,0.047884032130241394,0.038307227194309235
1716738010671237400,2.0322373046875,9.80216121673584,0.047884032130241394,0.038307227194309235
1716738010681237500,2.042237548828125,9.799766540527344,0.0454898327589035,0.035913024097681046
1716738010691237400,2.0522373046875,9.80216121673584,0.047884032130241394,0.035913024097681046
1716738010701237500,2.062237548828125,9.80216121673584,0.047884032130241394,0.038307227194309235
1716738010711237400,2.0722373046875,9.80216121673584,0.0454898327589035,0.040701430290937424
1716738010721237500,2.082237548828125,9.80216121673584,0.043095629662275314,0.043095629662275314
1716738010731237400,2.0922373046875,9.80216121673584,0.043095629662275314,0.0454898327589035
1716738010741237500,2.102237548828125,9.80216121673584,0.0454898327589035,0.0454898327589035
1716738010751237400,2.1122373046875,9.80216121673584,0.0454898327589035,0.0454898327589035
1716738010761237500,2.122237548828125,9.80216121673584,0.047884032130241394,0.043095629662275314
1716738010771237400,2.1322373046875,9.799766540527344,0.047884032130241394,0.043095629662275314
1716738010781237500,2.142237548828125,9.799766540527344,0.047884032130241394,0.043095629662275314
1716738010791237400,2.1522373046875,9.799766540527344,0.047884032130241394,0.0454898327589035
1716738010801237500,2.162237548828125,9.766247749328613,0.05027823522686958,0.043095629662275314
1716738010811237400,2.1722373046875,9.821314811706543,0.05027823522686958,0.040701430290937424
1716738010821237500,2.182237548828125,9.806949615478516,0.047884032130241394,0.040701430290937424
1716738010831237400,2.1922373046875,9.785401344299316,0.0454898327589035,0.038307227194309235
1716738010841237500,2.202237548828125,9.792584419250488,0.047884032130241394,0.038307227194309235
1716738010851237400,2.2122373046875,9.816526412963867,0.047884032130241394,0.040701430290937424
1716738010861237500,2.222237548828125,9.811738014221191,0.05027823522686958,0.043095629662275314
1716738010871237400,2.2322373046875,9.797372817993164,0.05027823522686958,0.043095629662275314
1716738010881237500,2.242237548828125,9.797372817993164,0.05027823522686958,0.0454898327589035
1716738010891237400,2.2522373046875,9.814131736755371,0.05267243832349777,0.043095629662275314
1716738010901237500,2.262237548828125,9.811738014221191,0.05267243832349777,0.0454898327589035
1716738010911237400,2.2722373046875,9.797372817993164,0.047884032130241394,0.043095629662275314
1716738010921237500,2.282237548828125,9.799766540527344,0.047884032130241394,0.043095629662275314
1716738010931237400,2.2922373046875,9.816526412963867,0.047884032130241394,0.043095629662275314
1716738010941237200,2.3022373046875,9.814131736755371,0.0454898327589035,0.040701430290937424
1716738010951237400,2.3122373046875,9.797372817993164,0.047884032130241394,0.040701430290937424
1716738010961237200,2.3222373046875,9.797372817993164,0.047884032130241394,0.043095629662275314
1716738010971237400,2.3322373046875,9.811738014221191,0.047884032130241394,0.043095629662275314
1716738010981237200,2.3422373046875,9.809343338012695,0.047884032130241394,0.043095629662275314
1716738010991237400,2.3522373046875,9.797372817993164,0.0454898327589035,0.040701430290937424
1716738011001237200,2.3622373046875,9.794978141784668,0.043095629662275314,0.040701430290937424
1716738011011237400,2.3722373046875,9.80455493927002,0.043095629662275314,0.043095629662275314
1716738011021237200,2.3822373046875,9.80455493927002,0.0454898327589035,0.040701430290937424
1716738011031237400,2.3922373046875,9.794978141784668,0.043095629662275314,0.043095629662275314
1716738011041237200,2.4022373046875,9.794978141784668,0.043095629662275314,0.043095629662275314
1716738011051237400,2.4122373046875,9.80455493927002,0.043095629662275314,0.0454898327589035
1716738011061237200,2.4222373046875,9.80455493927002,0.043095629662275314,0.0454898327589035
1716738011071237400,2.4322373046875,9.794978141784668,0.043095629662275314,0.0454898327589035
1716738011081237200,2.4422373046875,9.794978141784668,0.043095629662275314,0.0454898327589035
1716738011091237400,2.4522373046875,9.80216121673584,0.0454898327589035,0.047884032130241394
1716738011101237200,2.4622373046875,9.80216121673584,0.05027823522686958,0.047884032130241394
1716738011111237400,2.4722373046875,9.797372817993164,0.047884032130241394,0.047884032130241394
1716738011121237200,2.4822373046875,9.794978141784668,0.047884032130241394,0.0454898327589035
1716738011131237400,2.4922373046875,9.80216121673584,0.047884032130241394,0.043095629662275314
1716738011141237500,2.502237548828125,9.80455493927002,0.043095629662275314,0.040701430290937424
1716738011151237400,2.5122373046875,9.80216121673584,0.040701430290937424,0.040701430290937424
1716738011161237500,2.522237548828125,9.80216121673584,0.0454898327589035,0.038307227194309235
1716738011171237400,2.5322373046875,9.80455493927002,0.047884032130241394,0.038307227194309235
1716738011181237200,2.5422373046875,9.806949615478516,0.0454898327589035,0.038307227194309235
1716738011191237400,2.5522373046875,9.799766540527344,0.0454898327589035,0.038307227194309235
1716738011201237200,2.5622373046875,9.797372817993164,0.0454898327589035,0.040701430290937424
1716738011211237400,2.5722373046875,9.80216121673584,0.0454898327589035,0.040701430290937424
1716738011221237200,2.5822373046875,9.80216121673584,0.043095629662275314,0.043095629662275314
1716738011231237400,2.5922373046875,9.799766540527344,0.047884032130241394,0.040701430290937424
1716738011241237500,2.602237548828125,9.799766540527344,0.0454898327589035,0.043095629662275314
1716738011251237400,2.6122373046875,9.80216121673584,0.0454898327589035,0.0454898327589035
1716738011261237500,2.622237548828125,9.80216121673584,0.040701430290937424,0.0454898327589035
1716738011271237400,2.6322373046875,9.799766540527344,0.040701430290937424,0.043095629662275314
1716738011281237500,2.642237548828125,9.797372817993164,0.0454898327589035,0.0454898327589035
1716738011291237400,2.6522373046875,9.799766540527344,0.043095629662275314,0.0454898327589035
1716738011301237500,2.662237548828125,9.80216121673584,0.043095629662275314,0.0454898327589035
1716738011311237400,2.6722373046875,9.797372817993164,0.043095629662275314,0.0454898327589035
1716738011321237500,2.682237548828125,9.792584419250488,0.043095629662275314,0.047884032130241394
1716738011331237400,2.6922373046875,9.797372817993164,0.047884032130241394,0.0454898327589035
1716738011341237500,2.702237548828125,9.799766540527344,0.05027823522686958,0.043095629662275314
1716738011351237400,2.7122373046875,9.794978141784668,0.05027823522686958,0.043095629662275314
1716738011361237500,2.722237548828125,9.794978141784668,0.05027823522686958,0.043095629662275314
1716738011371237400,2.7322373046875,9.794978141784668,0.05027823522686958,0.038307227194309235
1716738011381237500,2.742237548828125,9.794978141784668,0.05027823522686958,0.035913024097681046
1716738011391237400,2.7522373046875,9.792584419250488,0.05027823522686958,0.033518824726343155
1716738011401237500,2.762237548828125,9.792584419250488,0.047884032130241394,0.035913024097681046
1716738011411237400,2.7722373046875,9.794978141784668,0.047884032130241394,0.038307227194309235
1716738011421237500,2.782237548828125,9.797372817993164,0.047884032130241394,0.043095629662275314
1716738011431237400,2.7922373046875,9.794978141784668,0.0454898327589035,0.043095629662275314
1716738011441237500,2.802237548828125,9.794978141784668,0.0454898327589035,0.040701430290937424
1716738011451237400,2.8122373046875,9.794978141784668,0.043095629662275314,0.040701430290937424
1716738011461237200,2.8222373046875,9.797372817993164,0.043095629662275314,0.043095629662275314
1716738011471237400,2.8322373046875,9.797372817993164,0.0454898327589035,0.043095629662275314
1716738011481237500,2.842237548828125,9.799766540527344,0.0454898327589035,0.040701430290937424
1716738011491237400,2.8522373046875,9.799766540527344,0.043095629662275314,0.040701430290937424
1716738011501237500,2.862237548828125,9.797372817993164,0.043095629662275314,0.040701430290937424
1716738011511237400,2.8722373046875,9.794978141784668,0.043095629662275314,0.043095629662275314
1716738011521237500,2.882237548828125,9.797372817993164,0.0454898327589035,0.043095629662275314
1716738011531237400,2.8922373046875,9.797372817993164,0.0454898327589035,0.0454898327589035
1716738011541237200,2.9022373046875,9.797372817993164,0.047884032130241394,0.0454898327589035
1716738011551237400,2.9122373046875,9.797372817993164,0.047884032130241394,0.043095629662275314
1716738011561237200,2.9222373046875,9.797372817993164,0.0454898327589035,0.043095629662275314
1716738011571237400,2.9322373046875,9.797372817993164,0.047884032130241394,0.0454898327589035
1716738011581237200,2.9422373046875,9.797372817993164,0.047884032130241394,0.0454898327589035
1716738011591237400,2.9522373046875,9.799766540527344,0.0454898327589035,0.0454898327589035
1716738011601237500,2.962237548828125,9.797372817993164,0.0454898327589035,0.047884032130241394
1716738011611237400,2.9722373046875,9.799766540527344,0.0454898327589035,0.047884032130241394
1716738011621237500,2.982237548828125,9.799766540527344,0.0454898327589035,0.047884032130241394
1716738011631237400,2.9922373046875,9.797372817993164,0.047884032130241394,0.0454898327589035
1716738011641237500,3.002237548828125,9.794978141784668,0.05027823522686958,0.0454898327589035
1716738011651237400,3.0122373046875,9.792584419250488,0.05027823522686958,0.047884032130241394
1716738011661237500,3.022237548828125,9.794978141784668,0.05027823522686958,0.0454898327589035
1716738011671237400,3.0322373046875,9.794978141784668,0.05027823522686958,0.0454898327589035
1716738011681237500,3.042237548828125,9.794978141784668,0.047884032130241394,0.043095629662275314
1716738011691237400,3.0522373046875,9.794978141784668,0.047884032130241394,0.043095629662275314
1716738011701237500,3.062237548828125,9.794978141784668,0.0454898327589035,0.0454898327589035
1716738011711237400,3.0722373046875,9.792584419250488,0.0454898327589035,0.043095629662275314
1716738011721237500,3.082237548828125,9.794978141784668,0.0454898327589035,0.0454898327589035
1716738011731237400,3.0922373046875,9.794978141784668,0.0454898327589035,0.043095629662275314
1716738011741237500,3.102237548828125,9.797372817993164,0.043095629662275314,0.043095629662275314
1716738011751237400,3.1122373046875,9.797372817993164,0.043095629662275314,0.047884032130241394
1716738011761237500,3.122237548828125,9.797372817993164,0.043095629662275314,0.047884032130241394
1716738011771237400,3.1322373046875,9.797372817993164,0.043095629662275314,0.043095629662275314
1716738011781237500,3.142237548828125,9.797372817993164,0.040701430290937424,0.040701430290937424
1716738011791237400,3.1522373046875,9.794978141784668,0.043095629662275314,0.040701430290937424
1716738011801237500,3.162237548828125,9.790189743041992,0.043095629662275314,0.040701430290937424
1716738011811237400,3.1722373046875,9.783007621765137,0.047884032130241394,0.040701430290937424
1716738011821237500,3.182237548828125,9.830891609191895,0.0454898327589035,0.040701430290937424
1716738011831237400,3.1922373046875,9.799766540527344,0.047884032130241394,0.043095629662275314
1716738011841237000,3.202237060546875,9.775824546813965,0.05027823522686958,0.0454898327589035
1716738011851236900,3.21223681640625,9.787796020507812,0.05027823522686958,0.040701430290937424
1716738011861237000,3.222237060546875,9.821314811706543,0.05027823522686958,0.043095629662275314
1716738011871236900,3.23223681640625,9.809343338012695,0.05027823522686958,0.040701430290937424
1716738011881237000,3.242237060546875,9.785401344299316,0.05027823522686958,0.038307227194309235
1716738011891236900,3.25223681640625,9.787796020507812,0.05027823522686958,0.043095629662275314
1716738011901237000,3.262237060546875,9.814131736755371,0.047884032130241394,0.043095629662275314
1716738011911236900,3.27223681640625,9.806949615478516,0.043095629662275314,0.043095629662275314
1716738011921237000,3.282237060546875,9.78061294555664,0.043095629662275314,0.040701430290937424
1716738011931236900,3.29223681640625,9.78061294555664,0.0454898327589035,0.040701430290937424
1716738011941236700,3.30223681640625,9.80455493927002,0.0454898327589035,0.040701430290937424
1716738011951236900,3.31223681640625,9.797372817993164,0.0454898327589035,0.043095629662275314
1716738011961237000,3.322237060546875,9.78061294555664,0.0454898327589035,0.040701430290937424
1716738011971236900,3.33223681640625,9.787796020507812,0.047884032130241394,0.043095629662275314
1716738011981236700,3.34223681640625,9.806949615478516,0.05027823522686958,0.043095629662275314
1716738011991236900,3.35223681640625,9.80455493927002,0.0454898327589035,0.043095629662275314
1716738012001236700,3.36223681640625,9.787796020507812,0.0454898327589035,0.043095629662275314
1716738012011236900,3.37223681640625,9.790189743041992,0.043095629662275314,0.043095629662275314
1716738012021236700,3.38223681640625,9.80455493927002,0.040701430290937424,0.0454898327589035
1716738012031236900,3.39223681640625,9.80216121673584,0.038307227194309235,0.0454898327589035
1716738012041236700,3.40223681640625,9.790189743041992,0.043095629662275314,0.047884032130241394
1716738012051236900,3.41223681640625,9.790189743041992,0.040701430290937424,0.047884032130241394
1716738012061236700,3.42223681640625,9.80455493927002,0.040701430290937424,0.043095629662275314
1716738012071236900,3.43223681640625,9.806949615478516,0.040701430290937424,0.043095629662275314
1716738012081236700,3.44223681640625,9.792584419250488,0.040701430290937424,0.0454898327589035
1716738012091236900,3.45223681640625,9.787796020507812,0.043095629662275314,0.0454898327589035
1716738012101236700,3.46223681640625,9.799766540527344,0.0454898327589035,0.043095629662275314
1716738012111236900,3.47223681640625,9.799766540527344,0.043095629662275314,0.043095629662275314
1716738012121236700,3.48223681640625,9.790189743041992,0.0454898327589035,0.038307227194309235
1716738012131236900,3.49223681640625,9.794978141784668,0.0454898327589035,0.038307227194309235
1716738012141237500,3.502237548828125,9.799766540527344,0.043095629662275314,0.040701430290937424
1716738012151237400,3.5122373046875,9.799766540527344,0.0454898327589035,0.043095629662275314
1716738012161237500,3.522237548828125,9.794978141784668,0.0454898327589035,0.043095629662275314
1716738012171237400,3.5322373046875,9.792584419250488,0.047884032130241394,0.043095629662275314
1716738012181237200,3.5422373046875,9.797372817993164,0.043095629662275314,0.043095629662275314
1716738012191237400,3.5522373046875,9.797372817993164,0.043095629662275314,0.043095629662275314
1716738012201237500,3.562237548828125,9.790189743041992,0.0454898327589035,0.043095629662275314
1716738012211237400,3.5722373046875,9.790189743041992,0.0454898327589035,0.043095629662275314
1716738012221237500,3.582237548828125,9.797372817993164,0.047884032130241394,0.040701430290937424
1716738012231237400,3.5922373046875,9.797372817993164,0.0454898327589035,0.043095629662275314
1716738012241237500,3.602237548828125,9.790189743041992,0.043095629662275314,0.043095629662275314
1716738012251237400,3.6122373046875,9.790189743041992,0.040701430290937424,0.043095629662275314
1716738012261237200,3.6222373046875,9.797372817993164,0.038307227194309235,0.047884032130241394
1716738012271237400,3.6322373046875,9.799766540527344,0.035913024097681046,0.047884032130241394
1716738012281237200,3.6422373046875,9.794978141784668,0.035913024097681046,0.0454898327589035
1716738012291237400,3.6522373046875,9.792584419250488,0.035913024097681046,0.047884032130241394
1716738012301237200,3.6622373046875,9.797372817993164,0.040701430290937424,0.05027823522686958
1716738012311237400,3.6722373046875,9.794978141784668,0.043095629662275314,0.0454898327589035
1716738012321237500,3.682237548828125,9.790189743041992,0.0454898327589035,0.040701430290937424
1716738012331237400,3.6922373046875,9.790189743041992,0.0454898327589035,0.040701430290937424
1716738012341237500,3.702237548828125,9.792584419250488,0.0454898327589035,0.040701430290937424
1716738012351237400,3.7122373046875,9.792584419250488,0.043095629662275314,0.040701430290937424
1716738012361237500,3.722237548828125,9.790189743041992,0.040701430290937424,0.040701430290937424
1716738012371237400,3.7322373046875,9.792584419250488,0.043095629662275314,0.043095629662275314
1716738012381237500,3.742237548828125,9.797372817993164,0.043095629662275314,0.040701430290937424
1716738012391237400,3.7522373046875,9.797372817993164,0.040701430290937424,0.038307227194309235
1716738012401237500,3.762237548828125,9.797372817993164,0.040701430290937424,0.043095629662275314
1716738012411237400,3.7722373046875,9.794978141784668,0.040701430290937424,0.043095629662275314
1716738012421237500,3.782237548828125,9.797372817993164,0.040701430290937424,0.043095629662275314
1716738012431237400,3.7922373046875,9.797372817993164,0.040701430290937424,0.043095629662275314
1716738012441237500,3.802237548828125,9.794978141784668,0.040701430290937424,0.0454898327589035
1716738012451237400,3.8122373046875,9.794978141784668,0.038307227194309235,0.047884032130241394
1716738012461237500,3.822237548828125,9.799766540527344,0.040701430290937424,0.0454898327589035
1716738012471237400,3.8322373046875,9.80216121673584,0.0454898327589035,0.0454898327589035
1716738012481237500,3.842237548828125,9.797372817993164,0.047884032130241394,0.0454898327589035
1716738012491237400,3.8522373046875,9.794978141784668,0.047884032130241394,0.043095629662275314
1716738012501237500,3.862237548828125,9.794978141784668,0.05027823522686958,0.043095629662275314
1716738012511237400,3.8722373046875,9.794978141784668,0.05027823522686958,0.043095629662275314
1716738012521237500,3.882237548828125,9.792584419250488,0.05027823522686958,0.040701430290937424
1716738012531237400,3.8922373046875,9.792584419250488,0.05027823522686958,0.043095629662275314
1716738012541237500,3.902237548828125,9.794978141784668,0.05027823522686958,0.040701430290937424
1716738012551237400,3.9122373046875,9.797372817993164,0.05027823522686958,0.040701430290937424
1716738012561237500,3.922237548828125,9.794978141784668,0.05027823522686958,0.043095629662275314
1716738012571237400,3.9322373046875,9.792584419250488,0.047884032130241394,0.0454898327589035
1716738012581237500,3.942237548828125,9.792584419250488,0.0454898327589035,0.0454898327589035
1716738012591237400,3.9522373046875,9.792584419250488,0.043095629662275314,0.047884032130241394
1716738012601237500,3.962237548828125,9.792584419250488,0.043095629662275314,0.05027823522686958
1716738012611237400,3.9722373046875,9.792584419250488,0.043095629662275314,0.05267243832349777
1716738012621237200,3.9822373046875,9.792584419250488,0.043095629662275314,0.047884032130241394
1716738012631237400,3.9922373046875,9.792584419250488,0.0454898327589035,0.05027823522686958
1716738012641237500,4.002237548828125,9.792584419250488,0.0454898327589035,0.0454898327589035
1716738012651237400,4.0122373046875,9.794978141784668,0.043095629662275314,0.043095629662275314
1716738012661237500,4.022237548828125,9.794978141784668,0.047884032130241394,0.0454898327589035
1716738012671237400,4.0322373046875,9.794978141784668,0.05027823522686958,0.043095629662275314
1716738012681237500,4.042237548828125,9.792584419250488,0.05027823522686958,0.040701430290937424
1716738012691237400,4.0522373046875,9.790189743041992,0.05027823522686958,0.040701430290937424
1716738012701237200,4.0622373046875,9.792584419250488,0.05027823522686958,0.040701430290937424
1716738012711237400,4.0722373046875,9.794978141784668,0.05506663769483566,0.040701430290937424
1716738012721237200,4.0822373046875,9.792584419250488,0.05267243832349777,0.043095629662275314
1716738012731237400,4.0922373046875,9.787796020507812,0.05027823522686958,0.043095629662275314
1716738012741237200,4.1022373046875,9.792584419250488,0.05027823522686958,0.043095629662275314
1716738012751237400,4.1122373046875,9.790189743041992,0.0454898327589035,0.0454898327589035
1716738012761237500,4.122237548828125,9.790189743041992,0.043095629662275314,0.043095629662275314
1716738012771237400,4.1322373046875,9.792584419250488,0.043095629662275314,0.043095629662275314
1716738012781237500,4.142237548828125,9.790189743041992,0.0454898327589035,0.043095629662275314
1716738012791237400,4.1522373046875,9.790189743041992,0.0454898327589035,0.0454898327589035
1716738012801237500,4.162237548828125,9.790189743041992,0.047884032130241394,0.043095629662275314
1716738012811237400,4.1722373046875,9.790189743041992,0.047884032130241394,0.043095629662275314
1716738012821237500,4.182237548828125,9.790189743041992,0.047884032130241394,0.043095629662275314
1716738012831237400,4.1922373046875,9.790189743041992,0.0454898327589035,0.0454898327589035
1716738012841237500,4.202237548828125,9.790189743041992,0.040701430290937424,0.0454898327589035
1716738012851237400,4.2122373046875,9.790189743041992,0.043095629662275314,0.047884032130241394
1716738012861237500,4.222237548828125,9.790189743041992,0.043095629662275314,0.05027823522686958
1716738012871237400,4.2322373046875,9.790189743041992,0.0454898327589035,0.047884032130241394
1716738012881237500,4.242237548828125,9.771036148071289,0.0454898327589035,0.043095629662275314
1716738012891237400,4.2522373046875,9.80455493927002,0.0454898327589035,0.043095629662275314
1716738012901237500,4.262237548828125,9.794978141784668,0.043095629662275314,0.043095629662275314
1716738012911237400,4.2722373046875,9.778219223022461,0.043095629662275314,0.040701430290937424
1716738012921237500,4.282237548828125,9.785401344299316,0.043095629662275314,0.043095629662275314
1716738012931237400,4.2922373046875,9.80455493927002,0.043095629662275314,0.047884032130241394
1716738012941237200,4.3022373046875,9.799766540527344,0.0454898327589035,0.05027823522686958
1716738012951237400,4.3122373046875,9.783007621765137,0.043095629662275314,0.047884032130241394
1716738012961237200,4.3222373046875,9.787796020507812,0.043095629662275314,0.0454898327589035
1716738012971237400,4.3322373046875,9.80455493927002,0.043095629662275314,0.043095629662275314
1716738012981237200,4.3422373046875,9.80216121673584,0.043095629662275314,0.040701430290937424
1716738012991237400,4.3522373046875,9.785401344299316,0.043095629662275314,0.040701430290937424
1716738013001237200,4.3622373046875,9.783007621765137,0.043095629662275314,0.040701430290937424
1716738013011237400,4.3722373046875,9.799766540527344,0.0454898327589035,0.040701430290937424
1716738013021237200,4.3822373046875,9.799766540527344,0.047884032130241394,0.040701430290937424
1716738013031237400,4.3922373046875,9.787796020507812,0.0454898327589035,0.040701430290937424
1716738013041237200,4.4022373046875,9.787796020507812,0.047884032130241394,0.040701430290937424
1716738013051237400,4.4122373046875,9.797372817993164,0.047884032130241394,0.040701430290937424
1716738013061237200,4.4222373046875,9.794978141784668,0.047884032130241394,0.043095629662275314
1716738013071237400,4.4322373046875,9.783007621765137,0.047884032130241394,0.040701430290937424
1716738013081237200,4.4422373046875,9.785401344299316,0.047884032130241394,0.040701430290937424
1716738013091237400,4.4522373046875,9.794978141784668,0.047884032130241394,0.040701430290937424
1716738013101237200,4.4622373046875,9.797372817993164,0.047884032130241394,0.040701430290937424
1716738013111237400,4.4722373046875,9.790189743041992,0.047884032130241394,0.043095629662275314
1716738013121237200,4.4822373046875,9.787796020507812,0.05027823522686958,0.040701430290937424
1716738013131237400,4.4922373046875,9.797372817993164,0.047884032130241394,0.040701430290937424
1716738013141237500,4.502237548828125,9.799766540527344,0.047884032130241394,0.040701430290937424
1716738013151237400,4.5122373046875,9.792584419250488,0.0454898327589035,0.043095629662275314
1716738013161237500,4.522237548828125,9.787796020507812,0.043095629662275314,0.043095629662275314
1716738013171237400,4.5322373046875,9.794978141784668,0.043095629662275314,0.043095629662275314
1716738013181237200,4.5422373046875,9.797372817993164,0.043095629662275314,0.043095629662275314
1716738013191237400,4.5522373046875,9.792584419250488,0.043095629662275314,0.043095629662275314
1716738013201237200,4.5622373046875,9.790189743041992,0.043095629662275314,0.043095629662275314
1716738013211237400,4.5722373046875,9.797372817993164,0.0454898327589035,0.043095629662275314
1716738013221237200,4.5822373046875,9.797372817993164,0.047884032130241394,0.043095629662275314
1716738013231237400,4.5922373046875,9.794978141784668,0.047884032130241394,0.043095629662275314
1716738013241237200,4.6022373046875,9.792584419250488,0.05027823522686958,0.043095629662275314
1716738013251237400,4.6122373046875,9.794978141784668,0.05027823522686958,0.043095629662275314
1716738013261237200,4.6222373046875,9.794978141784668,0.047884032130241394,0.043095629662275314
1716738013271237400,4.6322373046875,9.790189743041992,0.047884032130241394,0.043095629662275314
1716738013281237200,4.6422373046875,9.785401344299316,0.047884032130241394,0.040701430290937424
1716738013291237400,4.6522373046875,9.790189743041992,0.05267243832349777,0.043095629662275314
1716738013301237200,4.6622373046875,9.792584419250488,0.05267243832349777,0.043095629662275314
1716738013311237400,4.6722373046875,9.790189743041992,0.05027823522686958,0.043095629662275314
1716738013321237200,4.6822373046875,9.790189743041992,0.047884032130241394,0.040701430290937424
1716738013331237400,4.6922373046875,9.790189743041992,0.0454898327589035,0.040701430290937424
1716738013341237200,4.7022373046875,9.787796020507812,0.0454898327589035,0.040701430290937424
1716738013351237400,4.7122373046875,9.785401344299316,0.0454898327589035,0.040701430290937424
1716738013361237200,4.7222373046875,9.785401344299316,0.0454898327589035,0.040701430290937424
1716738013371237400,4.7322373046875,9.790189743041992,0.05027823522686958,0.038307227194309235
1716738013381237500,4.742237548828125,9.792584419250488,0.047884032130241394,0.043095629662275314
1716738013391237400,4.7522373046875,9.792584419250488,0.047884032130241394,0.043095629662275314
1716738013401237500,4.762237548828125,9.790189743041992,0.0454898327589035,0.043095629662275314
1716738013411237400,4.7722373046875,9.792584419250488,0.0454898327589035,0.038307227194309235
1716738013421237200,4.7822373046875,9.794978141784668,0.0454898327589035,0.038307227194309235
1716738013431237400,4.7922373046875,9.794978141784668,0.043095629662275314,0.038307227194309235
1716738013441237200,4.8022373046875,9.792584419250488,0.0454898327589035,0.040701430290937424
1716738013451237400,4.8122373046875,9.792584419250488,0.0454898327589035,0.040701430290937424
1716738013461237200,4.8222373046875,9.792584419250488,0.0454898327589035,0.038307227194309235
1716738013471237400,4.8322373046875,9.792584419250488,0.0454898327589035,0.040701430290937424
1716738013481237200,4.8422373046875,9.792584419250488,0.047884032130241394,0.043095629662275314
1716738013491237400,4.8522373046875,9.794978141784668,0.0454898327589035,0.043095629662275314
1716738013501237200,4.8622373046875,9.794978141784668,0.043095629662275314,0.0454898327589035
1716738013511237400,4.8722373046875,9.792584419250488,0.043095629662275314,0.047884032130241394
1716738013521237200,4.8822373046875,9.794978141784668,0.043095629662275314,0.047884032130241394
1716738013531237400,4.8922373046875,9.794978141784668,0.040701430290937424,0.0454898327589035
1716738013541237200,4.9022373046875,9.794978141784668,0.040701430290937424,0.043095629662275314
1716738013551237400,4.9122373046875,9.790189743041992,0.043095629662275314,0.0454898327589035
1716738013561237200,4.9222373046875,9.787796020507812,0.043095629662275314,0.043095629662275314
1716738013571237400,4.9322373046875,9.790189743041992,0.0454898327589035,0.0454898327589035
1716738013581237200,4.9422373046875,9.792584419250488,0.0454898327589035,0.047884032130241394
1716738013591237400,4.9522373046875,9.792584419250488,0.0454898327589035,0.0454898327589035
1716738013601237500,4.962237548828125,9.792584419250488,0.043095629662275314,0.0454898327589035
1716738013611237400,4.9722373046875,9.794978141784668,0.043095629662275314,0.0454898327589035
1716738013621237500,4.982237548828125,9.794978141784668,0.043095629662275314,0.0454898327589035
1716738013631237400,4.9922373046875,9.794978141784668,0.043095629662275314,0.0454898327589035
1716738013641237500,5.002237548828125,9.792584419250488,0.043095629662275314,0.0454898327589035
1716738013651237400,5.0122373046875,9.792584419250488,0.043095629662275314,0.040701430290937424
1716738013661237500,5.022237548828125,9.792584419250488,0.040701430290937424,0.043095629662275314
1716738013671237400,5.0322373046875,9.790189743041992,0.040701430290937424,0.040701430290937424
1716738013681237500,5.042237548828125,9.790189743041992,0.043095629662275314,0.040701430290937424
1716738013691237400,5.0522373046875,9.792584419250488,0.043095629662275314,0.040701430290937424
1716738013701237500,5.062237548828125,9.792584419250488,0.043095629662275314,0.040701430290937424
1716738013711237400,5.0722373046875,9.794978141784668,0.043095629662275314,0.040701430290937424
1716738013721237500,5.082237548828125,9.794978141784668,0.047884032130241394,0.043095629662275314
1716738013731237400,5.0922373046875,9.794978141784668,0.0454898327589035,0.043095629662275314
1716738013741237500,5.102237548828125,9.797372817993164,0.0454898327589035,0.0454898327589035
1716738013751237400,5.1122373046875,9.794978141784668,0.0454898327589035,0.047884032130241394
1716738013761237500,5.122237548828125,9.794978141784668,0.0454898327589035,0.05027823522686958
1716738013771237400,5.1322373046875,9.797372817993164,0.0454898327589035,0.047884032130241394
1716738013781237200,5.1422373046875,9.794978141784668,0.047884032130241394,0.043095629662275314
1716738013791237400,5.1522373046875,9.794978141784668,0.047884032130241394,0.038307227194309235
1716738013801237200,5.1622373046875,9.797372817993164,0.05027823522686958,0.040701430290937424
1716738013811237400,5.1722373046875,9.794978141784668,0.05267243832349777,0.043095629662275314
1716738013821237200,5.1822373046875,9.742305755615234,0.05027823522686958,0.038307227194309235
1716738013831237400,5.1922373046875,9.794978141784668,0.05027823522686958,0.0454898327589035
1716738013841237200,5.2022373046875,9.814131736755371,0.0454898327589035,0.0454898327589035
1716738013851237400,5.2122373046875,9.775824546813965,0.043095629662275314,0.043095629662275314
1716738013861237200,5.2222373046875,9.775824546813965,0.043095629662275314,0.043095629662275314
1716738013871237400,5.2322373046875,9.806949615478516,0.0454898327589035,0.043095629662275314
1716738013881237500,5.242237548828125,9.806949615478516,0.05027823522686958,0.0454898327589035
1716738013891237400,5.2522373046875,9.778219223022461,0.05027823522686958,0.043095629662275314
1716738013901237200,5.2622373046875,9.771036148071289,0.05267243832349777,0.040701430290937424
1716738013911237400,5.2722373046875,9.797372817993164,0.05506663769483566,0.040701430290937424
1716738013921237200,5.2822373046875,9.806949615478516,0.05746084079146385,0.040701430290937424
1716738013931237400,5.2922373046875,9.783007621765137,0.05267243832349777,0.047884032130241394
1716738013941237200,5.3022373046875,9.775824546813965,0.05267243832349777,0.0454898327589035
1716738013951237400,5.3122373046875,9.794978141784668,0.05267243832349777,0.043095629662275314
1716738013961237200,5.3222373046875,9.80455493927002,0.05027823522686958,0.043095629662275314
1716738013971237400,5.3322373046875,9.787796020507812,0.05027823522686958,0.043095629662275314
1716738013981237200,5.3422373046875,9.778219223022461,0.0454898327589035,0.043095629662275314
1716738013991237400,5.3522373046875,9.794978141784668,0.05027823522686958,0.040701430290937424
1716738014001237200,5.3622373046875,9.80216121673584,0.0454898327589035,0.040701430290937424
1716738014011237400,5.3722373046875,9.787796020507812,0.047884032130241394,0.038307227194309235
1716738014021237200,5.3822373046875,9.78061294555664,0.05027823522686958,0.035913024097681046
1716738014031237400,5.3922373046875,9.794978141784668,0.05027823522686958,0.038307227194309235
1716738014041237200,5.4022373046875,9.80216121673584,0.047884032130241394,0.040701430290937424
1716738014051237400,5.4122373046875,9.790189743041992,0.0454898327589035,0.040701430290937424
1716738014061237200,5.4222373046875,9.783007621765137,0.043095629662275314,0.040701430290937424
1716738014071237400,5.4322373046875,9.792584419250488,0.043095629662275314,0.043095629662275314
1716738014081237200,5.4422373046875,9.799766540527344,0.0454898327589035,0.0454898327589035
1716738014091237400,5.4522373046875,9.790189743041992,0.047884032130241394,0.047884032130241394
1716738014101237200,5.4622373046875,9.78061294555664,0.047884032130241394,0.0454898327589035
1716738014111237400,5.4722373046875,9.787796020507812,0.047884032130241394,0.047884032130241394
1716738014121237200,5.4822373046875,9.794978141784668,0.047884032130241394,0.05027823522686958
1716738014131237400,5.4922373046875,9.790189743041992,0.047884032130241394,0.05027823522686958
1716738014141237500,5.502237548828125,9.785401344299316,0.05027823522686958,0.047884032130241394
1716738014151237400,5.5122373046875,9.792584419250488,0.05267243832349777,0.047884032130241394
1716738014161237500,5.522237548828125,9.799766540527344,0.05027823522686958,0.047884032130241394
1716738014171237400,5.5322373046875,9.792584419250488,0.0454898327589035,0.047884032130241394
1716738014181237200,5.5422373046875,9.785401344299316,0.0454898327589035,0.0454898327589035
1716738014191237400,5.5522373046875,9.790189743041992,0.0454898327589035,0.043095629662275314
1716738014201237200,5.5622373046875,9.792584419250488,0.047884032130241394,0.043095629662275314
1716738014211237400,5.5722373046875,9.787796020507812,0.047884032130241394,0.0454898327589035
1716738014221237200,5.5822373046875,9.785401344299316,0.0454898327589035,0.047884032130241394
1716738014231237400,5.5922373046875,9.787796020507812,0.047884032130241394,0.0454898327589035
1716738014241237200,5.6022373046875,9.794978141784668,0.0454898327589035,0.047884032130241394
1716738014251237400,5.6122373046875,9.787796020507812,0.043095629662275314,0.0454898327589035
1716738014261237200,5.6222373046875,9.783007621765137,0.043095629662275314,0.047884032130241394
1716738014271237400,5.6322373046875,9.787796020507812,0.0454898327589035,0.05027823522686958
1716738014281237200,5.6422373046875,9.792584419250488,0.0454898327589035,0.0454898327589035
1716738014291237400,5.6522373046875,9.787796020507812,0.0454898327589035,0.047884032130241394
1716738014301237200,5.6622373046875,9.783007621765137,0.0454898327589035,0.047884032130241394
1716738014311237400,5.6722373046875,9.785401344299316,0.0454898327589035,0.047884032130241394
1716738014321237200,5.6822373046875,9.787796020507812,0.0454898327589035,0.043095629662275314
1716738014331237400,5.6922373046875,9.787796020507812,0.0454898327589035,0.043095629662275314
1716738014341237200,5.7022373046875,9.785401344299316,0.043095629662275314,0.043095629662275314
1716738014351237400,5.7122373046875,9.787796020507812,0.040701430290937424,0.043095629662275314
1716738014361237200,5.7222373046875,9.792584419250488,0.043095629662275314,0.043095629662275314
1716738014371237400,5.7322373046875,9.790189743041992,0.040701430290937424,0.0454898327589035
1716738014381237500,5.742237548828125,9.790189743041992,0.040701430290937424,0.0454898327589035
1716738014391237400,5.7522373046875,9.792584419250488,0.040701430290937424,0.043095629662275314
1716738014401237500,5.762237548828125,9.792584419250488,0.043095629662275314,0.040701430290937424
1716738014411237400,5.7722373046875,9.792584419250488,0.0454898327589035,0.040701430290937424
1716738014421237500,5.782237548828125,9.790189743041992,0.0454898327589035,0.040701430290937424
1716738014431237400,5.7922373046875,9.792584419250488,0.047884032130241394,0.040701430290937424
1716738014441237200,5.8022373046875,9.790189743041992,0.047884032130241394,0.043095629662275314
1716738014451237400,5.8122373046875,9.790189743041992,0.05027823522686958,0.0454898327589035
1716738014461237200,5.8222373046875,9.787796020507812,0.047884032130241394,0.0454898327589035
1716738014471237400,5.8322373046875,9.787796020507812,0.047884032130241394,0.047884032130241394
1716738014481237200,5.8422373046875,9.790189743041992,0.047884032130241394,0.047884032130241394
1716738014491237400,5.8522373046875,9.790189743041992,0.0454898327589035,0.043095629662275314
1716738014501237200,5.8622373046875,9.790189743041992,0.0454898327589035,0.0454898327589035
1716738014511237400,5.8722373046875,9.790189743041992,0.043095629662275314,0.0454898327589035
1716738014521237200,5.8822373046875,9.790189743041992,0.043095629662275314,0.047884032130241394
1716738014531237400,5.8922373046875,9.787796020507812,0.047884032130241394,0.0454898327589035
1716738014541237200,5.9022373046875,9.787796020507812,0.047884032130241394,0.0454898327589035
1716738014551237400,5.9122373046875,9.790189743041992,0.047884032130241394,0.043095629662275314
1716738014561237500,5.922237548828125,9.792584419250488,0.05027823522686958,0.0454898327589035
1716738014571237400,5.9322373046875,9.792584419250488,0.047884032130241394,0.047884032130241394
1716738014581237500,5.942237548828125,9.790189743041992,0.047884032130241394,0.047884032130241394
1716738014591237400,5.9522373046875,9.787796020507812,0.0454898327589035,0.047884032130241394
1716738014601237500,5.962237548828125,9.787796020507812,0.0454898327589035,0.047884032130241394
1716738014611237400,5.9722373046875,9.787796020507812,0.05027823522686958,0.0454898327589035
1716738014621237200,5.9822373046875,9.787796020507812,0.05027823522686958,0.0454898327589035
1716738014631237400,5.9922373046875,9.785401344299316,0.05027823522686958,0.0454898327589035
1716738014641237500,6.002237548828125,9.785401344299316,0.05027823522686958,0.0454898327589035
1716738014651237400,6.0122373046875,9.787796020507812,0.047884032130241394,0.047884032130241394
1716738014661237500,6.022237548828125,9.787796020507812,0.047884032130241394,0.0454898327589035
1716738014671237400,6.0322373046875,9.787796020507812,0.0454898327589035,0.0454898327589035
1716738014681237500,6.042237548828125,9.787796020507812,0.040701430290937424,0.047884032130241394
1716738014691237400,6.0522373046875,9.787796020507812,0.040701430290937424,0.0454898327589035
1716738014701237500,6.062237548828125,9.785401344299316,0.040701430290937424,0.043095629662275314
1716738014711237400,6.0722373046875,9.787796020507812,0.043095629662275314,0.043095629662275314
1716738014721237500,6.082237548828125,9.787796020507812,0.043095629662275314,0.043095629662275314
1716738014731237400,6.0922373046875,9.785401344299316,0.043095629662275314,0.043095629662275314
1716738014741237500,6.102237548828125,9.787796020507812,0.043095629662275314,0.040701430290937424
1716738014751237400,6.1122373046875,9.785401344299316,0.043095629662275314,0.040701430290937424
1716738014761237500,6.122237548828125,9.787796020507812,0.043095629662275314,0.040701430290937424
1716738014771237400,6.1322373046875,9.787796020507812,0.0454898327589035,0.038307227194309235
1716738014781237500,6.142237548828125,9.790189743041992,0.043095629662275314,0.040701430290937424
1716738014791237400,6.1522373046875,9.790189743041992,0.043095629662275314,0.038307227194309235
1716738014801237500,6.162237548828125,9.759065628051758,0.043095629662275314,0.040701430290937424
1716738014811237400,6.1722373046875,9.792584419250488,0.0454898327589035,0.038307227194309235
1716738014821237500,6.182237548828125,9.797372817993164,0.043095629662275314,0.035913024097681046
1716738014831237400,6.1922373046875,9.771036148071289,0.043095629662275314,0.038307227194309235
1716738014841237500,6.202237548828125,9.771036148071289,0.040701430290937424,0.038307227194309235
1716738014851237400,6.2122373046875,9.794978141784668,0.040701430290937424,0.043095629662275314
1716738014861237200,6.2222373046875,9.799766540527344,0.040701430290937424,0.043095629662275314
1716738014871237400,6.2322373046875,9.78061294555664,0.040701430290937424,0.047884032130241394
1716738014881237200,6.2422373046875,9.771036148071289,0.040701430290937424,0.047884032130241394
1716738014891237400,6.2522373046875,9.787796020507812,0.040701430290937424,0.0454898327589035
1716738014901237200,6.2622373046875,9.80216121673584,0.040701430290937424,0.043095629662275314
1716738014911237400,6.2722373046875,9.787796020507812,0.040701430290937424,0.0454898327589035
1716738014921237500,6.282237548828125,9.775824546813965,0.038307227194309235,0.047884032130241394
1716738014931237400,6.2922373046875,9.790189743041992,0.040701430290937424,0.0454898327589035
1716738014941237200,6.3022373046875,9.797372817993164,0.040701430290937424,0.043095629662275314
1716738014951237400,6.3122373046875,9.787796020507812,0.040701430290937424,0.0454898327589035
1716738014961237200,6.3222373046875,9.775824546813965,0.038307227194309235,0.0454898327589035
1716738014971237400,6.3322373046875,9.785401344299316,0.0454898327589035,0.043095629662275314
1716738014981237200,6.3422373046875,9.792584419250488,0.0454898327589035,0.043095629662275314
1716738014991237400,6.3522373046875,9.783007621765137,0.0454898327589035,0.043095629662275314
1716738015001237200,6.3622373046875,9.778219223022461,0.0454898327589035,0.0454898327589035
1716738015011237400,6.3722373046875,9.790189743041992,0.0454898327589035,0.047884032130241394
1716738015021237200,6.3822373046875,9.797372817993164,0.043095629662275314,0.047884032130241394
1716738015031237400,6.3922373046875,9.790189743041992,0.040701430290937424,0.047884032130241394
1716738015041237200,6.4022373046875,9.783007621765137,0.043095629662275314,0.0454898327589035
1716738015051237400,6.4122373046875,9.787796020507812,0.0454898327589035,0.040701430290937424
1716738015061237200,6.4222373046875,9.794978141784668,0.0454898327589035,0.043095629662275314
1716738015071237400,6.4322373046875,9.785401344299316,0.047884032130241394,0.043095629662275314
1716738015081237200,6.4422373046875,9.778219223022461,0.0454898327589035,0.0454898327589035
1716738015091237400,6.4522373046875,9.785401344299316,0.0454898327589035,0.043095629662275314
1716738015101237200,6.4622373046875,9.790189743041992,0.043095629662275314,0.040701430290937424
1716738015111237400,6.4722373046875,9.785401344299316,0.043095629662275314,0.043095629662275314
1716738015121237200,6.4822373046875,9.78061294555664,0.043095629662275314,0.0454898327589035
1716738015131237400,6.4922373046875,9.785401344299316,0.043095629662275314,0.047884032130241394
1716738015141237500,6.502237548828125,9.787796020507812,0.038307227194309235,0.0454898327589035
1716738015151237400,6.5122373046875,9.783007621765137,0.035913024097681046,0.0454898327589035
1716738015161237500,6.522237548828125,9.78061294555664,0.038307227194309235,0.043095629662275314
1716738015171237400,6.5322373046875,9.78061294555664,0.040701430290937424,0.043095629662275314
1716738015181237500,6.542237548828125,9.787796020507812,0.043095629662275314,0.040701430290937424
1716738015191237400,6.5522373046875,9.785401344299316,0.0454898327589035,0.038307227194309235
1716738015201237500,6.562237548828125,9.783007621765137,0.0454898327589035,0.040701430290937424
1716738015211237400,6.5722373046875,9.785401344299316,0.0454898327589035,0.043095629662275314
1716738015221237200,6.5822373046875,9.790189743041992,0.047884032130241394,0.040701430290937424
1716738015231237400,6.5922373046875,9.785401344299316,0.0454898327589035,0.040701430290937424
1716738015241237200,6.6022373046875,9.785401344299316,0.047884032130241394,0.043095629662275314
1716738015251237400,6.6122373046875,9.790189743041992,0.047884032130241394,0.0454898327589035
1716738015261237200,6.6222373046875,9.792584419250488,0.05027823522686958,0.0454898327589035
1716738015271237400,6.6322373046875,9.787796020507812,0.047884032130241394,0.047884032130241394
1716738015281237500,6.642237548828125,9.785401344299316,0.047884032130241394,0.047884032130241394
1716738015291237400,6.6522373046875,9.785401344299316,0.0454898327589035,0.047884032130241394
1716738015301237500,6.662237548828125,9.787796020507812,0.0454898327589035,0.0454898327589035
1716738015311237400,6.6722373046875,9.787796020507812,0.0454898327589035,0.0454898327589035
1716738015321237500,6.682237548828125,9.785401344299316,0.0454898327589035,0.040701430290937424
1716738015331237400,6.6922373046875,9.790189743041992,0.0454898327589035,0.040701430290937424
1716738015341237200,6.7022373046875,9.794978141784668,0.043095629662275314,0.040701430290937424
1716738015351237400,6.7122373046875,9.792584419250488,0.0454898327589035,0.040701430290937424
1716738015361237200,6.7222373046875,9.790189743041992,0.0454898327589035,0.038307227194309235
1716738015371237400,6.7322373046875,9.792584419250488,0.043095629662275314,0.0454898327589035
1716738015381237500,6.742237548828125,9.794978141784668,0.0454898327589035,0.0454898327589035
1716738015391237400,6.7522373046875,9.790189743041992,0.0454898327589035,0.0454898327589035
1716738015401237000,6.762237060546875,9.787796020507812,0.0454898327589035,0.043095629662275314
1716738015411237000,6.772237060546875,9.790189743041992,0.0454898327589035,0.040701430290937424
1716738015421237000,6.782237060546875,9.790189743041992,0.0454898327589035,0.038307227194309235
1716738015431236900,6.79223681640625,9.790189743041992,0.043095629662275314,0.035913024097681046
1716738015441237000,6.802237060546875,9.787796020507812,0.0454898327589035,0.038307227194309235
1716738015451236900,6.81223681640625,9.787796020507812,0.05027823522686958,0.038307227194309235
1716738015461237000,6.822237060546875,9.790189743041992,0.047884032130241394,0.038307227194309235
1716738015471236900,6.83223681640625,9.790189743041992,0.047884032130241394,0.035913024097681046
1716738015481237000,6.842237060546875,9.787796020507812,0.0454898327589035,0.035913024097681046
1716738015491236900,6.85223681640625,9.787796020507812,0.0454898327589035,0.038307227194309235
1716738015501237000,6.862237060546875,9.785401344299316,0.040701430290937424,0.033518824726343155
1716738015511236900,6.87223681640625,9.787796020507812,0.038307227194309235,0.031124621629714966
1716738015521237000,6.882237060546875,9.790189743041992,0.038307227194309235,0.031124621629714966
1716738015531236900,6.89223681640625,9.790189743041992,0.035913024097681046,0.035913024097681046
1716738015541237000,6.902237060546875,9.792584419250488,0.040701430290937424,0.035913024097681046
1716738015551236900,6.91223681640625,9.790189743041992,0.038307227194309235,0.038307227194309235
1716738015561237000,6.922237060546875,9.787796020507812,0.035913024097681046,0.040701430290937424
1716738015571236900,6.93223681640625,9.787796020507812,0.038307227194309235,0.040701430290937424
1716738015581237000,6.942237060546875,9.790189743041992,0.038307227194309235,0.038307227194309235
1716738015591236900,6.95223681640625,9.790189743041992,0.040701430290937424,0.035913024097681046
1716738015601237000,6.962237060546875,9.787796020507812,0.0454898327589035,0.040701430290937424
1716738015611236900,6.97223681640625,9.787796020507812,0.0454898327589035,0.040701430290937424
1716738015621237000,6.982237060546875,9.785401344299316,0.043095629662275314,0.040701430290937424
1716738015631236900,6.99223681640625,9.787796020507812,0.043095629662275314,0.040701430290937424
1716738015641237000,7.002237060546875,9.790189743041992,0.043095629662275314,0.040701430290937424
1716738015651236900,7.01223681640625,9.790189743041992,0.043095629662275314,0.040701430290937424
1716738015661237000,7.022237060546875,9.790189743041992,0.043095629662275314,0.038307227194309235
1716738015671236900,7.03223681640625,9.787796020507812,0.043095629662275314,0.038307227194309235
1716738015681237000,7.042237060546875,9.790189743041992,0.0454898327589035,0.040701430290937424
1716738015691236900,7.05223681640625,9.787796020507812,0.043095629662275314,0.040701430290937424
1716738015701237200,7.0622373046875,9.790189743041992,0.043095629662275314,0.040701430290937424
1716738015711237400,7.0722373046875,9.787796020507812,0.043095629662275314,0.040701430290937424
1716738015721237200,7.0822373046875,9.790189743041992,0.043095629662275314,0.040701430290937424
1716738015731237400,7.0922373046875,9.792584419250488,0.043095629662275314,0.043095629662275314
1716738015741237200,7.1022373046875,9.792584419250488,0.0454898327589035,0.043095629662275314
1716738015751237400,7.1122373046875,9.790189743041992,0.040701430290937424,0.0454898327589035
1716738015761237200,7.1222373046875,9.790189743041992,0.043095629662275314,0.0454898327589035
1716738015771237400,7.1322373046875,9.790189743041992,0.043095629662275314,0.0454898327589035
1716738015781237200,7.1422373046875,9.792584419250488,0.040701430290937424,0.043095629662275314
1716738015791237400,7.1522373046875,9.792584419250488,0.0454898327589035,0.0454898327589035
1716738015801237200,7.1622373046875,9.792584419250488,0.0454898327589035,0.043095629662275314
1716738015811237400,7.1722373046875,9.74470043182373,0.0454898327589035,0.0454898327589035
1716738015821237200,7.1822373046875,9.799766540527344,0.05027823522686958,0.05027823522686958
1716738015831237400,7.1922373046875,9.797372817993164,0.047884032130241394,0.05027823522686958
1716738015841237200,7.2022373046875,9.76864242553711,0.047884032130241394,0.047884032130241394
1716738015851237400,7.2122373046875,9.773430824279785,0.0454898327589035,0.047884032130241394
1716738015861237200,7.2222373046875,9.80455493927002,0.043095629662275314,0.0454898327589035
1716738015871237400,7.2322373046875,9.80455493927002,0.043095629662275314,0.047884032130241394
1716738015881237200,7.2422373046875,9.775824546813965,0.043095629662275314,0.047884032130241394
1716738015891237400,7.2522373046875,9.771036148071289,0.0454898327589035,0.0454898327589035
1716738015901237200,7.2622373046875,9.797372817993164,0.047884032130241394,0.043095629662275314
1716738015911237400,7.2722373046875,9.806949615478516,0.047884032130241394,0.043095629662275314
1716738015921237200,7.2822373046875,9.785401344299316,0.0454898327589035,0.040701430290937424
1716738015931237400,7.2922373046875,9.775824546813965,0.047884032130241394,0.043095629662275314
1716738015941237200,7.3022373046875,9.797372817993164,0.05027823522686958,0.043095629662275314
1716738015951237400,7.3122373046875,9.80216121673584,0.047884032130241394,0.043095629662275314
1716738015961237200,7.3222373046875,9.783007621765137,0.043095629662275314,0.043095629662275314
1716738015971237400,7.3322373046875,9.775824546813965,0.043095629662275314,0.040701430290937424
1716738015981237200,7.3422373046875,9.792584419250488,0.043095629662275314,0.038307227194309235
1716738015991237400,7.3522373046875,9.797372817993164,0.043095629662275314,0.035913024097681046
1716738016001237200,7.3622373046875,9.783007621765137,0.0454898327589035,0.038307227194309235
1716738016011237400,7.3722373046875,9.775824546813965,0.0454898327589035,0.040701430290937424
1716738016021237200,7.3822373046875,9.790189743041992,0.0454898327589035,0.040701430290937424
1716738016031237400,7.3922373046875,9.794978141784668,0.047884032130241394,0.040701430290937424
1716738016041237200,7.4022373046875,9.785401344299316,0.0454898327589035,0.043095629662275314
1716738016051237400,7.4122373046875,9.778219223022461,0.043095629662275314,0.047884032130241394
1716738016061237200,7.4222373046875,9.790189743041992,0.047884032130241394,0.047884032130241394
1716738016071237400,7.4322373046875,9.797372817993164,0.047884032130241394,0.0454898327589035
1716738016081237200,7.4422373046875,9.792584419250488,0.05027823522686958,0.0454898327589035
1716738016091237400,7.4522373046875,9.785401344299316,0.047884032130241394,0.043095629662275314
1716738016101237200,7.4622373046875,9.797372817993164,0.047884032130241394,0.043095629662275314
1716738016111237400,7.4722373046875,9.80216121673584,0.047884032130241394,0.043095629662275314
1716738016121237200,7.4822373046875,9.792584419250488,0.05027823522686958,0.040701430290937424
1716738016131237400,7.4922373046875,9.787796020507812,0.05027823522686958,0.043095629662275314
1716738016141237500,7.502237548828125,9.792584419250488,0.047884032130241394,0.040701430290937424
1716738016151237400,7.5122373046875,9.792584419250488,0.047884032130241394,0.035913024097681046
1716738016161237500,7.522237548828125,9.785401344299316,0.047884032130241394,0.038307227194309235
1716738016171237400,7.5322373046875,9.783007621765137,0.043095629662275314,0.038307227194309235
1716738016181237200,7.5422373046875,9.787796020507812,0.043095629662275314,0.040701430290937424
1716738016191237400,7.5522373046875,9.790189743041992,0.043095629662275314,0.040701430290937424
1716738016201237200,7.5622373046875,9.785401344299316,0.0454898327589035,0.040701430290937424
1716738016211237400,7.5722373046875,9.783007621765137,0.0454898327589035,0.043095629662275314
1716738016221237200,7.5822373046875,9.785401344299316,0.0454898327589035,0.043095629662275314
1716738016231237400,7.5922373046875,9.790189743041992,0.0454898327589035,0.047884032130241394
1716738016241237500,7.602237548828125,9.785401344299316,0.0454898327589035,0.0454898327589035
1716738016251237400,7.6122373046875,9.785401344299316,0.0454898327589035,0.043095629662275314
1716738016261237200,7.6222373046875,9.790189743041992,0.047884032130241394,0.040701430290937424
1716738016271237400,7.6322373046875,9.794978141784668,0.0454898327589035,0.0454898327589035
1716738016281237200,7.6422373046875,9.792584419250488,0.0454898327589035,0.0454898327589035
1716738016291237400,7.6522373046875,9.785401344299316,0.0454898327589035,0.047884032130241394
1716738016301237200,7.6622373046875,9.787796020507812,0.0454898327589035,0.047884032130241394
1716738016311237400,7.6722373046875,9.794978141784668,0.047884032130241394,0.047884032130241394
1716738016321237200,7.6822373046875,9.794978141784668,0.047884032130241394,0.0454898327589035
1716738016331237400,7.6922373046875,9.792584419250488,0.0454898327589035,0.05027823522686958
1716738016341237200,7.7022373046875,9.794978141784668,0.047884032130241394,0.05027823522686958
1716738016351237400,7.7122373046875,9.797372817993164,0.043095629662275314,0.047884032130241394
1716738016361237200,7.7222373046875,9.792584419250488,0.047884032130241394,0.0454898327589035
1716738016371237400,7.7322373046875,9.790189743041992,0.0454898327589035,0.0454898327589035
1716738016381237500,7.742237548828125,9.792584419250488,0.0454898327589035,0.0454898327589035
1716738016391237400,7.7522373046875,9.794978141784668,0.0454898327589035,0.0454898327589035
1716738016401237500,7.762237548828125,9.794978141784668,0.0454898327589035,0.047884032130241394
1716738016411237400,7.7722373046875,9.790189743041992,0.047884032130241394,0.047884032130241394
1716738016421237200,7.7822373046875,9.792584419250488,0.047884032130241394,0.05027823522686958
1716738016431237400,7.7922373046875,9.794978141784668,0.0454898327589035,0.047884032130241394
1716738016441237200,7.8022373046875,9.792584419250488,0.043095629662275314,0.0454898327589035
1716738016451237400,7.8122373046875,9.790189743041992,0.0454898327589035,0.0454898327589035
1716738016461237200,7.8222373046875,9.790189743041992,0.0454898327589035,0.043095629662275314
1716738016471237400,7.8322373046875,9.792584419250488,0.043095629662275314,0.043095629662275314
1716738016481237200,7.8422373046875,9.794978141784668,0.043095629662275314,0.043095629662275314
1716738016491237400,7.8522373046875,9.792584419250488,0.043095629662275314,0.040701430290937424
1716738016501237200,7.8622373046875,9.792584419250488,0.040701430290937424,0.043095629662275314
1716738016511237400,7.8722373046875,9.792584419250488,0.038307227194309235,0.043095629662275314
1716738016521237200,7.8822373046875,9.792584419250488,0.043095629662275314,0.040701430290937424
1716738016531237400,7.8922373046875,9.790189743041992,0.043095629662275314,0.038307227194309235
1716738016541237200,7.9022373046875,9.792584419250488,0.043095629662275314,0.038307227194309235
1716738016551237400,7.9122373046875,9.794978141784668,0.043095629662275314,0.040701430290937424
1716738016561237200,7.9222373046875,9.794978141784668,0.043095629662275314,0.038307227194309235
1716738016571237400,7.9322373046875,9.790189743041992,0.043095629662275314,0.038307227194309235
1716738016581237200,7.9422373046875,9.792584419250488,0.0454898327589035,0.040701430290937424
1716738016591237400,7.9522373046875,9.792584419250488,0.047884032130241394,0.040701430290937424
1716738016601237200,7.9622373046875,9.792584419250488,0.0454898327589035,0.040701430290937424
1716738016611237400,7.9722373046875,9.794978141784668,0.0454898327589035,0.043095629662275314
1716738016621237200,7.9822373046875,9.797372817993164,0.0454898327589035,0.043095629662275314
1716738016631237400,7.9922373046875,9.797372817993164,0.043095629662275314,0.043095629662275314
1716738016641237500,8.002237548828125,9.797372817993164,0.043095629662275314,0.040701430290937424
1716738016651237400,8.0122373046875,9.797372817993164,0.040701430290937424,0.043095629662275314
1716738016661237500,8.022237548828125,9.797372817993164,0.040701430290937424,0.040701430290937424
1716738016671237400,8.0322373046875,9.797372817993164,0.043095629662275314,0.040701430290937424
1716738016681237200,8.0422373046875,9.792584419250488,0.043095629662275314,0.040701430290937424
1716738016691237400,8.0522373046875,9.792584419250488,0.0454898327589035,0.043095629662275314
1716738016701237200,8.0622373046875,9.792584419250488,0.043095629662275314,0.043095629662275314
1716738016711237400,8.0722373046875,9.794978141784668,0.043095629662275314,0.040701430290937424
1716738016721237200,8.0822373046875,9.794978141784668,0.0454898327589035,0.043095629662275314
1716738016731237400,8.0922373046875,9.794978141784668,0.047884032130241394,0.040701430290937424
1716738016741237200,8.1022373046875,9.792584419250488,0.0454898327589035,0.040701430290937424
1716738016751237400,8.1122373046875,9.794978141784668,0.047884032130241394,0.040701430290937424
1716738016761237200,8.1222373046875,9.797372817993164,0.047884032130241394,0.040701430290937424
1716738016771237400,8.1322373046875,9.797372817993164,0.0454898327589035,0.038307227194309235
1716738016781237200,8.1422373046875,9.797372817993164,0.0454898327589035,0.040701430290937424
1716738016791237400,8.1522373046875,9.797372817993164,0.0454898327589035,0.040701430290937424
1716738016801237200,8.1622373046875,9.797372817993164,0.0454898327589035,0.038307227194309235
1716738016811237400,8.1722373046875,9.797372817993164,0.047884032130241394,0.038307227194309235
1716738016821237200,8.1822373046875,9.794978141784668,0.05027823522686958,0.038307227194309235
1716738016831237400,8.1922373046875,9.76864242553711,0.05267243832349777,0.035913024097681046
1716738016841237200,8.2022373046875,9.80216121673584,0.05267243832349777,0.035913024097681046
1716738016851237400,8.2122373046875,9.806949615478516,0.05027823522686958,0.038307227194309235
1716738016861237200,8.2222373046875,9.787796020507812,0.047884032130241394,0.040701430290937424
1716738016871237400,8.2322373046875,9.785401344299316,0.05027823522686958,0.038307227194309235
1716738016881237500,8.242237548828125,9.799766540527344,0.047884032130241394,0.035913024097681046
1716738016891237400,8.2522373046875,9.80216121673584,0.05027823522686958,0.038307227194309235
1716738016901237200,8.2622373046875,9.787796020507812,0.047884032130241394,0.040701430290937424
1716738016911237400,8.2722373046875,9.783007621765137,0.05027823522686958,0.040701430290937424
1716738016921237200,8.2822373046875,9.794978141784668,0.05027823522686958,0.040701430290937424
1716738016931237400,8.2922373046875,9.80455493927002,0.05027823522686958,0.043095629662275314
1716738016941237200,8.3022373046875,9.790189743041992,0.047884032130241394,0.043095629662275314
1716738016951237400,8.3122373046875,9.783007621765137,0.047884032130241394,0.043095629662275314
1716738016961237200,8.3222373046875,9.792584419250488,0.05027823522686958,0.043095629662275314
1716738016971237400,8.3322373046875,9.797372817993164,0.047884032130241394,0.040701430290937424
1716738016981237200,8.3422373046875,9.787796020507812,0.047884032130241394,0.043095629662275314
1716738016991237400,8.3522373046875,9.783007621765137,0.047884032130241394,0.043095629662275314
1716738017001237200,8.3622373046875,9.792584419250488,0.05027823522686958,0.043095629662275314
1716738017011237400,8.3722373046875,9.797372817993164,0.05027823522686958,0.043095629662275314
1716738017021237200,8.3822373046875,9.792584419250488,0.047884032130241394,0.043095629662275314
1716738017031237400,8.3922373046875,9.785401344299316,0.047884032130241394,0.043095629662275314
1716738017041237200,8.4022373046875,9.787796020507812,0.05027823522686958,0.0454898327589035
1716738017051237400,8.4122373046875,9.792584419250488,0.047884032130241394,0.043095629662275314
1716738017061237200,8.4222373046875,9.790189743041992,0.047884032130241394,0.043095629662275314
1716738017071237400,8.4322373046875,9.787796020507812,0.0454898327589035,0.040701430290937424
1716738017081237200,8.4422373046875,9.797372817993164,0.0454898327589035,0.0454898327589035
1716738017091237400,8.4522373046875,9.799766540527344,0.043095629662275314,0.043095629662275314
1716738017101237200,8.4622373046875,9.792584419250488,0.0454898327589035,0.040701430290937424
1716738017111237400,8.4722373046875,9.787796020507812,0.0454898327589035,0.040701430290937424
1716738017121237200,8.4822373046875,9.790189743041992,0.0454898327589035,0.040701430290937424
1716738017131237400,8.4922373046875,9.792584419250488,0.047884032130241394,0.038307227194309235
1716738017141237200,8.5022373046875,9.787796020507812,0.047884032130241394,0.038307227194309235
1716738017151237400,8.5122373046875,9.785401344299316,0.0454898327589035,0.040701430290937424
1716738017161237200,8.5222373046875,9.792584419250488,0.047884032130241394,0.040701430290937424
1716738017171237400,8.5322373046875,9.797372817993164,0.05027823522686958,0.040701430290937424
1716738017181237200,8.5422373046875,9.794978141784668,0.047884032130241394,0.040701430290937424
1716738017191237400,8.5522373046875,9.792584419250488,0.047884032130241394,0.040701430290937424
1716738017201237200,8.5622373046875,9.792584419250488,0.0454898327589035,0.043095629662275314
1716738017211237400,8.5722373046875,9.794978141784668,0.0454898327589035,0.040701430290937424
1716738017221237200,8.5822373046875,9.790189743041992,0.047884032130241394,0.038307227194309235
1716738017231237400,8.5922373046875,9.787796020507812,0.0454898327589035,0.040701430290937424
1716738017241237200,8.6022373046875,9.792584419250488,0.0454898327589035,0.043095629662275314
1716738017251237400,8.6122373046875,9.797372817993164,0.0454898327589035,0.047884032130241394
1716738017261237000,8.622237060546874,9.794978141784668,0.043095629662275314,0.047884032130241394
1716738017271237000,8.632237060546874,9.792584419250488,0.040701430290937424,0.047884032130241394
1716738017281237000,8.642237060546876,9.792584419250488,0.043095629662275314,0.05027823522686958
1716738017291237000,8.652237060546875,9.792584419250488,0.043095629662275314,0.05027823522686958
1716738017301237000,8.662237060546875,9.790189743041992,0.043095629662275314,0.05027823522686958
1716738017311237000,8.672237060546875,9.790189743041992,0.0454898327589035,0.05267243832349777
1716738017321237200,8.6822373046875,9.794978141784668,0.0454898327589035,0.05506663769483566
1716738017331237000,8.692237060546875,9.794978141784668,0.0454898327589035,0.05506663769483566
1716738017341237200,8.7022373046875,9.792584419250488,0.0454898327589035,0.05267243832349777
1716738017351237000,8.712237060546874,9.790189743041992,0.040701430290937424,0.05506663769483566
1716738017361237200,8.7222373046875,9.792584419250488,0.040701430290937424,0.05267243832349777
1716738017371237000,8.732237060546876,9.790189743041992,0.0454898327589035,0.05027823522686958
1716738017381237200,8.7422373046875,9.790189743041992,0.047884032130241394,0.047884032130241394
1716738017391237000,8.752237060546875,9.790189743041992,0.047884032130241394,0.047884032130241394
1716738017401237200,8.7622373046875,9.790189743041992,0.047884032130241394,0.047884032130241394
1716738017411237000,8.772237060546875,9.792584419250488,0.05027823522686958,0.0454898327589035
1716738017421237200,8.7822373046875,9.794978141784668,0.05027823522686958,0.047884032130241394
1716738017431237000,8.792237060546874,9.792584419250488,0.047884032130241394,0.047884032130241394
1716738017441237000,8.802237060546876,9.792584419250488,0.0454898327589035,0.047884032130241394
1716738017451237000,8.812237060546876,9.794978141784668,0.05027823522686958,0.043095629662275314
1716738017461237000,8.822237060546875,9.792584419250488,0.047884032130241394,0.043095629662275314
1716738017471237000,8.832237060546875,9.792584419250488,0.047884032130241394,0.043095629662275314
1716738017481237000,8.842237060546875,9.797372817993164,0.047884032130241394,0.043095629662275314
1716738017491237000,8.852237060546875,9.811738014221191,0.06703764945268631,0.047884032130241394
1716738017501237000,8.862237060546875,9.799766540527344,0.0454898327589035,0.043095629662275314
1716738017511237000,8.872237060546874,9.787796020507812,0.05267243832349777,0.05267243832349777
1716738017521237000,8.882237060546874,9.80216121673584,0.035913024097681046,0.05746084079146385
1716738017531237000,8.892237060546876,9.799766540527344,0.043095629662275314,0.05746084079146385
1716738017541237000,8.902237060546875,9.787796020507812,0.043095629662275314,0.033518824726343155
1716738017551237000,8.912237060546875,9.787796020507812,0.047884032130241394,0.033518824726343155
1716738017561237200,8.9222373046875,9.787796020507812,0.05985504388809204,0.040701430290937424
1716738017571237400,8.9322373046875,9.80216121673584,0.05267243832349777,0.05746084079146385
1716738017581237200,8.9422373046875,9.792584419250488,0.0454898327589035,0.047884032130241394
1716738017591237400,8.9522373046875,9.785401344299316,0.05267243832349777,0.06464344263076782
1716738017601237200,8.9622373046875,9.792584419250488,0.031124621629714966,0.038307227194309235
1716738017611237400,8.9722373046875,9.790189743041992,0.047884032130241394,0.031124621629714966
1716738017621237200,8.9822373046875,9.792584419250488,0.047884032130241394,0.043095629662275314
1716738017631237400,8.9922373046875,9.80216121673584,0.05506663769483566,0.033518824726343155
1716738017641237200,9.0022373046875,9.799766540527344,0.05267243832349777,0.035913024097681046
1716738017651237400,9.0122373046875,9.785401344299316,0.047884032130241394,0.05027823522686958
1716738017661237200,9.0222373046875,9.797372817993164,0.047884032130241394,0.038307227194309235
1716738017671237400,9.0322373046875,9.790189743041992,0.035913024097681046,0.05506663769483566
1716738017681237200,9.0422373046875,9.80216121673584,0.047884032130241394,0.05267243832349777
1716738017691237400,9.0522373046875,9.792584419250488,0.0454898327589035,0.031124621629714966
1716738017701237200,9.0622373046875,9.790189743041992,0.05746084079146385,0.026336219161748886
1716738017711237400,9.0722373046875,9.787796020507812,0.06464344263076782,0.0454898327589035
1716738017721237200,9.0822373046875,9.792584419250488,0.05267243832349777,0.038307227194309235
1716738017731237400,9.0922373046875,9.80455493927002,0.040701430290937424,0.040701430290937424
1716738017741237200,9.1022373046875,9.792584419250488,0.038307227194309235,0.047884032130241394
1716738017751237400,9.1122373046875,9.787796020507812,0.05746084079146385,0.05985504388809204
1716738017761237200,9.1222373046875,9.80455493927002,0.05506663769483566,0.038307227194309235
1716738017771237400,9.1322373046875,9.790189743041992,0.06703764945268631,0.0454898327589035
1716738017781237200,9.1422373046875,9.89314079284668,0.07661445438861847,0.031124621629714966
1716738017791237400,9.1522373046875,9.897929191589355,0.033518824726343155,0.0454898327589035
1716738017801237200,9.1622373046875,9.771036148071289,0.05027823522686958,0.040701430290937424
1716738017811237400,9.1722373046875,9.699210166931152,0.05267243832349777,0.0454898327589035
1716738017821237200,9.1822373046875,9.852438926696777,0.07422025501728058,0.0454898327589035
1716738017831237400,9.1922373046875,9.89553451538086,0.05985504388809204,0.05985504388809204
1716738017841237200,9.2022373046875,9.775824546813965,0.047884032130241394,0.05027823522686958
1716738017851237400,9.2122373046875,9.735123634338379,0.05985504388809204,0.05267243832349777
1716738017861237200,9.2222373046875,9.823708534240723,0.05746084079146385,0.038307227194309235
1716738017871237400,9.2322373046875,9.881169319152832,0.06703764945268631,0.05506663769483566
1716738017881237200,9.2422373046875,9.771036148071289,0.05506663769483566,0.038307227194309235
1716738017891237400,9.2522373046875,9.727940559387207,0.05746084079146385,0.038307227194309235
1716738017901237200,9.2622373046875,9.809343338012695,0.06464344263076782,0.033518824726343155
1716738017911237400,9.2722373046875,9.854833602905273,0.05985504388809204,0.047884032130241394
1716738017921237200,9.2822373046875,9.778219223022461,0.043095629662275314,0.038307227194309235
1716738017931237400,9.2922373046875,9.74470043182373,0.05267243832349777,0.040701430290937424
1716738017941237200,9.3022373046875,9.799766540527344,0.05027823522686958,0.043095629662275314
1716738017951237400,9.3122373046875,9.83807373046875,0.05267243832349777,0.05985504388809204
1716738017961237200,9.3222373046875,9.783007621765137,0.043095629662275314,0.06224924325942993
1716738017971237400,9.3322373046875,9.749488830566406,0.05267243832349777,0.0454898327589035
1716738017981237200,9.3422373046875,9.80455493927002,0.06464344263076782,0.05985504388809204
1716738017991237400,9.3522373046875,9.840468406677246,0.05267243832349777,0.05267243832349777
1716738018001237200,9.3622373046875,9.809343338012695,0.0454898327589035,0.038307227194309235
1716738018011237400,9.3722373046875,9.763854026794434,0.043095629662275314,0.05746084079146385
1716738018021237200,9.3822373046875,9.80216121673584,0.05267243832349777,0.040701430290937424
1716738018031237400,9.3922373046875,9.83568000793457,0.05985504388809204,0.05267243832349777
1716738018041237200,9.4022373046875,9.797372817993164,0.043095629662275314,0.05985504388809204
1716738018051237400,9.4122373046875,9.759065628051758,0.05746084079146385,0.05267243832349777
1716738018061237200,9.4222373046875,9.792584419250488,0.05506663769483566,0.038307227194309235
1716738018071237400,9.4322373046875,9.833285331726074,0.06464344263076782,0.05027823522686958
1716738018081237200,9.4422373046875,9.794978141784668,0.05267243832349777,0.05506663769483566
1716738018091237400,9.4522373046875,9.778219223022461,0.05506663769483566,0.05985504388809204
1716738018101237200,9.4622373046875,9.794978141784668,0.047884032130241394,0.0454898327589035
1716738018111237400,9.4722373046875,9.821314811706543,0.05267243832349777,0.05267243832349777
1716738018121237200,9.4822373046875,9.80455493927002,0.033518824726343155,0.05985504388809204
1716738018131237400,9.4922373046875,9.78061294555664,0.035913024097681046,0.031124621629714966
1716738018141237200,9.5022373046875,9.797372817993164,0.05985504388809204,0.033518824726343155
1716738018151237400,9.5122373046875,9.814131736755371,0.043095629662275314,0.05506663769483566
1716738018161237200,9.5222373046875,9.80216121673584,0.05027823522686958,0.05985504388809204
1716738018171237400,9.5322373046875,9.78061294555664,0.06464344263076782,0.08140286058187485
1716738018181237200,9.5422373046875,9.794978141784668,0.05506663769483566,0.05027823522686958
1716738018191237400,9.5522373046875,9.821314811706543,0.05506663769483566,0.06224924325942993
1716738018201237200,9.5622373046875,9.799766540527344,0.05506663769483566,0.05746084079146385
1716738018211237400,9.5722373046875,9.797372817993164,0.05267243832349777,0.038307227194309235
1716738018221237200,9.5822373046875,9.790189743041992,0.05985504388809204,0.047884032130241394
1716738018231237400,9.5922373046875,9.799766540527344,0.05267243832349777,0.047884032130241394
1716738018241237200,9.6022373046875,9.823708534240723,0.05267243832349777,0.07182604819536209
1716738018251237400,9.6122373046875,9.790189743041992,0.0454898327589035,0.05985504388809204
1716738018261237200,9.6222373046875,9.790189743041992,0.043095629662275314,0.035913024097681046
1716738018271237400,9.6322373046875,9.816526412963867,0.043095629662275314,0.05027823522686958
1716738018281237200,9.6422373046875,9.794978141784668,0.047884032130241394,0.038307227194309235
1716738018291237400,9.6522373046875,9.797372817993164,0.06224924325942993,0.026336219161748886
1716738018301237200,9.6622373046875,9.797372817993164,0.05267243832349777,0.05985504388809204
1716738018311237400,9.6722373046875,9.80216121673584,0.05506663769483566,0.047884032130241394
1716738018321237200,9.6822373046875,9.794978141784668,0.047884032130241394,0.05267243832349777
1716738018331237400,9.6922373046875,9.775824546813965,0.05985504388809204,0.05027823522686958
1716738018341237200,9.7022373046875,9.799766540527344,0.05267243832349777,0.043095629662275314
1716738018351237400,9.7122373046875,9.80455493927002,0.05985504388809204,0.05027823522686958
1716738018361237200,9.7222373046875,9.80455493927002,0.040701430290937424,0.05506663769483566
1716738018371237400,9.7322373046875,9.785401344299316,0.047884032130241394,0.0454898327589035
1716738018381237200,9.7422373046875,9.80216121673584,0.043095629662275314,0.047884032130241394
1716738018391237400,9.7522373046875,9.80455493927002,0.06224924325942993,0.043095629662275314
1716738018401237500,9.762237548828125,9.792584419250488,0.07182604819536209,0.040701430290937424
1716738018411237400,9.7722373046875,9.80455493927002,0.05027823522686958,0.05267243832349777
1716738018421237500,9.782237548828125,9.80216121673584,0.05746084079146385,0.05027823522686958
1716738018431237400,9.7922373046875,9.797372817993164,0.05746084079146385,0.06224924325942993
1716738018441237200,9.8022373046875,9.794978141784668,0.043095629662275314,0.035913024097681046
1716738018451237400,9.8122373046875,9.787796020507812,0.047884032130241394,0.047884032130241394
1716738018461237200,9.8222373046875,9.794978141784668,0.06224924325942993,0.0454898327589035
1716738018471237400,9.8322373046875,9.80455493927002,0.05506663769483566,0.05267243832349777
1716738018481237200,9.8422373046875,9.80216121673584,0.05267243832349777,0.05985504388809204
1716738018491237400,9.8522373046875,9.80455493927002,0.0454898327589035,0.05267243832349777
1716738018501237200,9.8622373046875,9.783007621765137,0.043095629662275314,0.06703764945268631
1716738018511237400,9.8722373046875,9.809343338012695,0.038307227194309235,0.05746084079146385
1716738018521237000,9.882237060546874,9.80216121673584,0.033518824726343155,0.026336219161748886
1716738018531236900,9.89223681640625,9.787796020507812,0.0454898327589035,0.047884032130241394
1716738018541237000,9.902237060546875,9.80455493927002,0.05027823522686958,0.05985504388809204
1716738018551236900,9.91223681640625,9.790189743041992,0.038307227194309235,0.038307227194309235
1716738018561237000,9.922237060546875,9.797372817993164,0.05746084079146385,0.05267243832349777
1716738018571236900,9.93223681640625,9.783007621765137,0.0454898327589035,0.06464344263076782
1716738018581237000,9.942237060546875,9.797372817993164,0.05985504388809204,0.0454898327589035
1716738018591236900,9.95223681640625,9.816526412963867,0.035913024097681046,0.05027823522686958
1716738018601237000,9.962237060546874,9.797372817993164,0.05267243832349777,0.035913024097681046
1716738018611236900,9.97223681640625,9.799766540527344,0.06464344263076782,0.05027823522686958
1716738018621237000,9.982237060546876,9.775824546813965,0.05985504388809204,0.05746084079146385
1716738018631236900,9.99223681640625,9.790189743041992,0.035913024097681046,0.047884032130241394
1716738018641237000,10.002237060546875,9.80216121673584,0.06224924325942993,0.05746084079146385
1716738018651236900,10.01223681640625,9.806949615478516,0.05506663769483566,0.047884032130241394
1716738018661237000,10.022237060546875,9.794978141784668,0.05027823522686958,0.05027823522686958
1716738018671236900,10.03223681640625,9.80216121673584,0.05985504388809204,0.047884032130241394
1716738018681237000,10.042237060546874,9.78061294555664,0.047884032130241394,0.05985504388809204
1716738018691236900,10.05223681640625,9.792584419250488,0.05506663769483566,0.019153613597154617
1716738018701237000,10.062237060546876,9.797372817993164,0.0694318488240242,0.05506663769483566
1716738018711236900,10.07223681640625,9.80216121673584,0.031124621629714966,0.05506663769483566
1716738018721237000,10.082237060546875,9.792584419250488,0.05267243832349777,0.035913024097681046
1716738018731236900,10.09223681640625,9.797372817993164,0.047884032130241394,0.019153613597154617
1716738018741237000,10.102237060546875,9.80455493927002,0.047884032130241394,0.06464344263076782
1716738018751236900,10.11223681640625,9.799766540527344,0.05506663769483566,0.038307227194309235
1716738018761237000,10.122237060546874,9.811738014221191,0.06224924325942993,0.043095629662275314
1716738018771236900,10.13223681640625,9.797372817993164,0.05027823522686958,0.043095629662275314
1716738018781237000,10.142237060546876,9.799766540527344,0.038307227194309235,0.040701430290937424
1716738018791236900,10.15223681640625,9.787796020507812,0.038307227194309235,0.0454898327589035
1716738018801237000,10.162237060546875,9.783007621765137,0.047884032130241394,0.05267243832349777
1716738018811236900,10.17223681640625,9.80455493927002,0.05746084079146385,0.05746084079146385
1716738018821237200,10.1822373046875,9.794978141784668,0.0454898327589035,0.043095629662275314
1716738018831237400,10.1922373046875,9.794978141784668,0.047884032130241394,0.040701430290937424
1716738018841237200,10.2022373046875,9.797372817993164,0.05506663769483566,0.05506663769483566
1716738018851237400,10.2122373046875,9.797372817993164,0.05027823522686958,0.05746084079146385
1716738018861237200,10.2222373046875,9.775824546813965,0.05746084079146385,0.05267243832349777
1716738018871237400,10.2322373046875,9.80455493927002,0.043095629662275314,0.035913024097681046
1716738018881237500,10.242237548828125,9.80216121673584,0.05027823522686958,0.06224924325942993
1716738018891237400,10.2522373046875,9.792584419250488,0.0454898327589035,0.05267243832349777
1716738018901237500,10.262237548828125,9.80455493927002,0.047884032130241394,0.05027823522686958
1716738018911237400,10.2722373046875,9.794978141784668,0.047884032130241394,0.05506663769483566
1716738018921237500,10.282237548828125,9.794978141784668,0.05027823522686958,0.05506663769483566
1716738018931237400,10.2922373046875,9.792584419250488,0.047884032130241394,0.05027823522686958
1716738018941237200,10.3022373046875,9.787796020507812,0.05267243832349777,0.0454898327589035
1716738018951237400,10.3122373046875,9.794978141784668,0.047884032130241394,0.06464344263076782
1716738018961237200,10.3222373046875,9.787796020507812,0.05506663769483566,0.0454898327589035
1716738018971237400,10.3322373046875,9.792584419250488,0.047884032130241394,0.05985504388809204
1716738018981237200,10.3422373046875,9.732728958129883,0.047884032130241394,0.040701430290937424
1716738018991237400,10.3522373046875,9.924264907836914,0.05746084079146385,0.0454898327589035
1716738019001237200,10.3622373046875,9.862015724182129,0.035913024097681046,0.040701430290937424
1716738019011237400,10.3722373046875,9.711181640625,0.05027823522686958,0.023942016065120697
1716738019021237200,10.3822373046875,9.706393241882324,0.035913024097681046,0.06703764945268631
1716738019031237400,10.3922373046875,9.854833602905273,0.05027823522686958,0.033518824726343155
1716738019041237200,10.4022373046875,9.890746116638184,0.0454898327589035,0.043095629662275314
1716738019051237400,10.4122373046875,9.742305755615234,0.05267243832349777,0.05506663769483566
1716738019061237200,10.4222373046875,9.699210166931152,0.05746084079146385,0.05027823522686958
1716738019071237400,10.4322373046875,9.847650527954102,0.06464344263076782,0.047884032130241394
1716738019081237200,10.4422373046875,9.89553451538086,0.047884032130241394,0.043095629662275314
1716738019091237400,10.4522373046875,9.759065628051758,0.05267243832349777,0.05985504388809204
1716738019101237200,10.4622373046875,9.706393241882324,0.043095629662275314,0.038307227194309235
1716738019111237400,10.4722373046875,9.814131736755371,0.05985504388809204,0.0454898327589035
1716738019121237200,10.4822373046875,9.854833602905273,0.05506663769483566,0.06224924325942993
1716738019131237400,10.4922373046875,9.759065628051758,0.047884032130241394,0.06224924325942993
1716738019141237200,10.5022373046875,9.720758438110352,0.05746084079146385,0.040701430290937424
1716738019151237400,10.5122373046875,9.816526412963867,0.05985504388809204,0.05746084079146385
1716738019161237200,10.5222373046875,9.847650527954102,0.05746084079146385,0.043095629662275314
1716738019171237400,10.5322373046875,9.775824546813965,0.047884032130241394,0.05027823522686958
1716738019181237200,10.5422373046875,9.742305755615234,0.05027823522686958,0.038307227194309235
1716738019191237400,10.5522373046875,9.816526412963867,0.05506663769483566,0.05027823522686958
1716738019201237200,10.5622373046875,9.862015724182129,0.047884032130241394,0.038307227194309235
1716738019211237400,10.5722373046875,9.783007621765137,0.05506663769483566,0.035913024097681046
1716738019221237200,10.5822373046875,9.742305755615234,0.05267243832349777,0.033518824726343155
1716738019231237400,10.5922373046875,9.80216121673584,0.05746084079146385,0.038307227194309235
1716738019241237200,10.6022373046875,9.840468406677246,0.05267243832349777,0.05506663769483566
1716738019251237400,10.6122373046875,9.78061294555664,0.033518824726343155,0.0454898327589035
1716738019261237200,10.6222373046875,9.754277229309082,0.043095629662275314,0.05027823522686958
1716738019271237400,10.6322373046875,9.806949615478516,0.038307227194309235,0.05506663769483566
1716738019281237200,10.6422373046875,9.842862129211426,0.06464344263076782,0.05506663769483566
1716738019291237400,10.6522373046875,9.78061294555664,0.05506663769483566,0.040701430290937424
1716738019301237200,10.6622373046875,9.756670951843262,0.033518824726343155,0.05506663769483566
1716738019311237400,10.6722373046875,9.799766540527344,0.038307227194309235,0.0454898327589035
1716738019321237200,10.6822373046875,9.816526412963867,0.06224924325942993,0.05506663769483566
1716738019331237400,10.6922373046875,9.787796020507812,0.05985504388809204,0.05506663769483566
1716738019341237200,10.7022373046875,9.763854026794434,0.05506663769483566,0.05027823522686958
1716738019351237400,10.7122373046875,9.814131736755371,0.05267243832349777,0.05985504388809204
1716738019361237200,10.7222373046875,9.809343338012695,0.031124621629714966,0.05027823522686958
1716738019371237400,10.7322373046875,9.797372817993164,0.031124621629714966,0.038307227194309235
1716738019381237200,10.7422373046875,9.771036148071289,0.0454898327589035,0.038307227194309235
1716738019391237400,10.7522373046875,9.797372817993164,0.05746084079146385,0.043095629662275314
1716738019401237200,10.7622373046875,9.814131736755371,0.05267243832349777,0.047884032130241394
1716738019411237400,10.7722373046875,9.790189743041992,0.043095629662275314,0.047884032130241394
1716738019421237200,10.7822373046875,9.773430824279785,0.05027823522686958,0.05506663769483566
1716738019431237400,10.7922373046875,9.787796020507812,0.06464344263076782,0.05746084079146385
1716738019441237200,10.8022373046875,9.80216121673584,0.05027823522686958,0.035913024097681046
1716738019451237400,10.8122373046875,9.792584419250488,0.05027823522686958,0.040701430290937424
1716738019461237200,10.8222373046875,9.773430824279785,0.040701430290937424,0.05746084079146385
1716738019471237400,10.8322373046875,9.787796020507812,0.047884032130241394,0.040701430290937424
1716738019481237200,10.8422373046875,9.799766540527344,0.0454898327589035,0.047884032130241394
1716738019491237400,10.8522373046875,9.792584419250488,0.047884032130241394,0.05267243832349777
1716738019501237200,10.8622373046875,9.775824546813965,0.0454898327589035,0.05506663769483566
1716738019511237400,10.8722373046875,9.78061294555664,0.047884032130241394,0.0454898327589035
1716738019521237200,10.8822373046875,9.811738014221191,0.05746084079146385,0.047884032130241394
1716738019531237400,10.8922373046875,9.785401344299316,0.05506663769483566,0.05027823522686958
1716738019541237200,10.9022373046875,9.778219223022461,0.043095629662275314,0.07422025501728058
1716738019551237400,10.9122373046875,9.799766540527344,0.031124621629714966,0.0454898327589035
1716738019561237200,10.9222373046875,9.811738014221191,0.0694318488240242,0.05985504388809204
1716738019571237400,10.9322373046875,9.811738014221191,0.05267243832349777,0.047884032130241394
1716738019581237200,10.9422373046875,9.778219223022461,0.0454898327589035,0.05506663769483566
1716738019591237400,10.9522373046875,9.78061294555664,0.05985504388809204,0.05027823522686958
1716738019601237200,10.9622373046875,9.792584419250488,0.05267243832349777,0.033518824726343155
1716738019611237400,10.9722373046875,9.787796020507812,0.05267243832349777,0.0454898327589035
1716738019621237200,10.9822373046875,9.78061294555664,0.0454898327589035,0.035913024097681046
1716738019631237400,10.9922373046875,9.778219223022461,0.043095629662275314,0.05746084079146385
1716738019641237200,11.0022373046875,9.809343338012695,0.06464344263076782,0.0454898327589035
1716738019651237400,11.0122373046875,9.790189743041992,0.05506663769483566,0.06464344263076782
1716738019661237200,11.0222373046875,9.785401344299316,0.05506663769483566,0.05746084079146385
1716738019671237400,11.0322373046875,9.790189743041992,0.06224924325942993,0.043095629662275314
1716738019681237200,11.0422373046875,9.80216121673584,0.0454898327589035,0.06224924325942993
1716738019691237400,11.0522373046875,9.792584419250488,0.06224924325942993,0.05267243832349777
1716738019701237200,11.0622373046875,9.785401344299316,0.05267243832349777,0.06464344263076782
1716738019711237400,11.0722373046875,9.787796020507812,0.033518824726343155,0.028730420395731926
1716738019721237200,11.0822373046875,9.792584419250488,0.047884032130241394,0.047884032130241394
1716738019731237400,11.0922373046875,9.797372817993164,0.05746084079146385,0.038307227194309235
1716738019741237200,11.1022373046875,9.790189743041992,0.040701430290937424,0.05506663769483566
1716738019751237400,11.1122373046875,9.785401344299316,0.05267243832349777,0.05027823522686958
1716738019761237200,11.1222373046875,9.814131736755371,0.05027823522686958,0.05027823522686958
1716738019771237400,11.1322373046875,9.790189743041992,0.05267243832349777,0.05267243832349777
1716738019781237200,11.1422373046875,9.775824546813965,0.05506663769483566,0.05027823522686958
1716738019791237400,11.1522373046875,9.783007621765137,0.047884032130241394,0.040701430290937424
1716738019801237200,11.1622373046875,9.806949615478516,0.0454898327589035,0.040701430290937424
1716738019811237400,11.1722373046875,9.790189743041992,0.0454898327589035,0.0454898327589035
1716738019821237200,11.1822373046875,9.783007621765137,0.05746084079146385,0.06703764945268631
1716738019831237400,11.1922373046875,9.794978141784668,0.043095629662275314,0.023942016065120697
1716738019841236700,11.20223681640625,9.783007621765137,0.06224924325942993,0.047884032130241394
1716738019851236900,11.21223681640625,9.790189743041992,0.06464344263076782,0.05267243832349777
1716738019861236700,11.22223681640625,9.775824546813965,0.06224924325942993,0.05746084079146385
1716738019871236900,11.23223681640625,9.783007621765137,0.05985504388809204,0.05506663769483566
1716738019881236700,11.24223681640625,9.790189743041992,0.040701430290937424,0.0454898327589035
1716738019891236900,11.25223681640625,9.794978141784668,0.047884032130241394,0.05027823522686958
1716738019901236700,11.26223681640625,9.799766540527344,0.05746084079146385,0.040701430290937424
1716738019911236900,11.27223681640625,9.78061294555664,0.05267243832349777,0.05746084079146385
1716738019921236700,11.28223681640625,9.790189743041992,0.043095629662275314,0.0454898327589035
1716738019931236900,11.29223681640625,9.787796020507812,0.05027823522686958,0.0454898327589035
1716738019941236700,11.30223681640625,9.783007621765137,0.040701430290937424,0.043095629662275314
1716738019951236900,11.31223681640625,9.74709415435791,0.06464344263076782,0.0454898327589035
1716738019961237800,11.32223779296875,9.907505989074707,0.06224924325942993,0.0454898327589035
1716738019971238000,11.33223779296875,9.792584419250488,0.031124621629714966,0.05746084079146385
1716738019981237800,11.34223779296875,9.742305755615234,0.05506663769483566,0.033518824726343155
1716738019991238000,11.35223779296875,9.787796020507812,0.05985504388809204,0.040701430290937424
1716738020001237800,11.36223779296875,9.854833602905273,0.0454898327589035,0.06224924325942993
1716738020011238000,11.37223779296875,9.792584419250488,0.0454898327589035,0.05267243832349777
1716738020021237800,11.38223779296875,9.739912033081055,0.0454898327589035,0.0454898327589035
1716738020031238000,11.39223779296875,9.787796020507812,0.05267243832349777,0.06224924325942993
1716738020041237800,11.40223779296875,9.857227325439453,0.040701430290937424,0.047884032130241394
1716738020051238000,11.41223779296875,9.816526412963867,0.035913024097681046,0.040701430290937424
1716738020061237800,11.42223779296875,9.739912033081055,0.05746084079146385,0.0454898327589035
1716738020071238000,11.43223779296875,9.783007621765137,0.031124621629714966,0.05746084079146385
1716738020081237800,11.44223779296875,9.83807373046875,0.05985504388809204,0.05985504388809204
1716738020091238000,11.45223779296875,9.787796020507812,0.06224924325942993,0.0454898327589035
1716738020101237800,11.46223779296875,9.756670951843262,0.038307227194309235,0.05027823522686958
1716738020111238000,11.47223779296875,9.76864242553711,0.040701430290937424,0.040701430290937424
1716738020121237800,11.48223779296875,9.818920135498047,0.05027823522686958,0.05506663769483566
1716738020131238000,11.49223779296875,9.799766540527344,0.06224924325942993,0.043095629662275314
1716738020141238300,11.50223828125,9.761459350585938,0.0454898327589035,0.021547814831137657
1716738020151238400,11.51223828125,9.792584419250488,0.05985504388809204,0.047884032130241394
1716738020161238300,11.52223828125,9.806949615478516,0.05267243832349777,0.038307227194309235
1716738020171238400,11.53223828125,9.794978141784668,0.047884032130241394,0.038307227194309235
1716738020181238300,11.54223828125,9.766247749328613,0.05267243832349777,0.05027823522686958
1716738020191238400,11.55223828125,9.783007621765137,0.05027823522686958,0.047884032130241394
1716738020201238300,11.56223828125,9.816526412963867,0.047884032130241394,0.043095629662275314
1716738020211238400,11.57223828125,9.809343338012695,0.05746084079146385,0.035913024097681046
1716738020221238300,11.58223828125,9.761459350585938,0.05746084079146385,0.06703764945268631
1716738020231238400,11.59223828125,9.787796020507812,0.040701430290937424,0.043095629662275314
1716738020241238300,11.60223828125,9.811738014221191,0.05027823522686958,0.038307227194309235
1716738020251238400,11.61223828125,9.797372817993164,0.05027823522686958,0.05506663769483566
1716738020261237200,11.6222373046875,9.778219223022461,0.047884032130241394,0.05267243832349777
1716738020271237400,11.6322373046875,9.775824546813965,0.0454898327589035,0.07661445438861847
1716738020281237200,11.6422373046875,9.80455493927002,0.05267243832349777,0.05506663769483566
1716738020291237400,11.6522373046875,9.792584419250488,0.05027823522686958,0.047884032130241394
1716738020301237200,11.6622373046875,9.773430824279785,0.05746084079146385,0.05746084079146385
1716738020311237400,11.6722373046875,9.78061294555664,0.0454898327589035,0.05746084079146385
1716738020321237200,11.6822373046875,9.80216121673584,0.047884032130241394,0.07182604819536209
1716738020331237400,11.6922373046875,9.799766540527344,0.05985504388809204,0.047884032130241394
1716738020341237200,11.7022373046875,9.785401344299316,0.05267243832349777,0.05027823522686958
1716738020351237400,11.7122373046875,9.790189743041992,0.0454898327589035,0.040701430290937424
1716738020361237200,11.7222373046875,9.806949615478516,0.05506663769483566,0.05267243832349777
1716738020371237400,11.7322373046875,9.80455493927002,0.047884032130241394,0.05746084079146385
1716738020381237200,11.7422373046875,9.790189743041992,0.040701430290937424,0.05506663769483566
1716738020391237400,11.7522373046875,9.794978141784668,0.043095629662275314,0.0454898327589035
1716738020401237200,11.7622373046875,9.794978141784668,0.038307227194309235,0.05506663769483566
1716738020411237400,11.7722373046875,9.80455493927002,0.0454898327589035,0.05506663769483566
1716738020421237200,11.7822373046875,9.783007621765137,0.05985504388809204,0.0454898327589035
1716738020431237400,11.7922373046875,9.797372817993164,0.05746084079146385,0.05746084079146385
1716738020441237200,11.8022373046875,9.799766540527344,0.040701430290937424,0.06224924325942993
1716738020451237400,11.8122373046875,9.80216121673584,0.05746084079146385,0.05267243832349777
1716738020461237200,11.8222373046875,9.785401344299316,0.043095629662275314,0.05267243832349777
1716738020471237400,11.8322373046875,9.797372817993164,0.035913024097681046,0.047884032130241394
1716738020481237200,11.8422373046875,9.806949615478516,0.040701430290937424,0.038307227194309235
1716738020491237400,11.8522373046875,9.787796020507812,0.06224924325942993,0.040701430290937424
1716738020501237200,11.8622373046875,9.790189743041992,0.047884032130241394,0.047884032130241394
1716738020511237400,11.8722373046875,9.785401344299316,0.05985504388809204,0.047884032130241394
1716738020521237200,11.8822373046875,9.792584419250488,0.05985504388809204,0.0454898327589035
1716738020531237400,11.8922373046875,9.80455493927002,0.05267243832349777,0.0694318488240242
1716738020541237200,11.9022373046875,9.792584419250488,0.05985504388809204,0.05506663769483566
1716738020551237400,11.9122373046875,9.790189743041992,0.0454898327589035,0.047884032130241394
1716738020561237200,11.9222373046875,9.794978141784668,0.06224924325942993,0.06224924325942993
1716738020571237400,11.9322373046875,9.787796020507812,0.06224924325942993,0.06464344263076782
1716738020581237200,11.9422373046875,9.792584419250488,0.047884032130241394,0.06224924325942993
1716738020591237400,11.9522373046875,9.80216121673584,0.05506663769483566,0.05746084079146385
1716738020601237200,11.9622373046875,9.792584419250488,0.043095629662275314,0.06464344263076782
1716738020611237400,11.9722373046875,9.797372817993164,0.05027823522686958,0.0454898327589035
1716738020621237200,11.9822373046875,9.78061294555664,0.047884032130241394,0.05506663769483566
1716738020631237400,11.9922373046875,9.78061294555664,0.026336219161748886,0.05027823522686958
1716738020641237200,12.0022373046875,9.797372817993164,0.038307227194309235,0.05746084079146385
1716738020651237400,12.0122373046875,9.787796020507812,0.05027823522686958,0.043095629662275314
1716738020661237200,12.0222373046875,9.792584419250488,0.06224924325942993,0.05027823522686958
1716738020671237400,12.0322373046875,9.792584419250488,0.05746084079146385,0.028730420395731926
1716738020681237200,12.0422373046875,9.787796020507812,0.05746084079146385,0.05746084079146385
1716738020691237400,12.0522373046875,9.799766540527344,0.035913024097681046,0.026336219161748886
1716738020701237200,12.0622373046875,9.778219223022461,0.05985504388809204,0.05027823522686958
1716738020711237400,12.0722373046875,9.792584419250488,0.038307227194309235,0.035913024097681046
1716738020721237200,12.0822373046875,9.797372817993164,0.05985504388809204,0.040701430290937424
1716738020731237400,12.0922373046875,9.797372817993164,0.06464344263076782,0.040701430290937424
1716738020741237200,12.1022373046875,9.783007621765137,0.0454898327589035,0.05267243832349777
1716738020751237400,12.1122373046875,9.794978141784668,0.038307227194309235,0.031124621629714966
1716738020761237200,12.1222373046875,9.797372817993164,0.05746084079146385,0.047884032130241394
1716738020771237400,12.1322373046875,9.787796020507812,0.05267243832349777,0.05746084079146385
1716738020781237200,12.1422373046875,9.794978141784668,0.05506663769483566,0.05267243832349777
1716738020791237400,12.1522373046875,9.790189743041992,0.05267243832349777,0.047884032130241394
1716738020801237200,12.1622373046875,9.787796020507812,0.06224924325942993,0.033518824726343155
1716738020811237400,12.1722373046875,9.785401344299316,0.05985504388809204,0.047884032130241394
1716738020821237200,12.1822373046875,9.794978141784668,0.05746084079146385,0.05506663769483566
1716738020831237400,12.1922373046875,9.792584419250488,0.05506663769483566,0.038307227194309235
1716738020841237200,12.2022373046875,9.794978141784668,0.05267243832349777,0.05746084079146385
1716738020851237400,12.2122373046875,9.792584419250488,0.0454898327589035,0.06224924325942993
1716738020861237200,12.2222373046875,9.787796020507812,0.043095629662275314,0.06703764945268631
1716738020871237400,12.2322373046875,9.806949615478516,0.038307227194309235,0.040701430290937424
1716738020881237200,12.2422373046875,9.794978141784668,0.05267243832349777,0.040701430290937424
1716738020891237400,12.2522373046875,9.775824546813965,0.05506663769483566,0.0454898327589035
1716738020901237200,12.2622373046875,9.790189743041992,0.047884032130241394,0.047884032130241394
1716738020911237400,12.2722373046875,9.792584419250488,0.043095629662275314,0.0454898327589035
1716738020921237200,12.2822373046875,9.787796020507812,0.047884032130241394,0.05746084079146385
1716738020931237400,12.2922373046875,9.775824546813965,0.05746084079146385,0.05267243832349777
1716738020941237200,12.3022373046875,9.787796020507812,0.05027823522686958,0.05267243832349777
1716738020951237400,12.3122373046875,9.790189743041992,0.0454898327589035,0.05267243832349777
1716738020961237200,12.3222373046875,9.80216121673584,0.047884032130241394,0.038307227194309235
1716738020971237400,12.3322373046875,9.792584419250488,0.05267243832349777,0.038307227194309235
1716738020981237200,12.3422373046875,9.790189743041992,0.0454898327589035,0.05506663769483566
1716738020991237400,12.3522373046875,9.766247749328613,0.0454898327589035,0.047884032130241394
1716738021001237200,12.3622373046875,9.799766540527344,0.07900865375995636,0.019153613597154617
1716738021011237400,12.3722373046875,10.008062362670898,0.035913024097681046,0.05985504388809204
1716738021021237200,12.3822373046875,9.648932456970215,0.021547814831137657,0.038307227194309235
1716738021031237400,12.3922373046875,9.660902976989746,0.05267243832349777,0.05746084079146385
1716738021041237200,12.4022373046875,9.833285331726074,0.05506663769483566,0.05027823522686958
1716738021051237400,12.4122373046875,9.92665958404541,0.026336219161748886,0.038307227194309235
1716738021061237200,12.4222373046875,9.723152160644531,0.06703764945268631,0.05746084079146385
1716738021071237400,12.4322373046875,9.663297653198242,0.05267243832349777,0.047884032130241394
1716738021081237200,12.4422373046875,9.842862129211426,0.05985504388809204,0.05267243832349777
1716738021091237400,12.4522373046875,9.92665958404541,0.05506663769483566,0.040701430290937424
1716738021101237200,12.4622373046875,9.74709415435791,0.05985504388809204,0.07422025501728058
1716738021111237400,12.4722373046875,9.658509254455566,0.038307227194309235,0.06464344263076782
1716738021121237200,12.4822373046875,9.830891609191895,0.05746084079146385,0.05027823522686958
1716738021131237400,12.4922373046875,9.924264907836914,0.05267243832349777,0.05027823522686958
1716738021141237200,12.5022373046875,9.76864242553711,0.047884032130241394,0.0454898327589035
1716738021151237400,12.5122373046875,9.682451248168945,0.040701430290937424,0.05506663769483566
1716738021161237200,12.5222373046875,9.818920135498047,0.0454898327589035,0.05027823522686958
1716738021171237400,12.5322373046875,9.909899711608887,0.033518824726343155,0.040701430290937424
1716738021181237200,12.5422373046875,9.785401344299316,0.047884032130241394,0.05506663769483566
1716738021191237400,12.5522373046875,9.701604843139648,0.05027823522686958,0.047884032130241394
1716738021201237200,12.5622373046875,9.80455493927002,0.06464344263076782,0.040701430290937424
1716738021211237400,12.5722373046875,9.866804122924805,0.06464344263076782,0.040701430290937424
1716738021221237200,12.5822373046875,9.80455493927002,0.05027823522686958,0.05027823522686958
1716738021231237400,12.5922373046875,9.715970039367676,0.05027823522686958,0.047884032130241394
1716738021241237200,12.6022373046875,9.799766540527344,0.06464344263076782,0.035913024097681046
1716738021251237400,12.6122373046875,9.8691987991333,0.05746084079146385,0.06464344263076782
1716738021261237200,12.6222373046875,9.797372817993164,0.033518824726343155,0.040701430290937424
1716738021271237400,12.6322373046875,9.723152160644531,0.05267243832349777,0.040701430290937424
1716738021281237200,12.6422373046875,9.790189743041992,0.040701430290937424,0.033518824726343155
1716738021291237400,12.6522373046875,9.857227325439453,0.05027823522686958,0.043095629662275314
1716738021301237200,12.6622373046875,9.80455493927002,0.05746084079146385,0.040701430290937424
1716738021311237400,12.6722373046875,9.742305755615234,0.047884032130241394,0.05267243832349777
1716738021321237200,12.6822373046875,9.778219223022461,0.05985504388809204,0.05746084079146385
1716738021331237400,12.6922373046875,9.847650527954102,0.047884032130241394,0.06224924325942993
1716738021341237200,12.7022373046875,9.797372817993164,0.0454898327589035,0.047884032130241394
1716738021351237400,12.7122373046875,9.739912033081055,0.05506663769483566,0.043095629662275314
1716738021361237200,12.7222373046875,9.773430824279785,0.038307227194309235,0.0454898327589035
1716738021371237400,12.7322373046875,9.830891609191895,0.06224924325942993,0.035913024097681046
1716738021381237200,12.7422373046875,9.794978141784668,0.06464344263076782,0.05027823522686958
1716738021391237400,12.7522373046875,9.754277229309082,0.05267243832349777,0.038307227194309235
1716738021401237200,12.7622373046875,9.771036148071289,0.0454898327589035,0.05267243832349777
1716738021411237400,12.7722373046875,9.830891609191895,0.05267243832349777,0.05267243832349777
1716738021421237200,12.7822373046875,9.80455493927002,0.047884032130241394,0.06224924325942993
1716738021431237400,12.7922373046875,9.763854026794434,0.043095629662275314,0.043095629662275314
1716738021441237200,12.8022373046875,9.787796020507812,0.05985504388809204,0.06703764945268631
1716738021451237400,12.8122373046875,9.821314811706543,0.043095629662275314,0.043095629662275314
1716738021461237200,12.8222373046875,9.80216121673584,0.06224924325942993,0.040701430290937424
1716738021471237400,12.8322373046875,9.771036148071289,0.06224924325942993,0.05027823522686958
1716738021481237200,12.8422373046875,9.78061294555664,0.05985504388809204,0.028730420395731926
1716738021491237400,12.8522373046875,9.818920135498047,0.06703764945268631,0.038307227194309235
1716738021501237200,12.8622373046875,9.80216121673584,0.038307227194309235,0.047884032130241394
1716738021511237400,12.8722373046875,9.775824546813965,0.033518824726343155,0.047884032130241394
1716738021521237200,12.8822373046875,9.778219223022461,0.035913024097681046,0.0454898327589035
1716738021531237400,12.8922373046875,9.799766540527344,0.06464344263076782,0.0454898327589035
1716738021541237200,12.9022373046875,9.794978141784668,0.047884032130241394,0.047884032130241394
1716738021551237400,12.9122373046875,9.785401344299316,0.05985504388809204,0.05985504388809204
1716738021561237200,12.9222373046875,9.778219223022461,0.035913024097681046,0.05746084079146385
1716738021571237400,12.9322373046875,9.816526412963867,0.05267243832349777,0.035913024097681046
1716738021581237200,12.9422373046875,9.799766540527344,0.05027823522686958,0.031124621629714966
1716738021591237400,12.9522373046875,9.766247749328613,0.0454898327589035,0.047884032130241394
1716738021601237200,12.9622373046875,9.790189743041992,0.0454898327589035,0.05506663769483566
1716738021611237400,12.9722373046875,9.792584419250488,0.07661445438861847,0.0454898327589035
1716738021621237200,12.9822373046875,9.797372817993164,0.05506663769483566,0.031124621629714966
1716738021631237400,12.9922373046875,9.773430824279785,0.05746084079146385,0.043095629662275314
1716738021641237200,13.0022373046875,9.78061294555664,0.038307227194309235,0.033518824726343155
1716738021651237400,13.0122373046875,9.794978141784668,0.05746084079146385,0.05506663769483566
1716738021661237200,13.0222373046875,9.809343338012695,0.047884032130241394,0.033518824726343155
1716738021671237400,13.0322373046875,9.778219223022461,0.047884032130241394,0.047884032130241394
1716738021681237200,13.0422373046875,9.785401344299316,0.035913024097681046,0.06703764945268631
1716738021691237400,13.0522373046875,9.80216121673584,0.05267243832349777,0.038307227194309235
1716738021701237200,13.0622373046875,9.794978141784668,0.047884032130241394,0.05506663769483566
1716738021711237400,13.0722373046875,9.785401344299316,0.05027823522686958,0.038307227194309235
