time,seconds_elapsed,z,y,x
1716736830345308000,0.133307861328125,0.07000923156738281,0.014526896178722382,-0.0032991766929626465
1716736830355307000,0.14330712890625,0.0700082778930664,0.014569759368896484,-0.0032888129353523254
1716736830365306400,0.153306396484375,0.07000923156738281,0.01451239362359047,-0.0032760240137577057
1716736830375306000,0.163305908203125,0.07001018524169922,0.014510232955217361,-0.0033760257065296173
1716736830385305900,0.173305908203125,0.07000923156738281,0.014558974653482437,-0.0034270770847797394
1716736830395305700,0.1833056640625,0.07000923156738281,0.01462060958147049,-0.003420725464820862
1716736830405305300,0.193305419921875,0.07000923156738281,0.01460564136505127,-0.0033971741795539856
1716736830415305200,0.20330517578125,0.0700082778930664,0.014733545482158661,-0.003365594893693924
1716736830425305000,0.21330517578125,0.07000923156738281,0.014657117426395416,-0.003348562866449356
1716736830435305000,0.223304931640625,0.07000923156738281,0.01464860513806343,-0.0033869370818138123
1716736830445305000,0.23330517578125,0.07000923156738281,0.014652948826551437,-0.0033678263425827026
1716736830455305000,0.243304931640625,0.07000923156738281,0.014625322073698044,-0.003401864320039749
1716736830465304800,0.253304931640625,0.07000923156738281,0.014687325805425644,-0.003395766019821167
1716736830475304700,0.2633046875,0.07000923156738281,0.014672491699457169,-0.003372449427843094
1716736830485304600,0.2733046875,0.0700063705444336,0.01403733715415001,-0.0025272853672504425
1716736830495304700,0.2833046875,0.07000446319580078,0.013318940997123718,-0.0016030631959438324
1716736830505304600,0.2933046875,0.07000350952148438,0.012747377157211304,-0.000832241028547287
1716736830515304400,0.303304443359375,0.07000160217285156,0.012167230248451233,-0.00009977072477340698
1716736830525304300,0.31330419921875,0.07000064849853516,0.011568009853363037,0.0006369389593601227
1716736830535304400,0.323304443359375,0.06999969482421875,0.011236712336540222,0.0011329129338264465
1716736830545304300,0.33330419921875,0.06999874114990234,0.010705452412366867,0.001814287155866623
1716736830555304200,0.34330419921875,0.06999969482421875,0.01057988777756691,0.0017016269266605377
1716736830565304300,0.35330419921875,0.06999874114990234,0.010153066366910934,0.002399798482656479
1716736830575304200,0.36330419921875,0.06999683380126953,0.009870793670415878,0.0028444863855838776
1716736830585304000,0.373303955078125,0.06999588012695312,0.009988147765398026,0.0029185786843299866
1716736830595304200,0.38330419921875,0.06999588012695312,0.009994342923164368,0.0028569549322128296
1716736830605304000,0.393303955078125,0.06999588012695312,0.009652119129896164,0.0032148361206054688
1716736830615304200,0.40330419921875,0.06999588012695312,0.009656332433223724,0.003234017640352249
1716736830625304000,0.413303955078125,0.06999588012695312,0.009766969829797745,0.003189191222190857
1716736830635304000,0.423303955078125,0.06999588012695312,0.009822040796279907,0.0030764564871788025
1716736830645304000,0.433303955078125,0.06999588012695312,0.009826235473155975,0.003095734864473343
1716736830655304000,0.443303955078125,0.06999588012695312,0.009824272245168686,0.003176439553499222
1716736830665304000,0.453303955078125,0.06999588012695312,0.00982419028878212,0.003176577389240265
1716736830675304000,0.463303955078125,0.06999588012695312,0.009821832180023193,0.0030766725540161133
1716736830685304000,0.473303955078125,0.06999588012695312,0.009550154209136963,0.003478802740573883
1716736830695304000,0.483303955078125,0.06999588012695312,0.009535223245620728,0.003502253443002701
1716736830705304000,0.493303955078125,0.06999492645263672,0.009596653282642365,0.003508828580379486
1716736830715304000,0.503303955078125,0.06999397277832031,0.00926298275589943,0.0039049945771694183
1716736830725304000,0.513303955078125,-0.025774002075195312,-0.0006112903356552124,-0.00280921533703804
1716736830735304000,0.523303955078125,-0.02577495574951172,-0.0032495707273483276,-0.0023729316890239716
1716736830745304000,0.533303955078125,-0.023380279541015625,-0.008095193654298782,0.0024280771613121033
1716736830755304000,0.543303955078125,-0.02337932586669922,-0.008207801729440689,0.0023726671934127808
1716736830765304000,0.553303955078125,-0.025774002075195312,-0.010672327131032944,0.0047224052250385284
1716736830775304000,0.563303955078125,-0.028167724609375,-0.008335612714290619,0.0071294717490673065
1716736830785304000,0.573303955078125,-0.028166770935058594,-0.005998954176902771,0.00714237242937088
1716736830795304000,0.583303955078125,-0.028168678283691406,-0.00551857054233551,0.006954889744520187
1716736830805304000,0.593303955078125,-0.028168678283691406,-0.0030581913888454437,0.006980136036872864
1716736830815304000,0.603303955078125,-0.028167724609375,-0.007859501987695694,0.006922844797372818
1716736830825304000,0.613303955078125,-0.028168678283691406,-0.005104146897792816,0.004166696220636368
1716736830835304000,0.623303955078125,-0.02577495574951172,-0.004600204527378082,0.006207164376974106
1716736830845304000,0.633303955078125,-0.028169631958007812,-0.004211511462926865,0.0034852027893066406
1716736830855304000,0.643303955078125,-0.028168678283691406,-0.006595179438591003,0.0010484792292118073
1716736830865304000,0.653303955078125,-0.028169631958007812,-0.006154898554086685,-0.0016250759363174438
1716736830875304000,0.663303955078125,-0.02817058563232422,-0.005753234028816223,-0.0018955804407596588
1716736830885304000,0.673303955078125,-0.02577686309814453,-0.003290947526693344,-0.0019510015845298767
1716736830895304000,0.683303955078125,-0.02817058563232422,-0.005619201809167862,-0.004319645464420319
1716736830905304000,0.693303955078125,-0.02817058563232422,-0.0008499212563037872,-0.0019212663173675537
1716736830915304000,0.703303955078125,-0.028171539306640625,-0.0031784139573574066,-0.001895565539598465
1716736830925304000,0.713303955078125,-0.028171539306640625,-0.0032358653843402863,0.00051155686378479
1716736830935304000,0.723303955078125,-0.030565261840820312,-0.0009120404720306396,0.0028612278401851654
1716736830945304000,0.733303955078125,-0.030567169189453125,-0.005291897803544998,0.002890549600124359
1716736830955304000,0.743303955078125,-0.030570030212402344,-0.0047707147896289825,0.005188349634408951
1716736830965304000,0.753303955078125,-0.02817535400390625,-0.004773024469614029,0.002875223755836487
1716736830975304000,0.763303955078125,-0.02578258514404297,-0.006733261048793793,0.005051791667938232
1716736830985304000,0.773303955078125,-0.028177261352539062,-0.0018406286835670471,0.007462993264198303
1716736830995304000,0.783303955078125,-0.02817535400390625,0.0007914714515209198,0.00948244333267212
1716736831005304000,0.793303955078125,-0.025780677795410156,0.0009654760360717773,0.0066072456538677216
1716736831015304000,0.803303955078125,-0.020989418029785156,-0.0011481977999210358,0.003667917102575302
1716736831025304000,0.813303955078125,-0.02338409423828125,0.003625057637691498,0.0012973584234714508
1716736831035304000,0.823303955078125,-0.023382186889648438,0.0013578757643699646,0.0007867962121963501
1716736831045304000,0.833303955078125,-0.025775909423828125,0.0037010647356510162,-0.0016564056277275085
1716736831055304000,0.843303955078125,-0.023378372192382812,0.003502674400806427,-0.0020943060517311096
1716736831065304000,0.853303955078125,-0.023378372192382812,0.001102212816476822,-0.006821047514677048
1716736831075304000,0.863303955078125,-0.023378372192382812,0.0010937564074993134,-0.0068594589829444885
1716736831085304000,0.873303955078125,-0.023377418518066406,0.0010363981127738953,-0.006846670061349869
1716736831095304000,0.883303955078125,-0.02098560333251953,0.0008177272975444794,-0.0039011910557746887
1716736831105304000,0.893303955078125,-0.020986557006835938,0.000815466046333313,-0.0038201473653316498
1716736831115304000,0.903303955078125,-0.02337932586669922,0.0008129850029945374,-0.003919836133718491
1716736831125304000,0.913303955078125,-0.02098560333251953,0.0007937140762805939,-0.006309695541858673
1716736831135304000,0.923303955078125,-0.02098846435546875,0.003058645874261856,-0.003323882818222046
1716736831145304000,0.933303955078125,-0.023383140563964844,0.0004925206303596497,-0.0005294680595397949
1716736831155304000,0.943303955078125,-0.023383140563964844,-0.004366107285022736,0.0018200352787971497
1716736831165304000,0.953303955078125,-0.02577972412109375,-0.004352990537881851,0.002239242196083069
1716736831175304000,0.963303955078125,-0.025780677795410156,-0.0019120797514915466,0.002269044518470764
1716736831185304000,0.973303955078125,-0.02577972412109375,-0.0020310766994953156,-0.00011871010065078735
1716736831195304000,0.983303955078125,-0.023386001586914062,-0.0019204728305339813,-0.00016360729932785034
1716736831205304000,0.993303955078125,-0.023385047912597656,-0.0019778385758399963,-0.00015081465244293213
1716736831215304000,1.003303955078125,-0.02338695526123047,0.00047180429100990295,-0.004871238023042679
1716736831225304000,1.013303955078125,-0.023389816284179688,0.0008913800120353699,-0.0045228637754917145
1716736831235304000,1.023303955078125,-0.023389816284179688,0.0033471621572971344,-0.004516474902629852
1716736831245304000,1.033303955078125,-0.023390769958496094,0.003293890506029129,-0.006878644227981567
1716736831255304000,1.043303955078125,-0.023389816284179688,0.0008868314325809479,-0.006935968995094299
1716736831265304000,1.053303955078125,-0.020997047424316406,0.0009462200105190277,-0.00924278050661087
1716736831275304000,1.063303955078125,-0.02099895477294922,0.003168601542711258,-0.00626755878329277
1716736831285304000,1.073303955078125,-0.018604278564453125,0.0031559839844703674,-0.006325189024209976
1716736831295304000,1.083303955078125,-0.018606185913085938,0.002994995564222336,-0.005786862224340439
1716736831305304000,1.093303955078125,-0.018606185913085938,0.0029439106583595276,-0.005835834890604019
1716736831315304000,1.103303955078125,-0.01860523223876953,0.0029927007853984833,-0.0010984092950820923
1716736831325304000,1.113303955078125,-0.01860523223876953,0.0005898885428905487,-0.00353085994720459
1716736831335304000,1.123303955078125,-0.02100086212158203,-0.002067435532808304,-0.000696226954460144
1716736831345304000,1.133303955078125,-0.021001815795898438,-0.00440206378698349,-0.0030031390488147736
1716736831355304000,1.143303955078125,-0.021001815795898438,-0.006672840565443039,-0.0029905997216701508
1716736831365304000,1.153303955078125,-0.021001815795898438,-0.0067300014197826385,-0.005372203886508942
1716736831375304000,1.163303955078125,-0.018607139587402344,-0.009143605828285217,-0.002973496913909912
1716736831385304000,1.173303955078125,-0.01861095428466797,-0.006412915885448456,-0.0025461241602897644
1716736831395304000,1.183303955078125,-0.018611907958984375,-0.0040208809077739716,-0.000071011483669281
1716736831405304000,1.193303955078125,-0.02100658416748047,-0.0016265586018562317,0.0023231245577335358
1716736831415304000,1.203303955078125,-0.021005630493164062,-0.004148378968238831,-0.0001028887927532196
1716736831425304000,1.213303955078125,-0.018613815307617188,-0.0013114698231220245,0.00007950514554977417
1716736831435304000,1.223303955078125,-0.018613815307617188,0.0010317414999008179,-0.004757843911647797
1716736831445304000,1.233303955078125,-0.018613815307617188,-0.0012518204748630524,-0.004802674055099487
1716736831455304000,1.243303955078125,-0.018613815307617188,0.0010851547122001648,-0.0023958422243595123
1716736831465304000,1.253303955078125,-0.018616676330566406,0.003630850464105606,-0.001987650990486145
1716736831475304000,1.263303955078125,-0.018619537353515625,0.0013945475220680237,-0.0016411244869232178
1716736831485303600,1.273303466796875,-0.018619537353515625,0.0013987049460411072,-0.0016219131648540497
1716736831495303700,1.2833037109375,-0.018619537353515625,0.0014030374586582184,-0.00160280242562294
1716736831505303600,1.293303466796875,-0.02101421356201172,0.0013882927596569061,-0.0015794560313224792
1716736831515303700,1.3033037109375,-0.016225814819335938,-0.0034064091742038727,-0.0015178509056568146
1716736831525303600,1.313303466796875,-0.03059101104736328,0.01102469488978386,0.017661355435848236
1716736831535303700,1.3233037109375,-0.016225814819335938,0.00863037258386612,0.003296211361885071
1716736831545303600,1.333303466796875,-0.016225814819335938,0.01334850862622261,0.0008575022220611572
1716736831555303700,1.3433037109375,-0.013831138610839844,-0.0057947710156440735,0.01757458597421646
1716736831565303600,1.353303466796875,-0.01861572265625,-0.018044719472527504,0.00516330823302269
1716736831575303700,1.3633037109375,-0.1479015350341797,0.013022739440202713,-0.006795108318328857
1716736831585303600,1.373303466796875,0.14897918701171875,0.008157961070537567,0.0004043988883495331
1716736831595303700,1.3833037109375,0.1441946029663086,-0.001961633563041687,0.012014288455247879
1716736831605303600,1.393303466796875,-0.1383209228515625,-0.0163225419819355,0.009639132767915726
1716736831615303700,1.4033037109375,-0.22930145263671875,0.002960953861474991,0.0025883838534355164
1716736831625303600,1.413303466796875,0.06039619445800781,0.014925338327884674,-0.004713274538516998
1716736831635303700,1.4233037109375,0.18489742279052734,0.017074692994356155,0.016728557646274567
1716736831645303600,1.433303466796875,-0.06409549713134766,-0.002511393278837204,-0.0004365295171737671
1716736831655303700,1.4433037109375,-0.17662334442138672,-0.002326555550098419,0.011553667485713959
1716736831665303600,1.453303466796875,0.05082511901855469,0.01682693511247635,-0.00041726604104042053
1716736831675303700,1.4633037109375,0.13702106475830078,0.01143629103899002,-0.000865742564201355
1716736831685303600,1.473303466796875,-0.07366752624511719,0.0017212778329849243,0.013510212302207947
1716736831695303700,1.4833037109375,-0.1383075714111328,0.0014442801475524902,-0.008377555757761002
1716736831705303600,1.493303466796875,0.012525558471679688,-0.0032268352806568146,-0.020274434238672256
1716736831715303700,1.5033037109375,0.10350704193115234,0.01064932718873024,-0.0009715370833873749
1716736831725303600,1.513303466796875,-0.05929851531982422,0.001002330332994461,0.0013780295848846436
1716736831735303700,1.5233037109375,-0.12154769897460938,-0.006180215626955032,0.001377992331981659
1716736831745303600,1.533303466796875,0.022104263305664062,-0.0013450384140014648,0.013378772884607315
1716736831755303400,1.543303466796875,0.0891427993774414,0.010513227432966232,-0.005830068141222
1716736831765303600,1.553303466796875,-0.044928550720214844,-0.01875142753124237,0.008393239229917526
1716736831775303700,1.5633037109375,-0.11196708679199219,-0.016240227967500687,0.006073508411645889
1716736831785303600,1.573303466796875,0.000560760498046875,-0.004326704889535904,0.006086371839046478
1716736831795303700,1.5833037109375,0.06759929656982422,-0.0020603053271770477,0.015631478279829025
1716736831805303600,1.593303466796875,-0.01619720458984375,0.00533682107925415,0.010453503578901291
1716736831818947000,1.606947021484375,-0.11675357818603516,-0.0042355917394161224,-0.006286837160587311
1716736831828947000,1.616947021484375,0.0005617141723632812,-0.004192966967821121,0.00569472461938858
1716736831838947000,1.626947021484375,0.050841331481933594,-0.0015971139073371887,-0.001934938132762909
1716736831848947000,1.636947021484375,-0.018589019775390625,-0.015713732689619064,-0.0071406289935112
1716736831858947000,1.646947021484375,-0.08323287963867188,-0.018103785812854767,0.014426402747631073
1716736831868947000,1.656947021484375,-0.02098560333251953,-0.005552295595407486,-0.016888022422790527
1716736831878947000,1.666947021484375,0.043656349182128906,0.006882172077894211,-0.0026060640811920166
1716736831888947000,1.676947021484375,-0.028169631958007812,-0.007540430873632431,-0.004987534135580063
1716736831898947000,1.686947021484375,-0.07126998901367188,0.005051944404840469,0.002458341419696808
1716736831908947000,1.696947021484375,-0.016203880310058594,-0.002207137644290924,-0.004707295447587967
1716736831918947000,1.706947021484375,0.03646564483642578,-0.008957743644714355,-0.016453132033348083
1716736831928947000,1.716947021484375,-0.016206741333007812,0.007848378270864487,-0.006846517324447632
1716736831938947000,1.726947021484375,-0.06169700622558594,0.010304216295480728,0.021890252828598022
1716736831948947000,1.736947021484375,-0.01620769500732422,0.005458451807498932,0.026691440492868423
1716736831958947000,1.746947021484375,0.04125785827636719,-0.006785169243812561,0.011824261397123337
1716736831968947000,1.756947021484375,-0.011414527893066406,0.0004021674394607544,0.01663147285580635
1716736831978947000,1.766947021484375,-0.0569000244140625,-0.004333619028329849,0.008693404495716095
1716736831988947000,1.776947021484375,-0.016196250915527344,0.014815032482147217,-0.015810158103704453
1716736831998947000,1.786947021484375,0.012534141540527344,0.007617529481649399,0.010549571365118027
1716736832008947000,1.796947021484375,-0.020984649658203125,-0.004410877823829651,-0.010985516011714935
1716736832018947000,1.806947021484375,-0.0521087646484375,-0.009192895144224167,0.0009237565100193024
1716736832028947000,1.816947021484375,-0.02098369598388672,0.012346591800451279,0.0032794736325740814
1716736832038947000,1.826947021484375,0.012537956237792969,0.009603314101696014,-0.008995454758405685
1716736832048947000,1.836947021484375,-0.013796806335449219,0.00948406383395195,-0.0065946802496910095
1716736832058947000,1.846947021484375,-0.03773784637451172,0.008922543376684189,-0.018379896879196167
1716736832068947000,1.856947021484375,-0.03294849395751953,0.0036495327949523926,-0.00845373049378395
1716736832078947000,1.866947021484375,0.0029630661010742188,-0.016005542129278183,-0.003030829131603241
1716736832088947500,1.876947509765625,-0.009007453918457031,-0.015943627804517746,-0.012601528316736221
1716736832098947300,1.886947265625,-0.025771141052246094,-0.01815672218799591,-0.00008798763155937195
1716736832108947500,1.896947509765625,-0.028168678283691406,0.010978490114212036,0.007466282695531845
1716736832118947300,1.906947265625,-0.006622314453125,0.0062621645629405975,0.009824443608522415
1716736832128947500,1.916947509765625,-0.025775909423828125,-0.0009393729269504547,0.02179952710866928
1716736832138947300,1.926947265625,-0.04971790313720703,0.0038598738610744476,-0.009186867624521255
1716736832148947500,1.936947509765625,-0.02817058563232422,-0.010456372052431107,0.0003387033939361572
1716736832158947300,1.946947265625,-0.01859283447265625,-0.000994507223367691,0.005152881145477295
1716736832168947500,1.956947509765625,-0.023380279541015625,0.01085725799202919,0.014736268669366837
1716736832178947300,1.966947265625,-0.030562400817871094,-0.008434411138296127,0.02671784535050392
1716736832188947500,1.976947509765625,-0.03056049346923828,-0.005944937467575073,-0.0025764890015125275
1716736832198947300,1.986947265625,0.014932632446289062,0.0038479194045066833,0.011137768626213074
1716736832208947500,1.996947509765625,-0.018587112426757812,0.0015006735920906067,-0.0008035711944103241
1716736832218947300,2.006947265625,-0.03773975372314453,-0.008069939911365509,0.011105801910161972
1716736832228947500,2.016947509765625,-0.0209808349609375,-0.005690388381481171,0.0015522092580795288
1716736832238947300,2.026947265625,-0.00901031494140625,-0.008080437779426575,-0.015187982469797134
1716736832248947500,2.036947509765625,-0.02337646484375,-0.010130152106285095,-0.0010806098580360413
1716736832258947300,2.046947265625,-0.047318458557128906,0.004239242523908615,0.01090966910123825
1716736832268947500,2.056947509765625,-0.016193389892578125,-0.0005000755190849304,0.010858356952667236
1716736832278947600,2.066947509765625,-0.013797760009765625,0.002110574394464493,-0.006371382623910904
1716736832288947500,2.076947509765625,-0.02576732635498047,-0.004815138876438141,0.007614966481924057
1716736832298947600,2.086947509765625,-0.016190528869628906,-0.004815232008695602,0.01479770615696907
1716736832308947500,2.096947509765625,-0.016190528869628906,-0.004885382950305939,0.0027819648385047913
1716736832318947600,2.106947509765625,-0.02097797393798828,0.00020470470190048218,0.0047269538044929504
1716736832328947500,2.116947509765625,-0.023369789123535156,-0.011394556611776352,-0.012617893517017365
1716736832338947600,2.126947509765625,-0.02097606658935547,0.010076630860567093,0.00415864959359169
1716736832348947500,2.136947509765625,-0.013792991638183594,0.02205197885632515,0.02333136275410652
1716736832358947600,2.146947509765625,-0.011396408081054688,0.0002163723111152649,0.011063061654567719
1716736832368947500,2.156947509765625,-0.013790130615234375,0.009797748178243637,-0.0032832399010658264
1716736832378947600,2.166947509765625,-0.032939910888671875,-0.004914715886116028,-0.006062004715204239
1716736832388947500,2.176947509765625,-0.008997917175292969,0.009441819041967392,-0.00610022246837616
1716736832398947600,2.186947509765625,-0.013785362243652344,-0.0026375912129878998,-0.006136346608400345
1716736832408947500,2.196947509765625,-0.035330772399902344,0.0014892779290676117,-0.006129316985607147
1716736832418947600,2.206947509765625,-0.02575397491455078,0.013526134192943573,-0.013286396861076355
1716736832428947500,2.216947509765625,-0.035330772399902344,-0.0036669783294200897,-0.010493863373994827
1716736832438947600,2.226947509765625,-0.01617717742919922,0.010683495551347733,-0.008076313883066177
1716736832448947500,2.236947509765625,-0.01617908477783203,-0.011312507092952728,-0.0122622549533844
1716736832458947300,2.246947265625,-0.0281524658203125,0.014953888952732086,-0.006975911557674408
1716736832468947500,2.256947509765625,-0.02096843719482422,-0.01868622377514839,0.004901587963104248
1716736832478947300,2.266947265625,-0.004208564758300781,-0.009109284728765488,0.00968991219997406
1716736832488947500,2.276947509765625,-0.020972251892089844,0.0032576248049736023,0.019600387662649155
1716736832498947300,2.286947265625,-0.02097034454345703,-0.0013757571578025818,0.007152482867240906
1716736832508947500,2.296947509765625,-0.02336406707763672,-0.010967489331960678,0.007175937294960022
1716736832518947300,2.306947265625,-0.013785362243652344,-0.005953807383775711,0.009137846529483795
1716736832528947500,2.316947509765625,-0.3513679504394531,0.015598341822624207,0.006762746721506119
1716736832538947300,2.326947265625,0.08677387237548828,0.015427522361278534,-0.0032178647816181183
1716736832548947500,2.336947509765625,0.2136678695678711,-0.013534605503082275,0.02785785123705864
1716736832558947300,2.346947265625,-0.030538558959960938,-0.03728792071342468,0.0008364021778106689
1716736832568947500,2.356947509765625,-0.3058738708496094,0.0019763410091400146,0.014807004481554031
1716736832578947300,2.366947265625,-0.08321094512939453,0.01186317577958107,-0.014515232294797897
1716736832588947500,2.376947509765625,0.23761367797851562,0.02358284220099449,0.004594266414642334
1716736832598947300,2.386947265625,0.06044197082519531,-0.0028107017278671265,-0.009758256375789642
1716736832608947500,2.396947509765625,-0.25319862365722656,0.004608180373907089,0.0046747587621212006
1716736832618947300,2.406947265625,-0.07123756408691406,0.006784997880458832,-0.017125923186540604
1716736832628947500,2.416947509765625,0.20170307159423828,0.004207879304885864,-0.007648985832929611
1716736832638947300,2.426947265625,0.019744873046875,-0.007895175367593765,-0.0029113665223121643
1716736832648947500,2.436947509765625,-0.19334030151367188,-0.0005339309573173523,-0.010013245046138763
1716736832658947300,2.446947265625,-0.07602596282958984,-0.0004169866442680359,-0.005150429904460907
1716736832668947500,2.456947509765625,0.12987709045410156,-0.0029749609529972076,-0.010042984038591385
1716736832678947300,2.466947265625,0.0628366470336914,0.023287348449230194,0.009589329361915588
1716736832688947500,2.476947509765625,-0.1670064926147461,-0.0033508017659187317,-0.006901659071445465
1716736832698947300,2.486947265625,-0.06884574890136719,0.006058435887098312,0.0030943676829338074
1716736832708947500,2.496947509765625,0.12747859954833984,-0.0012433603405952454,0.005495112389326096
1716736832718947300,2.506947265625,0.041289329528808594,0.003355741500854492,0.01024538278579712
1716736832728947500,2.516947509765625,-0.13348770141601562,-0.02291223406791687,-0.011358026415109634
1716736832738947300,2.526947265625,-0.08320999145507812,-0.018062066286802292,0.0006192661821842194
1716736832748947500,2.536947509765625,0.09396076202392578,0.001076776534318924,0.012613549828529358
1716736832758947300,2.546947265625,0.03410625457763672,0.0014061816036701202,-0.011562664061784744
1716736832768947500,2.556947509765625,-0.12151813507080078,0.020676739513874054,0.017242159694433212
1716736832778947300,2.566947265625,-0.07842350006103516,0.013543128967285156,-0.006570104509592056
1716736832788947500,2.576947509765625,0.05804634094238281,-0.0056806690990924835,-0.006614740937948227
1716736832798947300,2.586947265625,0.058048248291015625,-0.00579356774687767,-0.006669800728559494
1716736832808947500,2.596947509765625,-0.08321094512939453,-0.015434179455041885,-0.018566250801086426
1716736832818947300,2.606947265625,-0.0664510726928711,-0.01057993620634079,0.00300709530711174
1716736832828947500,2.616947509765625,0.04128742218017578,0.008497010916471481,-0.008946683257818222
1716736832838947300,2.626947265625,0.0388946533203125,0.01077195629477501,-0.011334307491779327
1716736832848947500,2.636947509765625,-0.05447959899902344,-0.005983248353004456,-0.018497738987207413
1716736832858947300,2.646947265625,-0.047303199768066406,-0.012926612049341202,-0.00802985206246376
1716736832868947500,2.656947509765625,0.03170490264892578,-0.003364603966474533,0.003964539617300034
1716736832878947300,2.666947265625,0.024519920349121094,0.0015816055238246918,-0.017236780375242233
1716736832888947500,2.676947509765625,-0.05928325653076172,0.001871298998594284,-0.01426403596997261
1716736832898947300,2.686947265625,-0.04252338409423828,0.018685996532440186,-0.018984287977218628
1716736832908947500,2.696947509765625,0.034087181091308594,0.01851453259587288,0.013082996010780334
1716736832918947300,2.706947265625,-0.009008407592773438,0.017960011959075928,0.0015973933041095734
1716736832928947500,2.716947509765625,-0.06407356262207031,-0.004334017634391785,-0.007631964981555939
1716736832938947300,2.726947265625,-0.02337169647216797,-0.004709947854280472,0.014301080256700516
1716736832948947500,2.736947509765625,0.029300689697265625,-0.011907212436199188,0.004747472703456879
1716736832958947300,2.746947265625,0.005358695983886719,-0.009564056992530823,0.0214579738676548
1716736832968947500,2.756947509765625,-0.06167793273925781,-0.002205483615398407,0.006712000817060471
1716736832978947300,2.766947265625,-0.03773689270019531,-0.011678308248519897,0.011517561972141266
1716736832988947500,2.776947509765625,0.024514198303222656,0.019624408334493637,0.008661609143018723
1716736832998947300,2.786947265625,0.005360603332519531,0.00998413935303688,0.013524293899536133
1716736833008947500,2.796947509765625,-0.061672210693359375,0.00981973111629486,-0.006275903433561325
1716736833018947300,2.806947265625,-0.030549049377441406,0.007468309253454208,0.010493889451026917
1716736833028947500,2.816947509765625,0.014945030212402344,0.002337157726287842,-0.004236944019794464
1716736833038947300,2.826947265625,0.005372047424316406,0.004339318722486496,-0.006945345550775528
1716736833048947500,2.836947509765625,-0.042511940002441406,-0.005195055156946182,-0.016511477530002594
1716736833058947300,2.846947265625,-0.03293609619140625,-0.002739250659942627,-0.016505025327205658
1716736833068947500,2.856947509765625,-0.011388778686523438,0.02120697870850563,0.012244578450918198
1716736833078947300,2.866947265625,-0.011387825012207031,-0.007593818008899689,0.0002290382981300354
1716736833088947500,2.876947509765625,-0.042510032653808594,0.01584838330745697,0.009997960180044174
1716736833098947300,2.886947265625,-0.03053760528564453,-0.027660071849822998,-0.016386721283197403
1716736833108947500,2.896947509765625,-0.00659942626953125,0.010860227048397064,0.0031816475093364716
1716736833118947300,2.906947265625,-0.0018100738525390625,0.01050102710723877,0.01303953304886818
1716736833128947500,2.916947509765625,-0.03293323516845703,-0.003851328045129776,-0.008631903678178787
1716736833138947300,2.926947265625,-0.02335643768310547,0.008104942739009857,0.020121857523918152
1716736833148947500,2.936947509765625,-0.008988380432128906,0.005382787436246872,0.005367644131183624
1716736833158947300,2.946947265625,-0.004199981689453125,-0.0017404407262802124,0.0030608586966991425
1716736833168947500,2.956947509765625,-0.04490184783935547,-0.0017405040562152863,-0.0017275065183639526
1716736833178947300,2.966947265625,-0.03293037414550781,-0.008937764912843704,-0.0017043128609657288
1716736833188947500,2.976947509765625,-0.0018062591552734375,0.003043554723262787,-0.008929215371608734
1716736833198947300,2.986947265625,-0.011383056640625,-0.006552480161190033,-0.001742187887430191
1716736833208947500,2.996947509765625,-0.02814197540283203,0.010279159992933273,-0.0041725970804691315
1716736833218947300,3.006947265625,-0.035325050354003906,-0.01400303840637207,-0.0015013441443443298
1716736833228947500,3.016947509765625,-0.006594657897949219,-0.011604536324739456,-0.0014823004603385925
1716736833238947300,3.026947265625,-0.008988380432128906,-0.006892632693052292,-0.011042054742574692
1716736833248947500,3.036947509765625,-0.02814197540283203,0.005201898515224457,-0.006241094321012497
1716736833258947300,3.046947265625,-0.023354530334472656,0.00040500983595848083,-0.008492674678564072
1716736833268947500,3.056947509765625,-0.016175270080566406,-0.006672900170087814,-0.012902554124593735
1716736833278947300,3.066947265625,-0.00899505615234375,-0.016087371855974197,-0.0005660727620124817
1716736833288947500,3.076947509765625,-0.004210472106933594,-0.0036394745111465454,-0.005018953233957291
1716736833298947300,3.086947265625,-0.020974159240722656,-0.008131612092256546,0.01447027176618576
1716736833308947500,3.096947509765625,-0.011397361755371094,-0.012915533035993576,-0.0022702179849147797
1716736833318947300,3.106947265625,-0.020978927612304688,-0.004945911467075348,-0.00695284828543663
1716736833328947500,3.116947509765625,-0.023372650146484375,-0.00015302374958992004,0.000248689204454422
1716736833338947300,3.126947265625,-0.02576732635498047,-0.02169683761894703,0.0074506886303424835
1716736833348947500,3.136947509765625,-0.006617546081542969,-0.01142842322587967,-0.004574470221996307
1716736833358947300,3.146947265625,-0.011408805847167969,-0.008568108081817627,0.0002302713692188263
1716736833368947500,3.156947509765625,-0.013805389404296875,0.0016532987356185913,0.017087023705244064
1716736833378947300,3.166947265625,-0.023382186889648438,0.02086000144481659,0.012266688048839569
1716736833388947500,3.176947509765625,-0.009016990661621094,-0.007872767746448517,-0.0021984390914440155
1716736833398947300,3.186947265625,0.0005598068237304688,0.006435073912143707,0.009785361588001251
1716736833408947500,3.196947509765625,-0.01859283447265625,-0.0006987787783145905,0.002551719546318054
1716736833418947300,3.206947265625,-0.025774002075195312,-0.005359940230846405,-0.0003532432019710541
1716736833428947500,3.216947509765625,-0.018590927124023438,-0.0029658228158950806,-0.017112519592046738
1716736833438947300,3.226947265625,-0.01619720458984375,-0.007811777293682098,-0.007522817701101303
1716736833448947500,3.236947509765625,-0.02337932586669922,0.006476990878582001,-0.0003231912851333618
1716736833458947300,3.246947265625,-0.013802528381347656,-0.003095664083957672,0.018849633634090424
1716736833468947200,3.256947265625,-0.028166770935058594,0.004373569041490555,-0.005518075078725815
1716736833478947000,3.266947021484375,-0.01380157470703125,-0.007593192160129547,0.004077967256307602
1716736833488947200,3.276947265625,-0.018590927124023438,-0.0004168488085269928,0.00892803817987442
1716736833498947000,3.286947021484375,-0.016195297241210938,0.0018688514828681946,0.013680294156074524
1716736833508947200,3.296947265625,-0.03056049346923828,-0.0077780745923519135,-0.005517993122339249
1716736833518947000,3.306947021484375,-0.013800621032714844,-0.007667623460292816,0.011196702718734741
1716736833528947000,3.316947021484375,-0.03056049346923828,0.002127978950738907,-0.0059331320226192474
1716736833538947000,3.326947021484375,-0.01858806610107422,0.014035526663064957,0.0013237521052360535
1716736833548947000,3.336947021484375,-0.01140594482421875,-0.00032330676913261414,0.0036562196910381317
1716736833558947000,3.346947021484375,-0.030559539794921875,0.0020623765885829926,0.006012044847011566
1716736833568947000,3.356947021484375,-0.018583297729492188,0.0018147751688957214,-0.023285817354917526
1716736833578947000,3.366947021484375,-0.011402130126953125,-0.005665238946676254,-0.0012696459889411926
1716736833588947200,3.376947265625,-0.025771141052246094,-0.0030154436826705933,-0.0008443668484687805
1716736833598947000,3.386947021484375,-0.025771141052246094,-0.010255564004182816,0.003956984728574753
1716736833608947000,3.396947021484375,-0.01619434356689453,-0.012713421136140823,0.013608191162347794
1716736833618947000,3.406947021484375,-0.01619434356689453,-0.005539305508136749,0.001598857343196869
1716736833628947000,3.416947021484375,-0.02816486358642578,0.0016432106494903564,-0.012766215950250626
1716736833638947000,3.426947021484375,-0.01619720458984375,-0.0001043863594532013,-0.003172989934682846
1716736833648947000,3.436947021484375,-0.2604055404663086,0.002332311123609543,-0.007950767874717712
1716736833658947000,3.446947021484375,0.1513967514038086,0.028611168265342712,-0.010332178324460983
1716736833668947000,3.456947021484375,0.17294788360595703,-0.014909669756889343,0.0015325285494327545
1716736833678947000,3.466947021484375,-0.049713134765625,-0.031609490513801575,0.018198199570178986
1716736833688947000,3.476947021484375,-0.27716541290283203,-0.0021088719367980957,0.015832968056201935
1716736833698947000,3.486947021484375,-0.03535270690917969,0.02702132612466812,-0.001116286963224411
1716736833708947200,3.496947265625,0.20885848999023438,0.002772826701402664,0.010742377489805222
1716736833718947000,3.506947021484375,0.031688690185546875,-0.002315651625394821,0.008174009621143341
1716736833728947200,3.516947265625,-0.2484292984008789,-0.007064219564199448,0.017299845814704895
1716736833738947000,3.526947021484375,-0.04731464385986328,0.01229763776063919,0.009608358144760132
1716736833748947200,3.536947265625,0.18253326416015625,0.007191859185695648,-0.002975206822156906
1716736833758947000,3.546947021484375,0.019733428955078125,-0.007573764771223068,-0.005903005599975586
1716736833768947500,3.556947509765625,-0.178985595703125,0.018811266869306564,0.006016936153173447
1716736833778947300,3.566947265625,-0.08321952819824219,-0.004894480109214783,-0.010674674063920975
1716736833788947500,3.576947509765625,0.1250762939453125,-0.004896804690361023,-0.01556292176246643
1716736833798947300,3.586947265625,0.03409767150878906,0.014199413359165192,-0.015550203621387482
1716736833808947500,3.596947509765625,-0.15265178680419922,0.004501774907112122,-0.007918506860733032
1716736833818947300,3.606947265625,-0.07364559173583984,0.021027609705924988,-0.005130607634782791
1716736833828947500,3.616947509765625,0.09395027160644531,0.001117117702960968,-0.007134780287742615
1716736833838947300,3.626947265625,0.03409576416015625,-0.020802704617381096,-0.009124334901571274
1716736833848947500,3.636947509765625,-0.12392234802246094,-0.015891186892986298,-0.0019288398325443268
1716736833858947300,3.646947265625,-0.0904073715209961,-0.015611585229635239,0.003299277275800705
1716736833868947500,3.656947509765625,0.08197307586669922,0.006202224642038345,0.02026059851050377
1716736833878947300,3.666947265625,0.043663978576660156,-0.005273446440696716,0.010472748428583145
1716736833888947500,3.676947509765625,-0.1191415786743164,-0.007289141416549683,0.022158242762088776
1716736833898947300,3.686947265625,-0.0688629150390625,0.00020131468772888184,0.031224310398101807
1716736833908947500,3.696947509765625,0.065216064453125,-0.004456125199794769,0.01121753454208374
1716736833918947300,3.706947265625,0.038886070251464844,0.007698949426412582,0.010151512920856476
1716736833928947500,3.716947509765625,-0.07602977752685547,-0.011444859206676483,-0.0027662478387355804
1716736833938947300,3.726947265625,-0.05926990509033203,-0.011158227920532227,-0.0007977336645126343
1716736833948947500,3.736947509765625,0.048470497131347656,0.0007426030933856964,0.006340228021144867
1716736833958947300,3.746947265625,0.02213573455810547,0.015307530760765076,-0.013360541313886642
1716736833968947500,3.756947509765625,-0.08320903778076172,0.015311669558286667,-0.010947134345769882
1716736833978947300,3.766947265625,-0.04729652404785156,0.015366952866315842,-0.03242679312825203
1716736833988947500,3.776947509765625,0.038893699645996094,0.009932249784469604,-0.022142823785543442
1716736833998947300,3.786947265625,0.01973724365234375,-0.009754620492458344,-0.016592245548963547
1716736834008947500,3.796947509765625,-0.06406307220458984,-0.012269388884305954,-0.027752550318837166
1716736834018947300,3.806947265625,-0.056885719299316406,0.023699842393398285,-0.026780275627970695
1716736834028947500,3.816947509765625,0.010146141052246094,0.004105065017938614,0.008002541959285736
1716736834038947300,3.826947265625,0.012537956237792969,0.0014075934886932373,0.003924775868654251
1716736834048947500,3.836947509765625,-0.06407833099365234,-0.008313369005918503,0.021118279546499252
1716736834058947300,3.846947265625,-0.05929088592529297,-0.012922786176204681,0.030775532126426697
1716736834068947500,3.856947509765625,0.01732349395751953,0.013342976570129395,0.00439491868019104
1716736834078947600,3.866947509765625,0.017328262329101562,-0.010782398283481598,0.025481246411800385
1716736834088947500,3.876947509765625,-0.061676979064941406,-0.027404559776186943,0.012776412069797516
1716736834098947300,3.886947265625,-0.047310829162597656,-0.022148631513118744,0.007381167262792587
1716736834108947500,3.896947509765625,0.01972675323486328,-0.0047411248087882996,-0.000408317893743515
1716736834118947300,3.906947265625,0.0053615570068359375,-0.0018983520567417145,0.003958344459533691
1716736834128947500,3.916947509765625,-0.05209922790527344,0.012873150408267975,0.010889306664466858
1716736834138947300,3.926947265625,-0.047310829162597656,0.01053401455283165,0.010776571929454803
1716736834148947500,3.936947509765625,0.002971649169921875,0.02245090901851654,-0.004279773682355881
1716736834158947300,3.946947265625,-0.004206657409667969,0.01008598506450653,0.00009416788816452026
1716736834168947500,3.956947509765625,-0.037720680236816406,0.011990565806627274,-0.012269940227270126
1716736834178947300,3.966947265625,-0.047298431396484375,0.016776852309703827,-0.009794861078262329
1716736834188947500,3.976947509765625,-0.011383056640625,0.020924732089042664,-0.019268658012151718
1716736834198947300,3.986947265625,0.000591278076171875,-0.0015546232461929321,-0.0261225663125515
1716736834208947500,3.996947509765625,-0.040111541748046875,0.004981860518455505,-0.0038677379488945007
1716736834218947300,4.006947265625,-0.030536651611328125,-0.00021868571639060974,-0.003192868083715439
1716736834228947500,4.016947509765625,0.00058746337890625,-0.01501714438199997,-0.0026138611137866974
1716736834238947300,4.026947265625,-0.018568992614746094,-0.00795319676399231,-0.002064742147922516
1716736834248947500,4.036947509765625,-0.03293323516845703,-0.005610231310129166,0.01943427324295044
1716736834258947300,4.046947265625,-0.035330772399902344,-0.0025906115770339966,-0.009375538676977158
1716736834268947500,4.056947509765625,-0.006603240966796875,-0.004688668996095657,0.00771954283118248
1716736834278947300,4.066947265625,-0.004208564758300781,0.00004237145185470581,0.02209753915667534
1716736834288947500,4.076947509765625,-0.040122032165527344,-0.012005139142274857,0.010143589228391647
1716736834298947300,4.086947265625,-0.03293895721435547,0.002422057092189789,0.029303278774023056
1716736834308947500,4.096947509765625,-0.006600379943847656,-0.026170626282691956,-0.02631671167910099
1716736834318947300,4.106947265625,-0.0066013336181640625,-0.0018311850726604462,-0.014635290950536728
1716736834328947500,4.116947509765625,-0.035332679748535156,0.0006181709468364716,-0.002596057951450348
1716736834338947300,4.126947265625,-0.025754928588867188,-0.006566792726516724,-0.002695966511964798
1716736834348947500,4.136947509765625,-0.008998870849609375,0.005942825227975845,-0.016900260001420975
1716736834358947300,4.146947265625,0.002971649169921875,0.0107228122651577,-0.01215020939707756
1716736834368947500,4.156947509765625,-0.0281524658203125,0.022742759436368942,-0.014595553278923035
1716736834378947300,4.166947265625,-0.03294086456298828,-0.0035893097519874573,-0.019364744424819946
1716736834388947500,4.176947509765625,-0.009001731872558594,0.010568372905254364,0.0030533261597156525
1716736834398947300,4.186947265625,-0.013791084289550781,-0.008580747991800308,-0.016081348061561584
1716736834408947500,4.196947509765625,-0.03055286407470703,-0.00397680327296257,0.01796085387468338
1716736834418947300,4.206947265625,-0.030551910400390625,-0.02320060133934021,0.0011567994952201843
1716736834428947500,4.216947509765625,-0.018581390380859375,0.010379794985055923,-0.0036252103745937347
1716736834438947300,4.226947265625,-0.016188621520996094,0.02002905309200287,0.018067285418510437
1716736834448947500,4.236947509765625,-0.03055095672607422,-0.006715763360261917,0.0034918561577796936
1716736834458947300,4.246947265625,-0.018575668334960938,0.005018539726734161,0.015033453702926636
1716736834468947500,4.256947509765625,-0.025754928588867188,-0.011920109391212463,0.012197088450193405
1716736834478947300,4.266947265625,-0.008993148803710938,-0.021369704976677895,-0.007467359304428101
1716736834488947500,4.276947509765625,-0.008992195129394531,0.002501972019672394,0.016430191695690155
1716736834498947300,4.286947265625,-0.013779640197753906,0.007288016378879547,-0.007611732929944992
1716736834508947500,4.296947509765625,-0.013780593872070312,0.0048982203006744385,0.0043783485889434814
1716736834518947300,4.306947265625,-0.018568038940429688,-0.00481046736240387,0.0067215897142887115
1716736834528947500,4.316947509765625,-0.03293323516845703,0.00010135769844055176,-0.01720789074897766
1716736834538947300,4.326947265625,-0.025751113891601562,0.01434757187962532,-0.012413062155246735
1716736834548947000,4.336947021484375,-0.020963668823242188,0.002017386257648468,-0.0023741796612739563
1716736834558947000,4.346947021484375,-0.013781547546386719,-0.01513313502073288,-0.004359390586614609
1716736834568947000,4.356947021484375,-0.02575206756591797,0.011139370501041412,-0.0018907710909843445
1716736834578947000,4.366947021484375,-0.03054046630859375,0.0015539899468421936,-0.00432315468788147
1716736834588947000,4.376947021484375,-0.008993148803710938,-0.003240864723920822,0.010103829205036163
1716736834598947000,4.386947021484375,0.0029783248901367188,0.011196542531251907,0.005279324948787689
1716736834608947000,4.396947021484375,-0.03293418884277344,0.02076055109500885,0.012404412031173706
1716736834618947000,4.406947021484375,-0.02095794677734375,-0.018272563815116882,0.02648983523249626
1716736834628947000,4.416947021484375,-0.016164779663085938,-0.011199366301298141,0.001788545399904251
1716736834638947000,4.426947021484375,-0.008978843688964844,0.0032653994858264923,0.006032165139913559
1716736834648947000,4.436947021484375,-0.028130531311035156,-0.015829093754291534,0.00797094777226448
1716736834658947000,4.446947021484375,-0.030524253845214844,-0.01084509864449501,-0.004385452717542648
1716736834668947000,4.456947021484375,-0.020946502685546875,0.0014531128108501434,0.009645462036132812
1716736834678947000,4.466947021484375,-0.030523300170898438,-0.007837079465389252,-0.0051454342901706696
1716736834688947000,4.476947021484375,-0.028128623962402344,0.008913855999708176,-0.017154760658740997
1716736834698947000,4.486947021484375,-0.013763427734375,0.008913785219192505,-0.02194313332438469
1716736834708947000,4.496947021484375,0.0029964447021484375,0.03756788372993469,-0.060233477503061295
1716736834718947000,4.506947021484375,0.33339500427246094,0.012516811490058899,-0.044535450637340546
1716736834728947000,4.516947021484375,0.2902946472167969,-0.04322494566440582,0.00003732740879058838
1716736834738947000,4.526947021484375,-0.25319862365722656,-0.040367744863033295,0.00369466096162796
1716736834748947000,4.536947021484375,-0.3872861862182617,0.006303872913122177,-0.000031381845474243164
1716736834758947000,4.546947021484375,0.23041343688964844,0.018471434712409973,-0.0017259642481803894
1716736834768947000,4.556947021484375,0.38364124298095703,0.001359499990940094,0.017827730625867844
1716736834778947000,4.566947021484375,-0.10716915130615234,-0.01301419734954834,0.005818404257297516
1716736834788947000,4.576947021484375,-0.38968849182128906,-0.005346629768610001,0.010800149291753769
1716736834798947000,4.586947021484375,0.05563163757324219,0.0066733770072460175,-0.0010410994291305542
1716736834808947000,4.596947021484375,0.3166027069091797,0.020681090652942657,0.005980152636766434
1716736834818947000,4.606947021484375,-0.0664682388305664,-0.00338667631149292,0.013050217181444168
1716736834828947000,4.616947021484375,-0.3058900833129883,-0.027030814439058304,-0.006029147654771805
1716736834838947000,4.626947021484375,0.0005664825439453125,-0.000577785074710846,0.013199053704738617
1716736834848947500,4.636947509765625,0.24477672576904297,0.006308984011411667,-0.0013212375342845917
1716736834858947300,4.646947265625,-0.07604312896728516,-0.0006404109299182892,-0.004470795392990112
1716736834868947500,4.656947509765625,-0.2675809860229492,0.011502787470817566,-0.00432819128036499
1716736834878947300,4.666947265625,0.02929973602294922,0.01873432844877243,0.007772617042064667
1716736834888947500,4.676947509765625,0.2160482406616211,0.004130471497774124,-0.004365991801023483
1716736834898947300,4.686947265625,-0.0377349853515625,-0.005574092268943787,-0.02115703374147415
1716736834908947500,4.696947509765625,-0.2460317611694336,-0.003124486654996872,-0.0019355081021785736
1716736834918947300,4.706947265625,-0.0018243789672851562,0.006588753312826157,-0.009048271924257278
1716736834928947500,4.716947509765625,0.18253040313720703,0.018432211130857468,0.01965029537677765
1716736834938947300,4.726947265625,-0.013792991638183594,-0.007961560040712357,0.01948225498199463
1716736834948947500,4.736947509765625,-0.21011829376220703,-0.014969926327466965,0.007573019713163376
1716736834958947300,4.746947265625,-0.049704551696777344,0.0042341649532318115,0.0021101199090480804
1716736834968947500,4.756947509765625,0.1442270278930664,-0.005455423146486282,-0.00033937767148017883
1716736834978947300,4.766947265625,0.012546539306640625,-0.01749030128121376,0.016313690692186356
1716736834988947500,4.776947509765625,-0.16222858428955078,-0.026797138154506683,0.013597901910543442
1716736834998947300,4.786947265625,-0.040126800537109375,-0.014060772955417633,0.022642049938440323
1716736835008947500,4.796947509765625,0.10831546783447266,0.0033872202038764954,-0.006965760141611099
1716736835018947300,4.806947265625,-0.008997917175292969,-0.008326858282089233,-0.00034304335713386536
1716736835028947500,4.816947509765625,-0.11673927307128906,-0.0029919929802417755,-0.010081950575113297
1716736835038947300,4.826947265625,-0.0329437255859375,0.0024811699986457825,-0.02701435051858425
1716736835048947500,4.836947509765625,0.08197784423828125,-0.007171813398599625,-0.0006614066660404205
1716736835058947300,4.846947265625,-0.0066070556640625,0.002341128885746002,-0.012738753110170364
1716736835068947500,4.856947509765625,-0.10955810546875,-0.007108133286237717,-0.015101097524166107
1716736835078947300,4.866947265625,-0.047313690185546875,0.012375496327877045,-0.009823542088270187
1716736835088947500,4.876947509765625,0.06042194366455078,0.0076239220798015594,0.00018700584769248962
1716736835098947300,4.886947265625,0.0053539276123046875,0.014638986438512802,-0.008789584040641785
1716736835108947500,4.896947509765625,-0.0784444808959961,0.0027297064661979675,-0.013571768999099731
1716736835118947300,4.906947265625,-0.047321319580078125,0.0025705955922603607,0.0036452822387218475
1716736835128947500,4.916947509765625,0.05323505401611328,0.00709330290555954,-0.010379213839769363
1716736835138947300,4.926947265625,0.0053501129150390625,-0.0051917508244514465,0.002164173871278763
1716736835148947500,4.936947509765625,-0.06887245178222656,-0.012257367372512817,-0.007338166236877441
1716736835158947300,4.946947265625,-0.03774738311767578,-0.005093816667795181,0.011819586157798767
1716736835168947500,4.956947509765625,0.022108078002929688,0.004431799054145813,0.004588242620229721
1716736835178947300,4.966947265625,-0.001834869384765625,-0.0075350552797317505,0.009395860135555267
1716736835188947500,4.976947509765625,-0.05450725555419922,0.002090688794851303,0.007131442427635193
1716736835198947300,4.986947265625,-0.044930458068847656,-0.005087669938802719,0.004756476730108261
1716736835208947500,4.996947509765625,0.022108078002929688,0.009455636143684387,0.025842543691396713
1716736835218947300,5.006947265625,0.0029582977294921875,0.0022320784628391266,0.008449159562587738
1716736835228947500,5.016947509765625,-0.06168174743652344,-0.004965730011463165,0.0031415000557899475
1716736835238947300,5.026947265625,-0.044921875,-0.00023453310132026672,0.012730926275253296
1716736835248947500,5.036947509765625,0.0029659271240234375,0.02367672324180603,0.007266294211149216
1716736835258947300,5.046947265625,0.0053653717041015625,0.023263730108737946,-0.01708594337105751
1716736835268947500,5.056947509765625,-0.044910430908203125,-0.0011402368545532227,-0.0005046911537647247
1716736835278947600,5.066947509765625,-0.049698829650878906,0.003633204847574234,-0.010057944804430008
1716736835288947500,5.076947509765625,-0.006603240966796875,-0.0011487528681755066,-0.017302323132753372
1716736835298947600,5.086947509765625,-0.006602287292480469,-0.008514374494552612,-0.01740221679210663
1716736835308947500,5.096947509765625,-0.040122032165527344,0.010546356439590454,-0.012131016701459885
1716736835318947600,5.106947509765625,-0.028153419494628906,0.007891260087490082,-0.006802219897508621
1716736835328947500,5.116947509765625,0.000576019287109375,0.005252763628959656,-0.0015773177146911621
1716736835338947600,5.126947509765625,-0.013790130615234375,-0.004625577479600906,0.008448526263237
1716736835348947500,5.136947509765625,-0.03773212432861328,0.004942897707223892,0.010804224759340286
1716736835358947600,5.146947509765625,-0.037731170654296875,-0.0047592893242836,-0.0010986067354679108
1716736835368947500,5.156947509765625,-0.006606101989746094,-0.000021863728761672974,0.01321764662861824
1716736835378947600,5.166947509765625,0.005366325378417969,0.0045836977660655975,-0.0012475773692131042
1716736835388947500,5.176947509765625,-0.03294086456298828,-0.00021337717771530151,0.001108407974243164
1716736835398947600,5.186947509765625,-0.040123939514160156,-0.012178003787994385,0.02259448915719986
1716736835408947500,5.196947509765625,-0.011391639709472656,0.004657898098230362,0.0006676837801933289
1716736835418947600,5.206947509765625,-0.011388778686523438,0.011876415461301804,0.009774092584848404
1716736835428947500,5.216947509765625,-0.02814769744873047,-0.0001456327736377716,0.0025425776839256287
1716736835438947600,5.226947509765625,-0.023359298706054688,-0.00961172953248024,0.00728612020611763
1716736835448947500,5.236947509765625,-0.020965576171875,-0.012063492089509964,-0.0022777877748012543
1716736835458947300,5.246947265625,-0.013780593872070312,0.012052558362483978,-0.009941384196281433
1716736835468947500,5.256947509765625,-0.0185699462890625,0.002537541091442108,-0.005146801471710205
1716736835478947300,5.266947265625,-0.02335834503173828,-0.0046407245099544525,-0.01949290558695793
1716736835488947500,5.276947509765625,-0.025753021240234375,0.00013287365436553955,-0.009892717003822327
1716736835498947300,5.286947265625,-0.01139068603515625,0.012100018560886383,-0.006975121796131134
1716736835508947500,5.296947509765625,-0.03054523468017578,-0.012149479240179062,0.000717993825674057
1716736835518947300,5.306947265625,-0.028150558471679688,0.006995614618062973,0.007862217724323273
1716736835528947500,5.316947509765625,-0.0018138885498046875,-0.0025706924498081207,0.0006371922791004181
1716736835538947300,5.326947265625,-0.01617908477783203,-0.009823821485042572,0.0029870420694351196
1716736835548947500,5.336947509765625,-0.030544281005859375,-0.009823691099882126,0.0029869675636291504
1716736835558947300,5.346947265625,-0.02814960479736328,0.0044646598398685455,0.007792718708515167
1716736835568947500,5.356947509765625,-0.01139068603515625,0.009195514023303986,0.012594018131494522
1716736835578947300,5.366947265625,-0.013784408569335938,-0.014680404216051102,-0.004140004515647888
1716736835588947500,5.376947509765625,-0.0233612060546875,-0.00511227548122406,0.0030043870210647583
1716736835598947300,5.386947265625,-0.032937049865722656,-0.0003176778554916382,0.005336970090866089
1716736835608947500,5.396947509765625,-0.011388778686523438,-0.024393558502197266,-0.016181010752916336
1716736835618947300,5.406947265625,-0.018573760986328125,-0.004818424582481384,0.0030591972172260284
1716736835628947500,5.416947509765625,-0.028150558471679688,0.0071588121354579926,0.010180231183767319
1716736835638947300,5.426947265625,-0.020969390869140625,-0.002003282308578491,-0.002004053443670273
1716736835648947500,5.436947509765625,-0.01618194580078125,0.0032700523734092712,-0.004566837102174759
1716736835658947300,5.446947265625,-0.016182899475097656,0.01530282199382782,-0.009348951280117035
1716736835668947500,5.456947509765625,-0.023365020751953125,0.01497761532664299,-0.009095575660467148
1716736835678947300,5.466947265625,-0.018575668334960938,0.012594141066074371,-0.004349805414676666
1716736835688947500,5.476947509765625,-0.02336406707763672,-0.001779899001121521,0.0027947649359703064
1716736835698947300,5.486947265625,-0.018575668334960938,-0.011728551238775253,-0.008952714502811432
1716736835708947500,5.496947509765625,-0.02336406707763672,-0.0069358088076114655,0.005431603640317917
1716736835718947300,5.506947265625,-0.035335540771484375,0.014611940830945969,-0.004145167768001556
1716736835728947500,5.516947509765625,-0.11194992065429688,-0.007305491715669632,0.0009667389094829559
1716736835738947300,5.526947265625,-0.023363113403320312,0.02134857326745987,-0.013381585478782654
1716736835748947500,5.536947509765625,0.19690513610839844,0.01580090820789337,0.018033232539892197
1716736835758947300,5.546947265625,0.06761837005615234,-0.03449001908302307,-0.008360486477613449
1716736835768947500,5.556947509765625,-0.29630279541015625,-0.01491490751504898,0.0014838539063930511
1716736835778947300,5.566947265625,-0.19814205169677734,0.0020124241709709167,0.011003192514181137
1716736835788947500,5.576947509765625,0.20887470245361328,0.020821232348680496,0.0013225264847278595
1716736835798947600,5.586947509765625,0.12747669219970703,0.0011670850217342377,0.007973924279212952
1716736835808947500,5.596947509765625,-0.21010303497314453,-0.0035855695605278015,0.007684644311666489
1716736835818947600,5.606947509765625,-0.1933422088623047,-0.005875919014215469,-0.007206197828054428
1716736835828947500,5.616947509765625,0.13705921173095703,0.003511231392621994,-0.0024556443095207214
1716736835838947600,5.626947509765625,0.13466835021972656,0.0030985027551651,-0.007292669266462326
1716736835848947500,5.636947509765625,-0.14306068420410156,-0.006435681134462357,-0.012070514261722565
1716736835858947300,5.646947265625,-0.18137168884277344,-0.008509818464517593,-0.011539433151483536
1716736835868947500,5.656947509765625,0.08677959442138672,0.0009392313659191132,-0.013965267688035965
1716736835878947300,5.666947265625,0.1418476104736328,0.00542125478386879,-0.011683560907840729
1716736835888947500,5.676947509765625,-0.10954570770263672,-0.008888445794582367,-0.016042079776525497
1716736835898947300,5.686947265625,-0.15264606475830078,-0.001341409981250763,-0.0010348670184612274
1716736835908947500,5.696947509765625,0.04128456115722656,0.017574172466993332,0.008554715663194656
1716736835918947300,5.706947265625,0.10592937469482422,-0.004101410508155823,0.003734670579433441
1716736835928947500,5.716947509765625,-0.07602977752685547,0.0006975270807743073,0.003692150115966797
1716736835938947300,5.726947265625,-0.1478567123413086,-0.018394168466329575,0.008486654609441757
1716736835948947500,5.736947509765625,0.038890838623046875,-0.001649562269449234,-0.015431985259056091
1716736835958947300,5.746947265625,0.08198833465576172,-0.001762300729751587,0.015637394040822983
1716736835968947500,5.756947509765625,-0.06166648864746094,-0.0036887675523757935,0.01796753704547882
1716736835978947300,5.766947265625,-0.11194515228271484,0.0011422224342823029,0.025160636752843857
1716736835988947500,5.776947509765625,0.024527549743652344,-0.010776255279779434,0.026980549097061157
1716736835998947300,5.786947265625,0.07481098175048828,-0.003417719155550003,-0.010037176311016083
1716736836008947500,5.796947509765625,-0.04011058807373047,-0.017902344465255737,-0.0004536174237728119
1716736836018947300,5.806947265625,-0.1095418930053711,-0.012495450675487518,-0.017773017287254333
1716736836028947500,5.816947509765625,0.0077724456787109375,0.014300193637609482,-0.010693076997995377
1716736836038947300,5.826947265625,0.060443878173828125,0.009515970945358276,-0.005885392427444458
1716736836048947500,5.836947509765625,-0.032929420471191406,-0.002406228333711624,-0.005936462432146072
1716736836058947300,5.846947265625,-0.09039115905761719,0.007287532091140747,-0.005862046033143997
1716736836068947500,5.856947509765625,-0.006596565246582031,-0.0023440569639205933,-0.03411804884672165
1716736836078947300,5.866947265625,0.041283607482910156,0.0024873055517673492,0.0023481175303459167
1716736836088947500,5.876947509765625,-0.018570899963378906,-0.004695165902376175,0.007136445492506027
1716736836098947300,5.886947265625,-0.07603168487548828,0.0024852603673934937,-0.011936254799365997
1716736836108947500,5.896947509765625,-0.013785362243652344,0.004909947514533997,-0.00904662162065506
1716736836118947300,5.906947265625,0.029310226440429688,0.007295515388250351,0.0004920363426208496
1716736836128947500,5.916947509765625,-0.025758743286132812,-0.01919098198413849,0.00338180735707283
1716736836138947300,5.926947265625,-0.07843589782714844,-0.009330421686172485,0.008629050105810165
1716736836148947500,5.936947509765625,-0.01858043670654297,0.007490906864404678,0.02060617506504059
1716736836158947300,5.946947265625,0.03648567199707031,0.000238124281167984,0.0253499373793602
1716736836168947500,5.956947509765625,-0.01618194580078125,-0.0068642087280750275,0.003080800175666809
1716736836178947300,5.966947265625,-0.07124710083007812,0.0005199313163757324,0.014604941010475159
1716736836188947500,5.976947509765625,-0.02575397491455078,0.000583108514547348,0.020989660173654556
1716736836198947300,5.986947265625,0.026923179626464844,-0.013774354010820389,-0.00860663503408432
1716736836208947500,5.996947509765625,-0.018563270568847656,-0.008743714541196823,-0.009143169969320297
1716736836218947300,6.006947265625,-0.06884288787841797,-0.0034877657890319824,-0.016570650041103363
1716736836228947500,6.016947509765625,-0.035325050354003906,0.008549444377422333,0.005002409219741821
1716736836238947300,6.026947265625,0.019742965698242188,-0.008279815316200256,-0.004619378596544266
1716736836248947500,6.036947509765625,-0.0089874267578125,-0.008405130356550217,-0.009339660406112671
1716736836258947300,6.046947265625,-0.04729938507080078,-0.0006564334034919739,-0.004175182431936264
1716736836268947500,6.056947509765625,-0.042510986328125,0.013708844780921936,-0.001781020313501358
1716736836278947300,6.066947265625,0.012555122375488281,0.013700168579816818,-0.0018192306160926819
1716736836288947500,6.076947509765625,-0.011385917663574219,0.01359160989522934,-0.0066435933113098145
1716736836298947300,6.086947265625,-0.035327911376953125,-0.00597265362739563,-0.01838209107518196
1716736836308947500,6.096947509765625,-0.030541419982910156,-0.006197340786457062,-0.005798399448394775
1716736836318947300,6.106947265625,0.0029773712158203125,-0.006254740059375763,-0.010574087500572205
1716736836328947500,6.116947509765625,-0.018573760986328125,0.010556422173976898,-0.002800196409225464
1716736836338947300,6.126947265625,-0.03294086456298828,0.003238178789615631,0.002460561692714691
1716736836348947500,6.136947509765625,-0.01618194580078125,0.010425087064504623,0.021633218973875046
1716736836358947300,6.146947265625,0.010159492492675781,-0.016600679606199265,-0.0025164783000946045
1716736836368947500,6.156947509765625,-0.013781547546386719,0.00003321841359138489,0.014311160892248154
1716736836378947300,6.166947265625,-0.04011821746826172,-0.00008599832653999329,-0.0048358142375946045
1716736836388947500,6.176947509765625,-0.037723541259765625,-0.00014355406165122986,0.002359684556722641
1716736836398947300,6.186947265625,0.0029773712158203125,-0.012110162526369095,-0.000015448778867721558
1716736836408947500,6.196947509765625,-0.011388778686523438,0.004753723740577698,0.021549072116613388
1716736836418947300,6.206947265625,-0.042510032653808594,-0.0022719204425811768,0.006626307964324951
1716736836428947500,6.216947509765625,-0.030536651611328125,0.005010448396205902,0.010869771242141724
1716736836438947300,6.226947265625,0.010165214538574219,0.00977957621216774,-0.008279502391815186
1716736836448947500,6.236947509765625,-0.011384010314941406,-0.002057373523712158,-0.0011268407106399536
1716736836458947300,6.246947265625,-0.032927513122558594,-0.006992969661951065,-0.008879508823156357
1716736836468947500,6.256947509765625,-0.02335071563720703,-0.004662282764911652,0.005560006946325302
1716736836478947300,6.266947265625,-0.0018033981323242188,6.966292858123779e-7,0.0008396916091442108
1716736836488947500,6.276947509765625,-0.006591796875,-0.0023449212312698364,-0.006393760442733765
1716736836498947300,6.286947265625,-0.032929420471191406,-0.0019320398569107056,0.008019912987947464
1716736836508947500,6.296947509765625,-0.016170501708984375,-0.004383794963359833,-0.003938205540180206
1716736836518947300,6.306947265625,-0.016170501708984375,0.01237567886710167,0.008032765239477158
1716736836528947500,6.316947509765625,-0.013774871826171875,-0.0019979439675807953,0.010388616472482681
1716736836538947300,6.326947265625,-0.032928466796875,-0.0019938014447689056,-0.00635157898068428
1716736836548947500,6.336947509765625,-0.016170501708984375,0.010038971900939941,0.015202518552541733
1716736836558947300,6.346947265625,-0.020958900451660156,-0.014034681022167206,-0.0014270767569541931
1716736836568947500,6.356947509765625,-0.011382102966308594,-0.0069096386432647705,0.008162621408700943
1716736836578947300,6.366947265625,-0.02574634552001953,-0.011768214404582977,-0.001458827406167984
1716736836588947500,6.376947509765625,-0.02814006805419922,-0.004580952227115631,-0.008622679859399796
1716736836598947300,6.386947265625,-0.011383056640625,0.01262945681810379,-0.015946179628372192
1716736836608947500,6.396947509765625,-0.01617431640625,-0.0015460215508937836,-0.01315232366323471
1716736836618947300,6.406947265625,-0.02575397491455078,-0.015865888446569443,0.006473325192928314
1716736836628947500,6.416947509765625,-0.023359298706054688,0.005611646920442581,-0.010330602526664734
1716736836638947300,6.426947265625,-0.018571853637695312,-0.0014536529779434204,-0.017439063638448715
1716736836648947500,6.436947509765625,-0.020969390869140625,0.010623876005411148,-0.0025950632989406586
1716736836658947300,6.446947265625,-0.02575969696044922,-0.013392128050327301,0.00027776509523391724
1716736836668947500,6.456947509765625,-0.020971298217773438,-0.013438992202281952,-0.002146076411008835
1716736836678947300,6.466947265625,-0.004214286804199219,0.010758411139249802,-0.006690002977848053
1716736836688947500,6.476947509765625,-0.3489799499511719,0.01553390547633171,-0.013929896056652069
1716736836698947300,6.486947265625,0.017333984375,0.008280925452709198,0.002784978598356247
1716736836708947500,6.496947509765625,0.23521041870117188,0.0006281062960624695,-0.004614252597093582
1716736836718947300,6.506947265625,-0.016180992126464844,-0.042350903153419495,0.00006791576743125916
1716736836728947500,6.516947509765625,-0.2651796340942383,-0.011053960770368576,0.016969777643680573
1716736836738947300,6.526947265625,-0.18378067016601562,0.015994735062122345,0.0026466548442840576
1716736836748947500,6.536947509765625,0.170562744140625,0.01102318987250328,0.004941180348396301
1716736836758947300,6.546947265625,0.08437633514404297,0.008400853723287582,0.021128449589014053
1716736836768947500,6.556947509765625,-0.21490097045898438,-0.00812222808599472,0.00443682074546814
1716736836778947300,6.566947265625,-0.1263132095336914,0.008783355355262756,0.001527734100818634
1716736836788947500,6.576947509765625,0.13465595245361328,0.0206163190305233,-0.005644313991069794
1716736836798947300,6.586947265625,0.07240867614746094,-0.013128135353326797,-0.008148826658725739
1716736836808947500,6.596947509765625,-0.15264606475830078,-0.006015904247760773,0.008566051721572876
1716736836818947300,6.606947265625,-0.12152385711669922,-0.008237592875957489,-0.015233628451824188
1716736836828947500,6.616947509765625,0.11550235748291016,0.010984271764755249,-0.024866018444299698
1716736836838947300,6.626947265625,0.08677387237548828,0.0036187544465065002,-0.015389099717140198
1716736836848947500,6.636947509765625,-0.13349628448486328,0.0034278780221939087,-0.009834598749876022
1716736836858947300,6.646947265625,-0.09997940063476562,0.005682140588760376,-0.00920044630765915
1716736836868947500,6.656947509765625,0.08916187286376953,0.015124857425689697,0.017165809869766235
1716736836878947300,6.666947265625,0.07000923156738281,-0.0018089227378368378,-0.009232006967067719
1716736836888947500,6.676947509765625,-0.09758567810058594,-0.021196303889155388,0.0031328611075878143
1716736836898947300,6.686947265625,-0.1047677993774414,-0.025937814265489578,-0.015991058200597763
1716736836908947500,6.696947509765625,0.07958412170410156,-0.009122997522354126,-0.0015579238533973694
1716736836918947300,6.706947265625,0.065216064453125,0.01751568913459778,0.01786975935101509
1716736836928947500,6.716947509765625,-0.09040641784667969,0.01512562483549118,0.0035237669944763184
1716736836938947300,6.726947265625,-0.0880136489868164,-0.006299063563346863,0.015507668256759644
1716736836948947500,6.736947509765625,0.05563831329345703,-0.0015257485210895538,0.003560282289981842
1716736836958947300,6.746947265625,0.050850868225097656,-0.02798752672970295,0.00344761461019516
1716736836968947500,6.756947509765625,-0.0640707015991211,-0.02319512888789177,-0.0037156008183956146
1716736836978947300,6.766947265625,-0.0904092788696289,0.003998331725597382,-0.0063212960958480835
1716736836988947500,6.776947509765625,0.03169441223144531,0.011123385280370712,-0.013491012156009674
1716736836998947300,6.786947265625,0.05563163757324219,0.016412105411291122,-0.017928916960954666
1716736837008947500,6.796947509765625,-0.04013633728027344,0.009210452437400818,-0.008347973227500916
1716736837018947300,6.806947265625,-0.06886768341064453,0.011721644550561905,-0.005879290401935577
1716736837028947500,6.816947509765625,0.01253509521484375,0.018551547080278397,-0.022238459438085556
1716736837038947300,6.826947265625,0.014929771423339844,-0.001192878931760788,-0.012067656964063644
1716736837048947500,6.836947509765625,-0.04492759704589844,0.007852822542190552,-0.008811242878437042
1716736837058947300,6.846947265625,-0.06887149810791016,-0.006871212273836136,0.0061966367065906525
1716736837068947500,6.856947509765625,0.0005598068237304688,-0.011884499341249466,0.006628487259149551
1716736837078947300,6.866947265625,0.019713401794433594,-0.00716627761721611,-0.0029929690062999725
1716736837088947500,6.876947509765625,-0.052115440368652344,-0.006942678242921829,0.006955988705158234
1716736837098947300,6.886947265625,-0.056903839111328125,-0.0020989254117012024,0.023783523589372635
1716736837108947500,6.896947509765625,0.0053462982177734375,-0.009109564125537872,0.01380651444196701
1716736837118947300,6.906947265625,0.014924049377441406,-0.020878838375210762,0.022936347872018814
1716736837128947500,6.916947509765625,-0.035353660583496094,0.0059459879994392395,0.007879387587308884
1716736837138947300,6.926947265625,-0.042532920837402344,-0.020003920421004295,-0.0000927560031414032
1716736837148947500,6.936947509765625,-0.009014129638671875,-0.004979725927114487,-0.0007422976195812225
1716736837158947300,6.946947265625,0.03647422790527344,0.002653449773788452,0.0013303197920322418
1716736837168947500,6.956947509765625,-0.035350799560546875,0.017524272203445435,-0.0014981068670749664
1716736837178947300,6.966947265625,-0.04253387451171875,0.019965432584285736,-0.006256837397813797
1716736837188947500,6.976947509765625,-0.011409759521484375,-0.008764959871768951,0.00571407750248909
1716736837198947300,6.986947265625,0.005351066589355469,-0.004097979515790939,-0.00856349989771843
1716736837208947500,6.996947509765625,-0.035350799560546875,-0.0017034970223903656,0.0010130666196346283
1716736837218947300,7.006947265625,-0.04014015197753906,0.017503485083580017,0.003375105559825897
1716736837228947500,7.016947509765625,0.0053501129150390625,0.005481254309415817,0.0009320974349975586
1716736837238947300,7.026947265625,0.0005626678466796875,0.007862508296966553,-0.006307866424322128
1716736837248947500,7.036947509765625,-0.03295612335205078,0.0030104853212833405,-0.006233420222997665
1716736837258947300,7.046947265625,-0.044925689697265625,0.004939015954732895,0.008296005427837372
1716736837268947500,7.056947509765625,-0.004222869873046875,-0.014623016119003296,0.013054978102445602
1716736837278947300,7.066947265625,-0.011402130126953125,0.006790421903133392,-0.0018228664994239807
1716736837288947500,7.076947509765625,-0.013794898986816406,-0.024404574185609818,-0.0042616091668605804
1716736837298947300,7.086947265625,-0.03294944763183594,0.001993410289287567,0.01968669891357422
1716736837308947500,7.096947509765625,-0.013794898986816406,0.00683106854557991,0.014846820384263992
1716736837318947300,7.106947265625,0.014937400817871094,-0.007475066930055618,0.01917995512485504
1716736837328947500,7.116947509765625,-0.030549049377441406,-0.00739278644323349,0.013589426875114441
1716736837338947300,7.126947265625,-0.040122032165527344,0.002349425107240677,0.005706701427698135
1716736837348947500,7.136947509765625,-0.008994102478027344,-0.004695553332567215,-0.004423271864652634
1716736837358947300,7.146947265625,-0.0042057037353515625,0.004862181842327118,-0.01399584487080574
1716736837368947500,7.156947509765625,-0.025753021240234375,0.005199875682592392,-0.00737081840634346
1716736837378947300,7.166947265625,-0.04011821746826172,0.0027482770383358,-0.009752307087182999
1716736837388947500,7.176947509765625,-0.020963668823242188,-0.004447244107723236,-0.012203793972730637
1716736837398947300,7.186947265625,-0.00899505615234375,0.009916350245475769,-0.011761441826820374
1716736837408947500,7.196947509765625,-0.011391639709472656,0.0025171004235744476,-0.008896756917238235
1716736837418947300,7.206947265625,-0.0257568359375,0.0049219317734241486,-0.008939418941736221
1716736837428947500,7.216947509765625,-0.018573760986328125,0.00019529089331626892,0.003037884831428528
1716736837438947300,7.226947265625,-0.008998870849609375,-0.007248535752296448,-0.005998298525810242
1716736837448947500,7.236947509765625,-0.01618194580078125,-0.009700454771518707,0.0011973604559898376
1716736837458947300,7.246947265625,-0.028151512145996094,-0.00730857253074646,0.001097511500120163
1716736837468947500,7.256947509765625,-0.01378631591796875,-0.00013444945216178894,0.008241791278123856
1716736837478947300,7.266947265625,-0.004208564758300781,-0.000191420316696167,0.0010716021060943604
1716736837488947500,7.276947509765625,-0.004208564758300781,-0.0002487786114215851,0.0010843873023986816
1716736837498947300,7.286947265625,-0.0257568359375,0.009319707751274109,0.010622706264257431
1716736837508947500,7.296947509765625,-0.016180038452148438,-0.007497195154428482,0.010635562241077423
1716736837518947300,7.306947265625,-0.006600379943847656,-0.00026171281933784485,-0.004123292863368988
1716736837528947500,7.316947509765625,-0.013782501220703125,0.004526242613792419,0.0006655193865299225
1716736837538947300,7.326947265625,-0.02575397491455078,-0.009909279644489288,-0.008955862373113632
1716736837548947500,7.336947509765625,-0.011388778686523438,0.004398569464683533,0.0006337277591228485
1716736837558947300,7.346947265625,-0.020965576171875,0.004458248615264893,-0.008856020867824554
1716736837568947500,7.356947509765625,-0.011388778686523438,0.0020451322197914124,-0.006457742303609848
1716736837578947300,7.366947265625,-0.018571853637695312,-0.00034466758370399475,-0.00883287563920021
1716736837588947500,7.376947509765625,-0.01857280731201172,-0.002740856260061264,-0.001569461077451706
1716736837598947300,7.386947265625,-0.008996009826660156,-0.00274098664522171,0.010401617735624313
1716736837608947500,7.396947509765625,-0.1550426483154297,-0.007531307637691498,-0.02303643524646759
1716736837618947300,7.406947265625,-0.006602287292480469,0.018679525703191757,-0.01339147612452507
1716736837628947500,7.416947509765625,0.13705158233642578,0.008813232183456421,-0.008638892322778702
1716736837638947300,7.426947265625,0.0029745101928710938,-0.015262212604284286,0.00851185992360115
1716736837648947500,7.436947509765625,-0.16940784454345703,0.011197533458471298,0.020495451986789703
1716736837658947300,7.446947265625,-0.08082199096679688,0.003957889974117279,0.013325288891792297
1716736837668947500,7.456947509765625,0.10832023620605469,0.013406932353973389,0.030053045600652695
1716736837678947300,7.466947265625,0.04368305206298828,-0.00853094831109047,0.005535077303647995
1716736837688947500,7.476947509765625,-0.14785003662109375,0.0033990927040576935,0.005082067102193832
1716736837698947300,7.486947265625,-0.06165599822998047,0.01041341945528984,-0.004979822784662247
1716736837708947500,7.496947509765625,0.11312580108642578,0.014671627432107925,-0.01743527129292488
1716736837718947300,7.506947265625,0.002994537353515625,-0.007303934544324875,-0.01985454186797142
1716736837728947500,7.516947509765625,-0.12868595123291016,-0.0024539344012737274,-0.012665465474128723
1716736837738947300,7.526947265625,-0.035312652587890625,0.00717589259147644,-0.024668361991643906
1716736837748947500,7.536947509765625,0.09157848358154297,0.021252546459436417,-0.03134464845061302
1716736837758947300,7.546947265625,0.03172016143798828,-0.0008197464048862457,-0.01360408216714859
1716736837768947500,7.556947509765625,-0.12151145935058594,0.008500538766384125,-0.02225961536169052
1716736837778947300,7.566947265625,-0.049691200256347656,0.000967957079410553,-0.0018823109567165375
1716736837788947500,7.576947509765625,0.08198833465576172,0.002975568175315857,0.013091575354337692
1716736837798947300,7.586947265625,0.017345428466796875,-0.016483940184116364,0.003763727843761444
1716736837808947500,7.596947509765625,-0.0951852798461914,-0.0020332038402557373,-0.007643468677997589
1716736837818947300,7.606947265625,-0.056878089904785156,-0.03082096390426159,0.011522814631462097
1716736837828947500,7.616947509765625,0.04846763610839844,-0.00216071680188179,0.004295565187931061
1716736837838947300,7.626947265625,0.012551307678222656,-0.011316172778606415,0.013959165662527084
1716736837848947500,7.636947509765625,-0.07843017578125,-0.02028888836503029,0.008995622396469116
1716736837858947300,7.646947265625,-0.04491424560546875,-0.0003207884728908539,0.006379570811986923
1716736837868947500,7.656947509765625,0.043671607971191406,0.01200508326292038,0.010867767035961151
1716736837878947300,7.666947265625,0.0029706954956054688,-0.006908781826496124,-0.003952700644731522
1716736837888947500,7.676947509765625,-0.05209541320800781,-0.030413001775741577,0.002850964665412903
1716736837898947300,7.686947265625,-0.030550003051757812,-0.00356428325176239,-0.006860300898551941
1716736837908947500,7.696947509765625,0.034091949462890625,-0.00794212520122528,-0.004517633467912674
1716736837918947300,7.706947265625,0.002964019775390625,0.009276580065488815,0.0027434974908828735
1716736837928947500,7.716947509765625,-0.06407356262207031,0.0021046996116638184,-0.026029551401734352
1716736837938947300,7.726947265625,-0.03773689270019531,0.0021602921187877655,-0.013990722596645355
1716736837948947500,7.736947509765625,0.012540817260742188,-0.004973016679286957,-0.01883053407073021
1716736837958947300,7.746947265625,0.0005645751953125,-0.009590502828359604,0.0010886676609516144
1716736837968947500,7.756947509765625,-0.049716949462890625,-0.004559028893709183,-0.02009154111146927
1716736837978947300,7.766947265625,-0.040144920349121094,-0.004292655736207962,-0.00037439167499542236
1716736837988947500,7.776947509765625,-0.004231452941894531,0.0028941333293914795,0.006827492266893387
1716736837998947300,7.786947265625,0.0005540847778320312,-0.006469689309597015,0.016819000244140625
1716736838008947500,7.796947509765625,-0.04015064239501953,-0.015514496713876724,0.01925519108772278
1716736838018947300,7.806947265625,-0.032967567443847656,-0.0035393349826335907,0.016880203038454056
1716736838028947500,7.816947509765625,-0.001842498779296875,-0.010363124310970306,0.021206878125667572
1716736838038947300,7.826947265625,-0.006628990173339844,0.011535201221704483,0.006160527467727661
1716736838048947500,7.836947509765625,-0.02099132537841797,-0.012203365564346313,0.0030577927827835083
1716736838058947600,7.846947509765625,-0.047326087951660156,-0.011956773698329926,0.009903986006975174
1716736838068947500,7.856947509765625,-0.001834869384765625,0.024296265095472336,-0.00031152740120887756
1716736838078947600,7.866947509765625,-0.011408805847167969,0.00274595245718956,-0.019926808774471283
1716736838088947500,7.876947509765625,-0.047321319580078125,0.007477067410945892,-0.007943045347929
1716736838098947300,7.886947265625,-0.025774002075195312,0.0026375874876976013,-0.010386228561401367
1716736838108947500,7.896947509765625,-0.004225730895996094,0.019382193684577942,-0.007968641817569733
1716736838118947300,7.906947265625,0.005351066589355469,0.00023513659834861755,-0.020001545548439026
1716736838128947500,7.916947509765625,-0.025774002075195312,0.004630874842405319,-0.01711808145046234
1716736838138947300,7.926947265625,-0.030565261840820312,-0.0076778121292591095,-0.01877366378903389
1716736838148947500,7.936947509765625,-0.006626129150390625,0.008928827941417694,-0.0012565478682518005
1716736838158947300,7.946947265625,-0.00423431396484375,0.018321245908737183,-0.015098456293344498
1716736838168947500,7.956947509765625,-0.013813018798828125,-0.018231483176350594,0.00488121435046196
1716736838178947300,7.966947265625,-0.03536033630371094,0.010548088699579239,0.004829876124858856
1716736838188947500,7.976947509765625,-0.009024620056152344,0.012619316577911377,0.005183272063732147
1716736838198947300,7.986947265625,-0.009022712707519531,-0.009417779743671417,0.017303701490163803
1716736838208947500,7.996947509765625,-0.025777816772460938,-0.002690594643354416,0.007305886596441269
1716736838218947300,8.006947265625,-0.018593788146972656,-0.0075301192700862885,0.007257100194692612
1716736838228947500,8.016947509765625,-0.013806343078613281,-0.0002854578197002411,0.012051448225975037
1716736838238947300,8.026947265625,-0.02098846435546875,-0.012326501309871674,0.016795050352811813
1716736838248947500,8.036947509765625,-0.035353660583496094,-0.012033294886350632,0.02827860787510872
1716736838258947300,8.046947265625,-0.0257720947265625,0.002743832767009735,0.015271134674549103
1716736838268947500,8.056947509765624,-0.020978927612304688,-0.004252351820468903,-0.02639630250632763
1716736838278947300,8.066947265625,-0.018584251403808594,0.010422859340906143,-0.005259145051240921
1716736838288947500,8.076947509765626,-0.02097606658935547,-0.0014891140162944794,-0.015291184186935425
1716736838298947300,8.086947265625,-0.023372650146484375,-0.0014333575963974,-0.012467347085475922
1716736838308947500,8.096947509765625,-0.006617546081542969,0.0034234896302223206,-0.02155701071023941
1716736838318947300,8.106947265625,-0.004225730895996094,0.0034004300832748413,0.0005184710025787354
1716736838328947500,8.116947509765625,-0.018590927124023438,0.013043269515037537,0.0005439035594463348
1716736838338947300,8.126947265625,-0.018591880798339844,0.0008149035274982452,0.0033172331750392914
1716736838348947500,8.136947509765625,-0.011409759521484375,-0.009070008993148804,0.0012530125677585602
1716736838358947300,8.146947265625,-0.016198158264160156,-0.0019445493817329407,0.008448198437690735
1716736838368947500,8.156947509765626,-0.023380279541015625,-0.0066838450729846954,0.008396901190280914
1716736838378947300,8.166947265625,-0.01619720458984375,0.005574040114879608,0.01754794642329216
1716736838388947500,8.176947509765625,-0.006617546081542969,-0.003960404545068741,0.007439035922288895
1716736838398947300,8.186947265625,-0.018584251403808594,-0.015929963439702988,-0.0051552169024944305
1716736838408947500,8.196947509765625,-0.02337360382080078,0.0032218173146247864,0.023655835539102554
1716736838418947300,8.206947265625,-0.03055286407470703,-0.008496575057506561,0.010925084352493286
1716736838428947500,8.216947509765625,-0.0113983154296875,-0.01547551155090332,-0.003967750817537308
1716736838438947300,8.226947265625,-0.009003639221191406,0.01122007891535759,0.005327798426151276
1716736838448947500,8.236947509765624,-0.016183853149414062,0.011375192552804947,-0.002331666648387909
1716736838458947300,8.246947265625,-0.04251575469970703,0.0016409344971179962,-0.0004652068018913269
1716736838468947500,8.256947509765626,-0.016180038452148438,0.0088958740234375,-0.026837743818759918
1716736838478947300,8.266947265625,-0.018573760986328125,0.0064889974892139435,-0.010135825723409653
1716736838488947500,8.276947509765625,-0.03054523468017578,0.025585241615772247,-0.000546235591173172
1716736838498947300,8.286947265625,-0.0233612060546875,0.0012180469930171967,-0.017050035297870636
1716736838508947500,8.296947509765625,-0.020967483520507812,0.0012222528457641602,-0.014636658132076263
1716736838518947300,8.306947265625,-0.028151512145996094,0.0006698630750179291,-0.004293568432331085
1716736838528947500,8.316947509765624,-0.02097034454345703,-0.021305229514837265,-0.006170392036437988
1716736838538947300,8.326947265625,-0.02097320556640625,-0.006913859397172928,0.001488514244556427
1716736838548947500,8.336947509765626,-0.013790130615234375,-0.007047634571790695,0.001518208533525467
1716736838558947300,8.346947265625,-0.018578529357910156,0.000196799635887146,0.0039186738431453705
1716736838568947500,8.356947509765625,-0.013790130615234375,0.005046967417001724,0.008713364601135254
1716736838578947300,8.366947265625,-0.013791084289550781,0.0003115907311439514,-0.000895325094461441
1716736838588947500,8.376947509765625,-0.011396408081054688,0.007549118250608444,-0.008190486580133438
1716736838598947300,8.386947265625,-0.018578529357910156,-0.004534747451543808,0.010907948017120361
1716736838608947500,8.396947509765624,-0.05209541320800781,-0.006999127566814423,-0.010684516280889511
1716736838618947300,8.406947265625,0.058037757873535156,0.014491129666566849,-0.025036845356225967
1716736838628947500,8.416947509765626,0.0747976303100586,0.006876762956380844,-0.008140817284584045
1716736838638947300,8.426947265625,0.05324745178222656,-0.012282807379961014,-0.01968851312994957
1716736838648947500,8.436947509765625,-0.11195564270019531,-0.019371261820197105,-0.004721440374851227
1716736838658947300,8.446947265625,-0.061682701110839844,-0.011788543313741684,0.010177623480558395
1716736838668947500,8.456947509765625,0.026903152465820312,0.0048455409705638885,0.00545734167098999
1716736838678947300,8.466947265625,0.012538909912109375,0.002436533570289612,-0.004277084022760391
1716736838688947500,8.476947509765624,-0.06646919250488281,0.031167015433311462,0.007693886756896973
1716736838698947300,8.486947265625,-0.02576923370361328,-0.014318607747554779,-0.009046342223882675
1716736838708947500,8.496947509765626,0.041266441345214844,0.004829045385122299,-0.008623030036687851
1716736838718947300,8.506947265625,-0.0018291473388671875,-0.0024046264588832855,-0.0038836151361465454
1716736838728947500,8.516947509765625,-0.08562564849853516,0.00003821030259132385,-0.0015402063727378845
1716736838738947300,8.526947265625,-0.04013633728027344,-0.002290084958076477,0.0032737068831920624
1716736838748947500,8.536947509765625,0.034084320068359375,-0.014331270009279251,0.003229055553674698
1716736838758947300,8.546947265625,0.005352973937988281,0.00509444996714592,0.003369394689798355
1716736838768947500,8.556947509765624,-0.07365608215332031,-0.0020455345511436462,0.02013937383890152
1716736838778947300,8.566947265625,-0.023377418518066406,0.024541404098272324,0.005276080220937729
1716736838788947500,8.576947509765626,0.03647804260253906,0.005330584943294525,0.0005002841353416443
1716736838798947300,8.586947265625,-0.0066127777099609375,-0.004693381488323212,-0.004670519381761551
1716736838808947500,8.596947509765625,-0.056891441345214844,-0.002256687730550766,-0.014236688613891602
1716736838818947300,8.606947265625,-0.03534412384033203,-0.004653073847293854,0.0049978382885456085
1716736838828947500,8.616947509765625,0.022116661071777344,0.002477988600730896,0.014526154845952988
1716736838838947300,8.626947265625,-0.006613731384277344,0.009584303945302963,0.01933141052722931
1716736838848947500,8.636947509765625,-0.05689048767089844,0.004744872450828552,0.00012887641787528992
1716736838858947300,8.646947265625,-0.04731273651123047,0.02382846176624298,0.01205507293343544
1716736838868947500,8.656947509765626,0.014943122863769531,0.008794769644737244,-0.0029648281633853912
1716736838878947600,8.666947509765626,0.005372047424316406,-0.015911415219306946,-0.01538826897740364
1716736838888947500,8.676947509765625,-0.0401153564453125,0.0004375241696834564,-0.008154291659593582
1716736838898947300,8.686947265625,-0.02814483642578125,-0.009079769253730774,0.0015097595751285553
1716736838908947500,8.696947509765625,0.0053730010986328125,-0.009018104523420334,-0.003272213041782379
1716736838918947300,8.706947265625,-0.0018100738525390625,-0.00896286591887474,-0.0032041147351264954
1716736838928947500,8.716947509765625,-0.032935142517089844,0.005449037998914719,0.013585109263658524
1716736838938947300,8.726947265625,-0.03532981872558594,0.005449306219816208,0.013584963977336884
1716736838948947500,8.736947509765624,-0.0065975189208984375,0.0007627271115779877,-0.0012250766158103943
1716736838958947300,8.746947265625,-0.02335643768310547,-0.011146359145641327,0.0011752396821975708
1716736838968947500,8.756947509765626,-0.04969215393066406,-0.0060857683420181274,0.007955331355333328
1716736838978947300,8.766947265625,-0.02574920654296875,-0.010882742702960968,-0.004053853452205658
1716736838988947500,8.776947509765625,-0.008989334106445312,-0.006102815270423889,0.005484625697135925
1716736838998947300,8.786947265625,-0.018566131591796875,-0.001314546912908554,0.005484696477651596
1716736839008947500,8.796947509765625,-0.05447959899902344,0.0034228935837745667,0.0006473362445831299
1716736839018947300,8.806947265625,-0.023354530334472656,-0.0033453479409217834,-0.004534903913736343
1716736839028947500,8.816947509765624,-0.004199981689453125,-0.0034218505024909973,0.007453147321939468
1716736839038947300,8.826947265625,-0.01856517791748047,0.015623167157173157,0.007417112588882446
1716736839048947500,8.836947509765626,-0.03293037414550781,0.02041143923997879,-0.02370743453502655
1716736839058947300,8.846947265625,-0.008986473083496094,0.007887579500675201,-0.00433000922203064
1716736839068947500,8.856947509765625,-0.0018033981323242188,0.007885433733463287,0.0003583654761314392
1716736839078947300,8.866947265625,-0.020956993103027344,-0.001767810434103012,0.00037538260221481323
1716736839088947500,8.876947509765625,-0.020956993103027344,-0.006488323211669922,0.0075026825070381165
1716736839098947300,8.886947265625,-0.02574443817138672,0.010136961936950684,-0.011620957404375076
1716736839108947500,8.896947509765624,-0.011378288269042969,-0.0024060383439064026,-0.0018160715699195862
1716736839118947300,8.906947265625,-0.02095317840576172,0.00950118899345398,-0.004316657781600952
1716736839128947500,8.916947509765626,-0.03531932830810547,-0.0191674642264843,-0.030646584928035736
1716736839138947300,8.926947265625,-0.020958900451660156,0.00009515881538391113,-0.008339330554008484
1716736839148947500,8.936947509765625,-0.011384010314941406,0.014420554041862488,0.0040825046598911285
1716736839158947300,8.946947265625,-0.023355484008789062,0.00011717900633811951,0.013665560632944107
1716736839168947500,8.956947509765625,-0.013777732849121094,0.000059973448514938354,0.004101358354091644
1716736839178947300,8.966947265625,-0.023354530334472656,0.004778165370225906,-0.010308563709259033
1716736839188947500,8.976947509765624,-0.008989334106445312,0.007234133780002594,0.004062935709953308
1716736839198947300,8.986947265625,-0.016172409057617188,0.00004311650991439819,-0.0031580254435539246
1716736839208947500,8.996947509765626,-0.03053760528564453,-0.01671196147799492,0.0016494840383529663
1716736839218947300,9.006947265625,-0.02096080780029297,-0.002353053539991379,-0.005471527576446533
1716736839228947500,9.016947509765625,-0.013779640197753906,-0.0022931285202503204,-0.0029904022812843323
1716736839238947300,9.026947265625,-0.025751113891601562,0.00739433616399765,-0.02218881994485855
1716736839248947500,9.036947509765625,-0.020965576171875,0.01932329684495926,0.007073432207107544
1716736839258947300,9.046947265625,-0.035330772399902344,0.006871841847896576,-0.011711854487657547
1716736839268947500,9.056947509765624,-0.020965576171875,0.0040098875761032104,-0.00410325825214386
1716736839278947300,9.066947265625,-0.030542373657226562,-0.010754827409982681,-0.015703845769166946
1716736839288947500,9.076947509765626,-0.011387825012207031,-0.005955949425697327,-0.003775317221879959
1716736839298947300,9.086947265625,-0.020964622497558594,-0.010814722627401352,-0.00860825926065445
1716736839308947500,9.096947509765625,-0.008996963500976562,0.008515961468219757,0.003885887563228607
1716736839318947300,9.106947265625,-0.030544281005859375,0.01563478633761406,-0.017768315970897675
1716736839328947500,9.116947509765625,-0.0257568359375,-0.01327422633767128,0.006635736674070358
1716736839338947300,9.126947265625,-0.023365020751953125,-0.006059341132640839,-0.00970897451043129
1716736839348947500,9.136947509765625,-0.013788223266601562,-0.0059996433556079865,0.002168167382478714
1716736839358947300,9.146947265625,-0.02575969696044922,-0.003556434065103531,-0.007459815591573715
1716736839368947500,9.156947509765626,-0.03773021697998047,-0.013128906488418579,0.0021360963582992554
1716736839378947300,9.166947265625,-0.020971298217773438,-0.0011598877608776093,-0.014542516320943832
1716736839388947500,9.176947509765625,-0.018576622009277344,-0.005941752344369888,0.011731788516044617
1716736839398947300,9.186947265625,-0.011393547058105469,0.0011132769286632538,-0.005059570074081421
1716736839408947500,9.196947509765625,-0.020975112915039062,0.003954444080591202,-0.004676874727010727
1716736839418947300,9.206947265625,-0.025763511657714844,0.008685149252414703,0.002518795430660248
1716736839428947500,9.216947509765625,-0.02097320556640625,-0.0033560171723365784,0.002474036067724228
1716736839438947300,9.226947265625,-0.018578529357910156,-0.0057397037744522095,0.00003742426633834839
1716736839448947500,9.236947509765624,-0.030550003051757812,-0.008272446691989899,-0.007134176790714264
1716736839458947300,9.246947265625,-0.01618480682373047,-0.020239125937223434,-0.002326667308807373
1716736839468947200,9.256947265625,0.0005750656127929688,0.003696504980325699,0.004917673766613007
1716736839478947300,9.266947265625,-0.018578529357910156,0.001306641846895218,0.004936780780553818
1716736839488947200,9.276947265625,-0.03534126281738281,-0.007789377123117447,0.021689314395189285
1716736839498947300,9.286947265625,-0.01618671417236328,0.006847929209470749,0.004527527838945389
1716736839508947200,9.296947265625,-0.03294563293457031,-0.012369569391012192,-0.00018628686666488647
1716736839518947300,9.306947265625,-0.013792037963867188,-0.014840282499790192,0.007013358175754547
1716736839528947200,9.316947265625,-0.023369789123535156,-0.000011399388313293457,0.013931717723608017
1716736839538947000,9.326947021484376,-0.028158187866210938,0.011944759637117386,0.011560820043087006
1716736839548947200,9.336947265625,-0.24363327026367188,-0.0166667178273201,-0.010717086493968964
1716736839558947000,9.346947021484375,0.08676719665527344,0.004759844392538071,0.006129685789346695
1716736839568947200,9.356947265625,0.041278839111328125,-0.007002882659435272,-0.0015617460012435913
1716736839578947000,9.366947021484375,-0.054490089416503906,-0.020927829667925835,0.0005533434450626373
1716736839588947200,9.376947265625,-0.09040451049804688,0.005859140306711197,0.0052010491490364075
1716736839598947000,9.386947021484374,-0.02576160430908203,-0.015684183686971664,-0.023510441184043884
1716736839608947200,9.396947265625,0.00775909423828125,0.01530856266617775,0.005168996751308441
1716736839618947000,9.406947021484376,-0.02576160430908203,-0.001391235738992691,-0.004320535808801651
1716736839628947200,9.416947265625,-0.07843399047851562,-0.0037300437688827515,0.005324199795722961
1716736839638947000,9.426947021484375,-0.0066089630126953125,0.0010560117661952972,-0.0065657272934913635
1716736839648947200,9.436947265625,0.012545585632324219,-0.0014638230204582214,-0.013860870152711868
1716736839658947000,9.446947021484375,-0.040129661560058594,-0.0060857608914375305,-0.01826457679271698
1716736839668947200,9.456947265625,-0.059287071228027344,0.006125874817371368,-0.01302742213010788
1716736839678947000,9.466947021484375,-0.009011268615722656,-0.017705049365758896,-0.0077413469552993774
1716736839688947200,9.476947265625,0.024503707885742188,0.01603565737605095,0.004682362079620361
1716736839698947000,9.486947021484376,-0.028168678283691406,0.0017747282981872559,-0.009666014462709427
1716736839708947200,9.496947265625,-0.052112579345703125,0.004179593175649643,0.009626004844903946
1716736839718947000,9.506947021484375,-0.0042285919189453125,-0.005392920225858688,0.012039247900247574
1716736839728947200,9.516947265625,0.01971435546875,0.004045594483613968,-0.004709318280220032
1716736839738947000,9.526947021484375,-0.03774547576904297,-0.0007323361933231354,0.016796018928289413
1716736839748947200,9.536947265625,-0.049716949462890625,-0.010328371077775955,0.012012016028165817
1716736839758947000,9.546947021484375,-0.01619720458984375,-0.0030396543443202972,0.002009522169828415
1716736839768947200,9.556947265625,0.007744789123535156,-0.012554556131362915,0.018775060772895813
1716736839778947300,9.566947265625,-0.0257720947265625,0.004383247345685959,0.006342235952615738
1716736839788947500,9.576947509765626,-0.02816486358642578,0.0022011660039424896,0.01064138114452362
1716736839798947300,9.586947265625,-0.0066165924072265625,-0.00024391338229179382,0.0010154880583286285
1716736839808947500,9.596947509765625,0.0005674362182617188,-0.021868232637643814,0.0034267306327819824
1716736839818947300,9.606947265625,-0.02576923370361328,0.004740089178085327,-0.0017640218138694763
1716736839828947500,9.616947509765625,-0.03773975372314453,-0.019210441038012505,-0.006590809673070908
1716736839838947300,9.626947265625,-0.013797760009765625,-0.00724569708108902,-0.006529148668050766
1716736839848947500,9.636947509765625,-0.018586158752441406,-0.002446752041578293,0.010187741369009018
1716736839858947300,9.646947265625,-0.0066165924072265625,0.0028433874249458313,0.0075209662318229675
1716736839868947500,9.656947509765626,-0.03774070739746094,0.022107809782028198,0.002687603235244751
1716736839878947300,9.666947265625,-0.023375511169433594,0.010136865079402924,-0.009283442050218582
1716736839888947500,9.676947509765625,-0.004221916198730469,0.01486179232597351,0.0051560476422309875
1716736839898947300,9.686947265625,-0.018587112426757812,0.002895273268222809,0.012357592582702637
1716736839908947500,9.696947509765625,-0.03055572509765625,-0.006883624941110611,0.014475192874670029
1716736839918947300,9.706947265625,-0.020979881286621094,0.002816449850797653,-0.007059883326292038
1716736839928947500,9.716947509765625,-0.006615638732910156,0.0029208287596702576,0.024081606417894363
1716736839938947300,9.726947265625,-0.018581390380859375,0.009866885840892792,0.009105995297431946
1716736839948947500,9.736947509765624,-0.030548095703125,-0.012028101831674576,0.008540291339159012
1716736839958947300,9.746947265625,-0.0233612060546875,-0.009748689830303192,0.010417304933071136
1716736839968947500,9.756947509765626,-0.011387825012207031,-0.007278464734554291,-0.006901595741510391
1716736839978947300,9.766947265625,-0.008991241455078125,-0.004676047712564468,-0.0026218555867671967
1716736839988947500,9.776947509765625,-0.018568038940429688,-0.013948846608400345,-0.007759410887956619
1716736839998947300,9.786947265625,-0.023355484008789062,0.007609430700540543,-0.0006192922592163086
1716736840008947500,9.796947509765625,-0.004200935363769531,0.0027018748223781586,-0.02934313751757145
1716736840018947300,9.806947265625,-0.008989334106445312,-0.004551272839307785,-0.019810717552900314
1716736840028947500,9.816947509765624,-0.03532981872558594,0.009939689189195633,0.006999865174293518
1716736840038947300,9.826947265625,-0.03293800354003906,0.009959321469068527,0.0003554299473762512
1716736840048947500,9.836947509765626,-0.011391639709472656,-0.00219833105802536,-0.023163296282291412
1716736840058947300,9.846947265625,-0.011391639709472656,0.0001935996115207672,-0.004109635949134827
1716736840068947500,9.856947509765625,-0.02575969696044922,0.009622026234865189,0.008457105606794357
1716736840078947300,9.866947265625,-0.013789176940917969,-0.00018861889839172363,0.0016683153808116913
1716736840088947500,9.876947509765625,0.0029697418212890625,0.006949238479137421,-0.005443982779979706
1716736840098947300,9.886947265625,-0.009000778198242188,0.009328540414571762,0.023309949785470963
1716736840108947500,9.896947509765624,-0.02336597442626953,0.009270977228879929,-0.0030133873224258423
1716736840118947300,9.906947265625,-0.023365020751953125,0.01639602705836296,0.01615310087800026
1716736840128947500,9.916947509765626,-0.006600379943847656,-0.005888044834136963,-0.012995894998311996
1716736840138947300,9.926947265625,-0.018568992614746094,0.005608581006526947,0.010891146957874298
1716736840148947500,9.936947509765625,-0.011387825012207031,-0.0087587870657444,0.0013953223824501038
1716736840158947300,9.946947265625,-0.016172409057617188,0.007708866149187088,-0.018074996769428253
1716736840168947500,9.956947509765625,-0.01617145538330078,-0.004332311451435089,0.005822360515594482
1716736840178947300,9.966947265625,-0.013776779174804688,0.007591899484395981,-0.0013900958001613617
1716736840188947500,9.976947509765624,-0.01617145538330078,-0.006792392581701279,0.0010083429515361786
1716736840198947300,9.986947265625,-0.020959854125976562,-0.004332248121500015,-0.003754477947950363
1716736840208947500,9.996947509765626,-0.016170501708984375,-0.002008255571126938,-0.003799203783273697
1716736840218947300,10.006947265625,-0.011385917663574219,0.014870774000883102,-0.003263242542743683
1716736840228947500,10.016947509765625,-0.016172409057617188,-0.004767674952745438,-0.0007006414234638214
1716736840238947300,10.026947265625,-0.023354530334472656,0.007145993411540985,0.006494633853435516
1716736840248947500,10.036947509765625,-0.02096080780029297,0.0023489631712436676,-0.0031203143298625946
1716736840258947300,10.046947265625,-0.006595611572265625,0.0046919360756874084,0.004013475030660629
1716736840268947500,10.056947509765624,-0.011384010314941406,0.004740796983242035,0.006356682628393173
1716736840278947300,10.066947265625,-0.02335357666015625,-0.0025055408477783203,0.006431087851524353
1716736840288947500,10.076947509765626,-0.02335357666015625,0.002231679856777191,0.00398813933134079
1716736840298947300,10.086947265625,-0.02335357666015625,-0.0026911497116088867,-0.007952660322189331
1716736840308947500,10.096947509765625,-0.008988380432128906,-0.00017363950610160828,0.008819561451673508
1716736840318947300,10.106947265625,-0.02814197540283203,-0.002567976713180542,0.004031233489513397
1716736840328947500,10.116947509765625,-0.013773918151855469,0.0069742873311042786,0.0035165809094905853
1716736840338947300,10.126947265625,-0.0257415771484375,0.0019197538495063782,0.019893143326044083
1716736840348947500,10.136947509765625,-0.016165733337402344,0.004375554621219635,0.0007460042834281921
1716736840358947300,10.146947265625,-0.011376380920410156,-0.00035981833934783936,-0.01604529097676277
1716736840368947500,10.156947509765626,-0.023344039916992188,0.006401650607585907,-0.011524844914674759
1716736840378947300,10.166947265625,-0.008978843688964844,-0.010408785194158554,-0.01636216789484024
1716736840388947500,10.176947509765625,-0.028131484985351562,0.0015494823455810547,-0.014025431126356125
1716736840398947300,10.186947265625,-0.01616382598876953,-0.0007531493902206421,0.005630411207675934
1716736840408947500,10.196947509765625,-0.006587028503417969,-0.01040642336010933,0.00804154947400093
1716736840418947300,10.206947265625,-0.01855754852294922,-0.00801832601428032,-0.02302158623933792
1716736840428947500,10.216947509765625,-0.0257415771484375,-0.0031635314226150513,-0.0062370263040065765
1716736840438947300,10.226947265625,-0.016164779663085938,-0.007884036749601364,-0.001503918319940567
1716736840448947500,10.236947509765624,-0.018558502197265625,-0.000716332346200943,-0.008663009852170944
1716736840458947300,10.246947265625,-0.013770103454589844,0.013655077666044235,0.010428987443447113
1716736840468947500,10.256947509765626,-0.020952224731445312,0.011184170842170715,-0.003919072449207306
1716736840478947300,10.266947265625,-0.016164779663085938,-0.017809554934501648,-0.008266981691122055
1716736840488947500,10.276947509765625,-0.023346900939941406,0.0037295855581760406,0.030002035200595856
1716736840498947300,10.286947265625,-0.008981704711914062,0.008579596877098083,0.008460689336061478
1716736840508947500,10.296947509765625,-0.02573871612548828,-0.001199379563331604,-0.008756190538406372
1716736840518947300,10.306947265625,-0.013767242431640625,-0.005996257066726685,0.005570698529481888
1716736840528947500,10.316947509765624,0.1059427261352539,0.0059790462255477905,-0.042294297367334366
1716736840538947300,10.326947265625,0.10833740234375,0.0034528151154518127,-0.03037409856915474
1716736840548947500,10.336947509765626,0.08199691772460938,0.0033471472561359406,-0.0030698180198669434
1716736840558947300,10.346947265625,-0.06884098052978516,0.0008276328444480896,-0.004853110760450363
1716736840568947500,10.356947509765625,-0.05687236785888672,-0.018229767680168152,0.010033179074525833
1716736840578947300,10.366947265625,0.055649757385253906,0.005950953811407089,-0.006196815520524979
1716736840588947500,10.376947509765625,0.01973724365234375,-0.008458808064460754,-0.0037324130535125732
1716736840598947300,10.386947265625,-0.0257568359375,-0.0010054409503936768,-0.027091827243566513
1716736840608947200,10.396947265625,-0.025763511657714844,-0.000715646892786026,-0.026332519948482513
1716736840618947300,10.406947265625,0.014935493469238281,0.006556693464517593,-0.009171150624752045
1716736840628947200,10.416947265625,0.019721031188964844,-0.012671127915382385,-0.0013287551701068878
1716736840638947300,10.426947265625,-0.06168556213378906,-0.024358749389648438,-0.0008696131408214569
1716736840648947200,10.436947265625,-0.04971885681152344,-0.009448513388633728,-0.00537785142660141
1716736840658947300,10.446947265625,0.029287338256835938,0.01482560858130455,0.0068204812705516815
1716736840668947200,10.456947265625,0.024498939514160156,0.002796914428472519,-0.002743273973464966
1716736840678947300,10.466947265625,-0.042542457580566406,0.007870625704526901,0.00002941116690635681
1716736840688947200,10.476947265625,-0.04254436492919922,-0.013677019625902176,0.0029663369059562683
1716736840698947300,10.486947265625,0.012521743774414062,-0.0016570650041103363,0.000521000474691391
1716736840708947200,10.496947265625,-0.004237174987792969,-0.004059605300426483,0.014847710728645325
1716736840718947300,10.506947265625,-0.032967567443847656,-0.013347230851650238,0.0049451179802417755
1716736840728947200,10.516947265625,-0.04493999481201172,-0.01522897183895111,0.004629768431186676
1716736840738947300,10.526947265625,0.0029430389404296875,-0.012354165315628052,0.014019079506397247
1716736840748947200,10.536947265625,0.0220947265625,0.005132414400577545,0.001524072140455246
1716736840758947300,10.546947265625,-0.030577659606933594,0.005544785410165787,-0.0035772472620010376
1716736840768947200,10.556947265625,-0.04733753204345703,0.007994286715984344,-0.0011149756610393524
1716736840778947300,10.566947265625,-0.0018472671508789062,0.01750720664858818,-0.01301141083240509
1716736840788947500,10.576947509765626,0.002941131591796875,0.007860083132982254,-0.0034790895879268646
1716736840798947300,10.586947265625,-0.04733562469482422,0.005395732820034027,0.0036587677896022797
1716736840808947500,10.596947509765625,-0.025789260864257812,-0.001727178692817688,-0.008225105702877045
1716736840818947300,10.606947265625,-0.011423110961914062,-0.001840062439441681,0.006085015833377838
1716736840828947500,10.616947509765625,0.0029449462890625,0.007092248648405075,0.008562609553337097
1716736840838947300,10.626947265625,-0.009022712707519531,0.004270266741514206,0.008356686681509018
1716736840848947500,10.636947509765625,-0.03296470642089844,0.0019379667937755585,-0.006002392619848251
1716736840858947300,10.646947265625,-0.009020805358886719,-0.01047753170132637,0.003472447395324707
1716736840868947500,10.656947509765626,0.007739067077636719,-0.01288006454706192,-0.0037486515939235687
1716736840878947300,10.666947265625,-0.016204833984375,-0.00033435598015785217,-0.011059749871492386
1716736840888947500,10.676947509765625,-0.011420249938964844,-0.0023624449968338013,0.018051303923130035
1716736840898947300,10.686947265625,-0.018602371215820312,0.002487868070602417,0.0036922283470630646
1716736840908947500,10.696947509765625,0.0005512237548828125,0.004811771214008331,0.010830249637365341
1716736840918947300,10.706947265625,-0.03536224365234375,0.021513812243938446,0.0060546137392520905
1716736840928947500,10.716947509765625,-0.03536224365234375,0.000019177794456481934,0.0036283694207668304
1716736840938947300,10.726947265625,0.005339622497558594,0.004807647317647934,-0.005948472768068314
1716736840948947500,10.736947509765624,-0.013810157775878906,-0.005173522979021072,-0.003926318138837814
1716736840958947300,10.746947265625,-0.011416435241699219,0.0018939599394798279,0.0008879490196704865
1716736840968947500,10.756947509765626,-0.025781631469726562,-0.021986637264490128,0.005682922899723053
1716736840978947300,10.766947265625,-0.0066280364990234375,-0.009966615587472916,0.019996967166662216
1716736840988947500,10.776947509765625,-0.0066280364990234375,-0.0024589858949184418,0.0075917914509773254
1716736840998947300,10.786947265625,-0.02099132537841797,0.009885963052511215,-0.014441214501857758
1716736841008947500,10.796947509765625,-0.025778770446777344,0.0004280880093574524,0.001949939876794815
1716736841018947300,10.806947265625,-0.011412620544433594,0.007540516555309296,-0.0004889145493507385
1716736841028947500,10.816947509765624,-0.0066242218017578125,0.0003449767827987671,0.006636328995227814
1716736841038947300,10.826947265625,-0.020989418029785156,-0.002044670283794403,0.006655238568782806
1716736841048947500,10.836947509765626,-0.01620006561279297,0.00023664161562919617,0.006600148975849152
1716736841058947300,10.846947265625,-0.016196250915527344,-0.007099460810422897,-0.008273415267467499
1716736841068947500,10.856947509765625,-0.02098369598388672,-0.004949759691953659,-0.008198894560337067
1716736841078947300,10.866947265625,-0.02098369598388672,-0.0073377154767513275,0.008498948067426682
1716736841088947500,10.876947509765625,-0.03774261474609375,-0.007284529507160187,-0.003504108637571335
1716736841098947300,10.886947265625,-0.011409759521484375,0.0028177984058856964,-0.0035811737179756165
1716736841108947500,10.896947509765624,-0.0066204071044921875,-0.009204082190990448,-0.010812871158123016
1716736841118947300,10.906947265625,-0.01619720458984375,-0.006818361580371857,0.0011198148131370544
1716736841128947500,10.916947509765626,-0.016196250915527344,0.0003576427698135376,-0.00857604667544365
1716736841138947300,10.926947265625,-0.011411666870117188,0.0030607394874095917,0.006182417273521423
1716736841148947500,10.936947509765625,-0.009016990661621094,0.024661432951688766,-0.013002913445234299
1716736841158947300,10.946947265625,0.00534820556640625,0.005569394677877426,-0.0010255053639411926
1716736841168947500,10.956947509765625,-0.013805389404296875,0.010300345718860626,-0.005801007151603699
1716736841178947300,10.966947265625,-0.02577686309814453,0.00010700523853302002,0.006649047136306763
1716736841188947500,10.976947509765624,-0.011409759521484375,-0.010084372013807297,-0.007498729974031448
1716736841198947300,10.986947265625,-0.01620006561279297,-0.007783669978380203,0.012138094753026962
1716736841208947500,10.996947509765626,-0.028171539306640625,0.0065794438123703,0.007430635392665863
1716736841218947300,11.006947265625,-0.018593788146972656,0.01609870418906212,-0.006921693682670593
1716736841228947500,11.016947509765625,-0.018593788146972656,0.0040703266859054565,0.002667885273694992
1716736841238947300,11.026947265625,-0.03056621551513672,-0.003114461898803711,-0.004433806985616684
1716736841248947500,11.036947509765625,-0.02098846435546875,0.011118937283754349,0.00988037884235382
1716736841258947300,11.046947265625,-0.013804435729980469,-0.008105039596557617,-0.004529375582933426
1716736841268947500,11.056947509765624,-0.006621360778808594,-0.01055675745010376,0.0026661716401576996
1716736841278947300,11.066947265625,-0.023380279541015625,-0.003363613039255142,-0.0021647512912750244
1716736841288947500,11.076947509765626,-0.018590927124023438,-0.013078812509775162,0.009817074984312057
1716736841298947600,11.086947509765626,-0.020986557006835938,-0.010673943907022476,0.002591881901025772
1716736841308947500,11.096947509765625,-0.016198158264160156,0.006083343178033829,0.0002785585820674896
1716736841318947600,11.106947509765625,-0.0066204071044921875,0.013252899050712585,0.00022143498063087463
1716736841328947500,11.116947509765625,-0.02098560333251953,0.010862845927476883,-0.004547756165266037
1716736841338947600,11.126947509765625,0.0005617141723632812,-0.003498028963804245,-0.016499657183885574
1716736841348947500,11.136947509765625,-0.01619720458984375,-0.005905255675315857,0.0025967322289943695
1716736841358947600,11.146947509765624,-0.02577495574951172,0.006131745874881744,-0.011743094772100449
1716736841368947500,11.156947509765626,-0.016198158264160156,0.015702281147241592,0.0098663829267025
1716736841378947300,11.166947265625,-0.020984649658203125,0.00325925275683403,0.009911220520734787
1716736841388947500,11.176947509765625,-0.023377418518066406,0.00793483853340149,0.0026734955608844757
1716736841398947300,11.186947265625,-0.016195297241210938,-0.013559944927692413,0.005035821348428726
1716736841408947500,11.196947509765625,-0.01619243621826172,0.010120179504156113,-0.00011618807911872864
1716736841418947300,11.206947265625,-0.01619243621826172,-0.023343641310930252,-0.00022877007722854614
1716736841428947500,11.216947509765625,-0.013796806335449219,-0.0066414400935173035,-0.0002161674201488495
1716736841438947300,11.226947265625,-0.020979881286621094,-0.004324082285165787,0.011772163212299347
1716736841448947500,11.236947509765624,-0.023374557495117188,0.00777025893330574,-0.019339755177497864
1716736841458947300,11.246947265625,-0.016195297241210938,0.003345917910337448,-0.014270879328250885
1716736841468947500,11.256947509765626,-0.013803482055664062,-0.01101897656917572,0.0006368868052959442
1716736841478947300,11.266947265625,-0.013806343078613281,0.0036848224699497223,-0.0014108680188655853
1716736841488947500,11.276947509765625,-0.025777816772460938,0.003689214587211609,0.01057920977473259
1716736841498947300,11.286947265625,-0.011412620544433594,0.006074897944927216,0.003358222544193268
1716736841508947500,11.296947509765625,-0.0066242218017578125,-0.008347529917955399,0.02970704436302185
1716736841518947300,11.306947265625,-0.013804435729980469,-0.0059493668377399445,0.002847425639629364
1716736841528947500,11.316947509765624,-0.035350799560546875,-0.0009719692170619965,-0.00005114451050758362
1716736841538947300,11.326947265625,0.038872718811035156,0.00387776643037796,0.011383678764104843
1716736841548947500,11.336947509765626,0.10112380981445312,0.010828245431184769,-0.0056052617728710175
1716736841558947300,11.346947265625,0.012537956237792969,0.003749765455722809,-0.01755926012992859
1716736841568947500,11.356947509765625,-0.06407833099365234,-0.017793573439121246,0.018553689122200012
1716736841578947300,11.366947265625,-0.030559539794921875,-0.015275847166776657,0.006595280021429062
1716736841588947500,11.376947509765625,0.024507522583007812,0.003820400685071945,0.016184858977794647
1716736841598947300,11.386947265625,0.010142326354980469,-0.01767183095216751,0.01846589520573616
1716736841608947200,11.396947265625,-0.037738800048828125,0.011634308844804764,0.0031684860587120056
1716736841618947300,11.406947265625,-0.009007453918457031,0.009480196982622147,0.00989561527967453
1716736841628947200,11.416947265625,0.05324554443359375,0.00704941526055336,0.006886601448059082
1716736841638947300,11.426947265625,-0.008998870849609375,0.009326115250587463,0.0013004690408706665
1716736841648947200,11.436947265625,-0.052089691162109375,-0.010176893323659897,0.0008157789707183838
1716736841658947300,11.446947265625,-0.008991241455078125,0.011381305754184723,-0.016347870230674744
1716736841668947200,11.456947265625,0.034104347229003906,-0.0006408654153347015,-0.002031516283750534
1716736841678947300,11.466947265625,-0.013779640197753906,-0.015069767832756042,-0.01392805203795433
1716736841688947200,11.476947265625,-0.04012012481689453,0.006629418581724167,0.0034205876290798187
1716736841698947300,11.486947265625,-0.016180038452148438,0.011267241090536118,-0.010448865592479706
1716736841708947200,11.496947265625,0.01733875274658203,-0.0007612667977809906,-0.005647618323564529
1716736841718947300,11.506947265625,-0.023362159729003906,0.013603851199150085,-0.017618495970964432
1716736841728947200,11.516947265625,-0.0544891357421875,0.0181182362139225,-0.002770259976387024
1716736841738947300,11.526947265625,-0.02336406707763672,-0.0038422904908657074,-0.00963950902223587
1716736841748947200,11.536947265625,0.0053653717041015625,-0.009036436676979065,0.017309561371803284
1716736841758947300,11.546947265625,0.0053653717041015625,-0.013775888830423355,0.017258435487747192
1716736841768947200,11.556947265625,-0.03773021697998047,0.0030452869832515717,0.002899523824453354
1716736841778947300,11.566947265625,-0.02575969696044922,0.0030495859682559967,0.0029185637831687927
1716736841788947200,11.576947265625,-0.006603240966796875,0.005441267043352127,-0.004725567996501923
1716736841798947300,11.586947265625,-0.016180038452148438,-0.01143740490078926,0.007251989096403122
1716736841808947500,11.596947509765625,-0.03293895721435547,-0.008989818394184113,-0.004751186817884445
1716736841818947300,11.606947265625,-0.013785362243652344,-0.01617245003581047,-0.002356879413127899
1716736841828947500,11.616947509765625,-0.004207611083984375,-0.013848621398210526,0.02154058963060379
1716736841838947300,11.626947265625,0.0029735565185546875,0.003476262092590332,-0.01950797811150551
1716736841848947500,11.636947509765625,-0.028153419494628906,0.006395973265171051,0.014114778488874435
1716736841858947300,11.646947265625,-0.008999824523925781,0.0015925653278827667,-0.014592159539461136
1716736841868947500,11.656947509765626,0.010149002075195312,0.004491165280342102,0.011932957917451859
1716736841878947300,11.666947265625,-0.009003639221191406,0.011603467166423798,0.0047057680785655975
1716736841888947500,11.676947509765625,-0.01618671417236328,-0.0003061331808567047,0.016683347523212433
1716736841898947300,11.686947265625,-0.008998870849609375,-0.0005471557378768921,-0.0007054992020130157
1716736841908947500,11.696947509765625,0.007760047912597656,0.001964099705219269,-0.010388828814029694
1716736841918947300,11.706947265625,-0.02336406707763672,0.001900404691696167,0.008839249610900879
1716736841928947500,11.716947509765625,-0.037726402282714844,-0.005575884133577347,0.006028119474649429
1716736841938947300,11.726947265625,-0.03293800354003906,0.013694662600755692,0.013285160064697266
1716736841948947500,11.736947509765624,-0.013780593872070312,-0.0009535215795040131,-0.006327912211418152
1716736841958947300,11.746947265625,-0.006598472595214844,-0.008144434541463852,-0.0015779994428157806
1716736841968947500,11.756947509765626,-0.0065975189208984375,-0.001012895256280899,0.005555611103773117
1716736841978947300,11.766947265625,-0.02335357666015625,-0.0009706355631351471,0.01220627874135971
1716736841988947500,11.776947509765625,-0.011383056640625,0.003740902990102768,0.026588808745145798
1716736841998947300,11.786947265625,-0.0018033981323242188,-0.015377014875411987,0.0021767616271972656
1716736842008947500,11.796947509765625,-0.02095508575439453,-0.005629952996969223,0.0016762837767601013
1716736842018947300,11.806947265625,-0.02334880828857422,-0.0009184181690216064,-0.017460010945796967
1716736842028947500,11.816947509765624,-0.01616668701171875,-0.008028652518987656,0.0016573481261730194
1716736842038947300,11.826947265625,-0.008983612060546875,0.006321776658296585,-0.0007135830819606781
1716736842048947500,11.836947509765626,-0.018560409545898438,-0.010431230068206787,-0.0007753148674964905
1716736842058947300,11.846947265625,-0.025743484497070312,-0.005651462823152542,-0.005601860582828522
1716736842068947500,11.856947509765625,-0.004195213317871094,0.0016479268670082092,-0.005708247423171997
1716736842078947300,11.866947265625,-0.01616668701171875,0.011228937655687332,-0.0032948702573776245
1716736842088947500,11.876947509765625,-0.023347854614257812,0.006427958607673645,-0.008140910416841507
1716736842098947300,11.886947265625,-0.013773918151855469,0.0015651695430278778,0.0019148550927639008
1716736842108947500,11.896947509765624,-0.025745391845703125,0.0063451677560806274,-0.0077003128826618195
1716736842118947300,11.906947265625,-0.016168594360351562,-0.000769343227148056,0.01139790192246437
1716736842128947500,11.916947509765626,-0.01616668701171875,-0.01766061782836914,-0.005412496626377106
1716736842138947300,11.926947265625,-0.018560409545898438,0.0038296394050121307,-0.0030054226517677307
1716736842148947500,11.936947509765625,-0.028141021728515625,0.004072580486536026,-0.00024344399571418762
1716736842158947300,11.946947265625,-0.0018053054809570312,-0.010288499295711517,-0.009801041334867477
