time,seconds_elapsed,z,y,x
1716736830605307000,0.393306884765625,9.785401344299316,0.043095629662275314,0.05506663769483566
1716736830615307000,0.40330712890625,9.783007621765137,0.043095629662275314,0.040701430290937424
1716736830625307000,0.413306884765625,9.775824546813965,0.05027823522686958,0.05027823522686958
1716736830635307000,0.42330712890625,9.778219223022461,0.06703764945268631,0.05985504388809204
1716736830645307000,0.433306884765625,9.787796020507812,0.047884032130241394,0.05506663769483566
1716736830655307000,0.44330712890625,9.80216121673584,0.0454898327589035,0.05506663769483566
1716736830665307000,0.453306884765625,9.78061294555664,0.06703764945268631,0.05506663769483566
1716736830675307000,0.46330712890625,9.787796020507812,0.05267243832349777,0.0454898327589035
1716736830685307000,0.473306884765625,9.794978141784668,0.047884032130241394,0.05506663769483566
1716736830695307000,0.48330712890625,9.783007621765137,0.05267243832349777,0.05027823522686958
1716736830705307100,0.49330712890625,9.783007621765137,0.05985504388809204,0.06224924325942993
1716736830715307000,0.50330712890625,9.773430824279785,0.05746084079146385,0.05985504388809204
1716736830725307100,0.51330712890625,9.794978141784668,0.047884032130241394,0.05027823522686958
1716736830735307000,0.52330712890625,9.787796020507812,0.040701430290937424,0.05506663769483566
1716736830745307100,0.53330712890625,9.792584419250488,0.023942016065120697,0.07661445438861847
1716736830755307000,0.54330712890625,9.785401344299316,0.0454898327589035,0.06224924325942993
1716736830765307100,0.55330712890625,9.775824546813965,0.035913024097681046,0.06703764945268631
1716736830775307000,0.56330712890625,9.771036148071289,0.05746084079146385,0.06703764945268631
1716736830785307100,0.57330712890625,9.787796020507812,0.05506663769483566,0.05746084079146385
1716736830795307000,0.58330712890625,9.78061294555664,0.0454898327589035,0.06464344263076782
1716736830805307100,0.59330712890625,9.785401344299316,0.06703764945268631,0.05746084079146385
1716736830815307000,0.60330712890625,9.778219223022461,0.028730420395731926,0.06464344263076782
1716736830825307100,0.61330712890625,9.787796020507812,0.05746084079146385,0.047884032130241394
1716736830835307000,0.62330712890625,9.790189743041992,0.05267243832349777,0.0694318488240242
1716736830845307100,0.63330712890625,9.778219223022461,0.05267243832349777,0.0454898327589035
1716736830855307000,0.64330712890625,9.787796020507812,0.040701430290937424,0.047884032130241394
1716736830865307100,0.65330712890625,9.785401344299316,0.05267243832349777,0.05027823522686958
1716736830875307000,0.66330712890625,9.78061294555664,0.043095629662275314,0.05506663769483566
1716736830885307100,0.67330712890625,9.790189743041992,0.05746084079146385,0.05267243832349777
1716736830895307000,0.68330712890625,9.778219223022461,0.040701430290937424,0.0454898327589035
1716736830905307100,0.69330712890625,9.787796020507812,0.07422025501728058,0.06464344263076782
1716736830915307000,0.70330712890625,9.78061294555664,0.0454898327589035,0.05746084079146385
1716736830925307100,0.71330712890625,9.778219223022461,0.047884032130241394,0.06224924325942993
1716736830935307000,0.72330712890625,9.775824546813965,0.05985504388809204,0.0694318488240242
1716736830945307100,0.73330712890625,9.78061294555664,0.033518824726343155,0.05985504388809204
1716736830955307000,0.74330712890625,9.783007621765137,0.05027823522686958,0.06703764945268631
1716736830965307100,0.75330712890625,9.787796020507812,0.043095629662275314,0.05506663769483566
1716736830975307000,0.76330712890625,9.790189743041992,0.033518824726343155,0.07182604819536209
1716736830985307100,0.77330712890625,9.773430824279785,0.06464344263076782,0.07422025501728058
1716736830995307000,0.78330712890625,9.787796020507812,0.06224924325942993,0.07182604819536209
1716736831005307100,0.79330712890625,9.792584419250488,0.05267243832349777,0.05746084079146385
1716736831015307000,0.80330712890625,9.80455493927002,0.0454898327589035,0.05027823522686958
1716736831025307100,0.81330712890625,9.78061294555664,0.0694318488240242,0.047884032130241394
1716736831035307000,0.82330712890625,9.783007621765137,0.047884032130241394,0.06464344263076782
1716736831045307100,0.83330712890625,9.775824546813965,0.06464344263076782,0.05267243832349777
1716736831055307000,0.84330712890625,9.80216121673584,0.05027823522686958,0.05506663769483566
1716736831065307100,0.85330712890625,9.785401344299316,0.038307227194309235,0.031124621629714966
1716736831075307000,0.86330712890625,9.787796020507812,0.05506663769483566,0.047884032130241394
1716736831085307100,0.87330712890625,9.790189743041992,0.05746084079146385,0.05267243832349777
1716736831095307000,0.88330712890625,9.794978141784668,0.05746084079146385,0.06464344263076782
1716736831105307100,0.89330712890625,9.787796020507812,0.047884032130241394,0.05985504388809204
1716736831115307000,0.90330712890625,9.778219223022461,0.05027823522686958,0.05985504388809204
1716736831125307100,0.91330712890625,9.797372817993164,0.05027823522686958,0.0454898327589035
1716736831135307000,0.92330712890625,9.785401344299316,0.05985504388809204,0.06224924325942993
1716736831145307100,0.93330712890625,9.773430824279785,0.047884032130241394,0.06703764945268631
1716736831155307000,0.94330712890625,9.785401344299316,0.028730420395731926,0.0694318488240242
1716736831165307100,0.95330712890625,9.773430824279785,0.0454898327589035,0.05746084079146385
1716736831175307000,0.96330712890625,9.783007621765137,0.05506663769483566,0.05985504388809204
1716736831185307100,0.97330712890625,9.78061294555664,0.0454898327589035,0.047884032130241394
1716736831195307000,0.98330712890625,9.792584419250488,0.05506663769483566,0.05746084079146385
1716736831205307100,0.99330712890625,9.785401344299316,0.05506663769483566,0.06224924325942993
1716736831215307000,1.00330712890625,9.790189743041992,0.05746084079146385,0.038307227194309235
1716736831225307100,1.01330712890625,9.783007621765137,0.05027823522686958,0.05267243832349777
1716736831235307000,1.02330712890625,9.787796020507812,0.06224924325942993,0.047884032130241394
1716736831245307100,1.03330712890625,9.787796020507812,0.05985504388809204,0.0454898327589035
1716736831255307000,1.04330712890625,9.787796020507812,0.0454898327589035,0.047884032130241394
1716736831265307100,1.05330712890625,9.794978141784668,0.05506663769483566,0.033518824726343155
1716736831275307000,1.06330712890625,9.785401344299316,0.06464344263076782,0.05985504388809204
1716736831285307100,1.07330712890625,9.799766540527344,0.05506663769483566,0.05267243832349777
1716736831295307000,1.08330712890625,9.794978141784668,0.05506663769483566,0.0454898327589035
1716736831305307100,1.09330712890625,9.787796020507812,0.05267243832349777,0.05027823522686958
1716736831315307000,1.10330712890625,9.787796020507812,0.05506663769483566,0.0694318488240242
1716736831325307100,1.11330712890625,9.792584419250488,0.0454898327589035,0.047884032130241394
1716736831335307000,1.12330712890625,9.785401344299316,0.040701430290937424,0.06224924325942993
1716736831345307100,1.13330712890625,9.785401344299316,0.033518824726343155,0.0454898327589035
1716736831355307000,1.14330712890625,9.792584419250488,0.035913024097681046,0.05746084079146385
1716736831365307100,1.15330712890625,9.790189743041992,0.047884032130241394,0.043095629662275314
1716736831375307000,1.16330712890625,9.799766540527344,0.033518824726343155,0.05746084079146385
1716736831385307100,1.17330712890625,9.792584419250488,0.05267243832349777,0.05027823522686958
1716736831395307000,1.18330712890625,9.797372817993164,0.05267243832349777,0.06464344263076782
1716736831405307100,1.19330712890625,9.785401344299316,0.05985504388809204,0.06703764945268631
1716736831415307000,1.20330712890625,9.787796020507812,0.040701430290937424,0.0454898327589035
1716736831425307100,1.21330712890625,9.797372817993164,0.05506663769483566,0.05267243832349777
1716736831435307000,1.22330712890625,9.787796020507812,0.05985504388809204,0.035913024097681046
1716736831445307100,1.23330712890625,9.787796020507812,0.038307227194309235,0.05506663769483566
1716736831455307000,1.24330712890625,9.790189743041992,0.06703764945268631,0.05746084079146385
1716736831465307100,1.25330712890625,9.792584419250488,0.0694318488240242,0.05506663769483566
1716736831475307000,1.26330712890625,9.790189743041992,0.043095629662275314,0.05506663769483566
1716736831485306600,1.273306640625,9.792584419250488,0.05267243832349777,0.05267243832349777
1716736831495306800,1.283306640625,9.792584419250488,0.05267243832349777,0.05746084079146385
1716736831505306600,1.293306640625,9.785401344299316,0.047884032130241394,0.05746084079146385
1716736831515306800,1.303306640625,9.790189743041992,0.043095629662275314,0.047884032130241394
1716736831525306600,1.313306640625,9.775824546813965,0.05746084079146385,0.06703764945268631
1716736831535306800,1.323306640625,9.790189743041992,0.05506663769483566,0.05267243832349777
1716736831545306600,1.333306640625,9.790189743041992,0.05985504388809204,0.05027823522686958
1716736831555306800,1.343306640625,9.792584419250488,0.040701430290937424,0.06703764945268631
1716736831565306600,1.353306640625,9.787796020507812,0.028730420395731926,0.05506663769483566
1716736831575306800,1.363306640625,9.658509254455566,0.05985504388809204,0.043095629662275314
1716736831585306600,1.373306640625,9.955389976501465,0.05506663769483566,0.05027823522686958
1716736831595306800,1.383306640625,9.950601577758789,0.0454898327589035,0.06224924325942993
1716736831605306600,1.393306640625,9.668086051940918,0.031124621629714966,0.05985504388809204
1716736831615306800,1.403306640625,9.577106475830078,0.05027823522686958,0.05267243832349777
1716736831625306600,1.413306640625,9.866804122924805,0.06224924325942993,0.0454898327589035
1716736831635306800,1.423306640625,9.991303443908691,0.06464344263076782,0.06703764945268631
1716736831645306600,1.433306640625,9.742305755615234,0.0454898327589035,0.05027823522686958
1716736831655306800,1.443306640625,9.629778861999512,0.0454898327589035,0.06224924325942993
1716736831665306600,1.453306640625,9.857227325439453,0.06464344263076782,0.05027823522686958
1716736831675306800,1.463306640625,9.943418502807617,0.05985504388809204,0.05027823522686958
1716736831685306600,1.473306640625,9.732728958129883,0.05027823522686958,0.06464344263076782
1716736831695306800,1.483306640625,9.668086051940918,0.05027823522686958,0.043095629662275314
1716736831705306600,1.493306640625,9.818920135498047,0.0454898327589035,0.031124621629714966
1716736831715306800,1.503306640625,9.909899711608887,0.05985504388809204,0.05027823522686958
1716736831725306600,1.513306640625,9.74709415435791,0.05027823522686958,0.05267243832349777
1716736831735306800,1.523306640625,9.684844970703125,0.043095629662275314,0.05267243832349777
1716736831745306600,1.533306640625,9.828496932983398,0.047884032130241394,0.06464344263076782
1716736831755306800,1.543306640625,9.89553451538086,0.05985504388809204,0.0454898327589035
1716736831765306600,1.553306640625,9.761459350585938,0.031124621629714966,0.05985504388809204
1716736831775306800,1.563306640625,9.694421768188477,0.033518824726343155,0.05746084079146385
1716736831785306600,1.573306640625,9.806949615478516,0.0454898327589035,0.05746084079146385
1716736831795306800,1.583306640625,9.873987197875977,0.047884032130241394,0.06703764945268631
1716736831805306600,1.593306640625,9.790189743041992,0.05506663769483566,0.06224924325942993
1716736831818947000,1.606947021484375,9.6896333694458,0.0454898327589035,0.0454898327589035
1716736831828947000,1.616947021484375,9.806949615478516,0.0454898327589035,0.05746084079146385
1716736831838947000,1.626947021484375,9.857227325439453,0.047884032130241394,0.05027823522686958
1716736831848947000,1.636947021484375,9.787796020507812,0.033518824726343155,0.0454898327589035
1716736831858947000,1.646947021484375,9.723152160644531,0.031124621629714966,0.06703764945268631
1716736831868947000,1.656947021484375,9.785401344299316,0.043095629662275314,0.035913024097681046
1716736831878947000,1.666947021484375,9.850045204162598,0.05506663769483566,0.05027823522686958
1716736831888947000,1.676947021484375,9.778219223022461,0.040701430290937424,0.047884032130241394
1716736831898947000,1.686947021484375,9.735123634338379,0.05267243832349777,0.05506663769483566
1716736831908947000,1.696947021484375,9.790189743041992,0.0454898327589035,0.047884032130241394
1716736831918947000,1.706947021484375,9.842862129211426,0.038307227194309235,0.035913024097681046
1716736831928947000,1.716947021484375,9.790189743041992,0.05506663769483566,0.0454898327589035
1716736831938947000,1.726947021484375,9.74470043182373,0.05746084079146385,0.07422025501728058
1716736831948947000,1.736947021484375,9.790189743041992,0.05267243832349777,0.07900865375995636
1716736831958947000,1.746947021484375,9.847650527954102,0.040701430290937424,0.06464344263076782
1716736831968947000,1.756947021484375,9.794978141784668,0.047884032130241394,0.0694318488240242
1716736831978947000,1.766947021484375,9.749488830566406,0.043095629662275314,0.06224924325942993
1716736831988947000,1.776947021484375,9.790189743041992,0.06224924325942993,0.038307227194309235
1716736831998947000,1.786947021484375,9.818920135498047,0.05506663769483566,0.06464344263076782
1716736832008947000,1.796947021484375,9.785401344299316,0.043095629662275314,0.043095629662275314
1716736832018947000,1.806947021484375,9.754277229309082,0.038307227194309235,0.05506663769483566
1716736832028947000,1.816947021484375,9.785401344299316,0.05985504388809204,0.05746084079146385
1716736832038947000,1.826947021484375,9.818920135498047,0.05746084079146385,0.0454898327589035
1716736832048947000,1.836947021484375,9.792584419250488,0.05746084079146385,0.047884032130241394
1716736832058947000,1.846947021484375,9.76864242553711,0.05746084079146385,0.035913024097681046
1716736832068947000,1.856947021484375,9.773430824279785,0.05267243832349777,0.0454898327589035
1716736832078947000,1.866947021484375,9.809343338012695,0.033518824726343155,0.05027823522686958
1716736832088947500,1.876947509765625,9.797372817993164,0.033518824726343155,0.040701430290937424
1716736832098947300,1.886947265625,9.78061294555664,0.031124621629714966,0.05267243832349777
1716736832108947500,1.896947509765625,9.778219223022461,0.05985504388809204,0.05985504388809204
1716736832118947300,1.906947265625,9.799766540527344,0.05506663769483566,0.06224924325942993
1716736832128947500,1.916947509765625,9.78061294555664,0.047884032130241394,0.07422025501728058
1716736832138947300,1.926947265625,9.756670951843262,0.05267243832349777,0.043095629662275314
1716736832148947500,1.936947509765625,9.778219223022461,0.038307227194309235,0.05267243832349777
1716736832158947300,1.946947265625,9.787796020507812,0.047884032130241394,0.05746084079146385
1716736832168947500,1.956947509765625,9.783007621765137,0.05985504388809204,0.06703764945268631
1716736832178947300,1.966947265625,9.775824546813965,0.040701430290937424,0.07900865375995636
1716736832188947500,1.976947509765625,9.775824546813965,0.043095629662275314,0.05027823522686958
1716736832198947300,1.986947265625,9.821314811706543,0.05267243832349777,0.06464344263076782
1716736832208947500,1.996947509765625,9.787796020507812,0.05027823522686958,0.05267243832349777
1716736832218947300,2.006947265625,9.76864242553711,0.040701430290937424,0.06464344263076782
1716736832228947500,2.016947509765625,9.785401344299316,0.043095629662275314,0.05506663769483566
1716736832238947300,2.026947265625,9.797372817993164,0.040701430290937424,0.038307227194309235
1716736832248947500,2.036947509765625,9.783007621765137,0.038307227194309235,0.05267243832349777
1716736832258947300,2.046947265625,9.759065628051758,0.05267243832349777,0.06464344263076782
1716736832268947500,2.056947509765625,9.790189743041992,0.047884032130241394,0.06464344263076782
1716736832278947600,2.066947509765625,9.792584419250488,0.05027823522686958,0.047884032130241394
1716736832288947500,2.076947509765625,9.78061294555664,0.043095629662275314,0.06224924325942993
1716736832298947600,2.086947509765625,9.790189743041992,0.043095629662275314,0.0694318488240242
1716736832308947500,2.096947509765625,9.790189743041992,0.043095629662275314,0.05746084079146385
1716736832318947600,2.106947509765625,9.785401344299316,0.047884032130241394,0.05985504388809204
1716736832328947500,2.116947509765625,9.783007621765137,0.035913024097681046,0.043095629662275314
1716736832338947600,2.126947509765625,9.785401344299316,0.05746084079146385,0.05985504388809204
1716736832348947500,2.136947509765625,9.792584419250488,0.0694318488240242,0.07900865375995636
1716736832358947600,2.146947509765625,9.794978141784668,0.047884032130241394,0.06703764945268631
1716736832368947500,2.156947509765625,9.792584419250488,0.05746084079146385,0.05267243832349777
1716736832378947600,2.166947509765625,9.773430824279785,0.043095629662275314,0.05027823522686958
1716736832388947500,2.176947509765625,9.797372817993164,0.05746084079146385,0.05027823522686958
1716736832398947600,2.186947509765625,9.792584419250488,0.0454898327589035,0.05027823522686958
1716736832408947500,2.196947509765625,9.771036148071289,0.05027823522686958,0.05027823522686958
1716736832418947600,2.206947509765625,9.78061294555664,0.06224924325942993,0.043095629662275314
1716736832428947500,2.216947509765625,9.771036148071289,0.0454898327589035,0.0454898327589035
1716736832438947600,2.226947509765625,9.790189743041992,0.05985504388809204,0.047884032130241394
1716736832448947500,2.236947509765625,9.790189743041992,0.038307227194309235,0.043095629662275314
1716736832458947300,2.246947265625,9.778219223022461,0.06464344263076782,0.047884032130241394
1716736832468947500,2.256947509765625,9.785401344299316,0.031124621629714966,0.05985504388809204
1716736832478947300,2.266947265625,9.80216121673584,0.040701430290937424,0.06464344263076782
1716736832488947500,2.276947509765625,9.785401344299316,0.05267243832349777,0.07422025501728058
1716736832498947300,2.286947265625,9.785401344299316,0.047884032130241394,0.06224924325942993
1716736832508947500,2.296947509765625,9.783007621765137,0.038307227194309235,0.06224924325942993
1716736832518947300,2.306947265625,9.792584419250488,0.043095629662275314,0.06464344263076782
1716736832528947500,2.316947509765625,9.455001831054688,0.06464344263076782,0.06224924325942993
1716736832538947300,2.326947265625,9.89314079284668,0.06464344263076782,0.05267243832349777
1716736832548947500,2.336947509765625,10.020033836364746,0.035913024097681046,0.08379705995321274
1716736832558947300,2.346947265625,9.775824546813965,0.011971008032560349,0.05746084079146385
1716736832568947500,2.356947509765625,9.500492095947266,0.05027823522686958,0.07182604819536209
1716736832578947300,2.366947265625,9.723152160644531,0.05985504388809204,0.043095629662275314
1716736832588947500,2.376947509765625,10.043975830078125,0.07182604819536209,0.06224924325942993
1716736832598947300,2.386947265625,9.866804122924805,0.0454898327589035,0.047884032130241394
1716736832608947500,2.396947509765625,9.5531644821167,0.05267243832349777,0.06224924325942993
1716736832618947300,2.406947265625,9.735123634338379,0.05506663769483566,0.040701430290937424
1716736832628947500,2.416947509765625,10.008062362670898,0.05267243832349777,0.05027823522686958
1716736832638947300,2.426947265625,9.826103210449219,0.040701430290937424,0.05506663769483566
1716736832648947500,2.436947509765625,9.613018989562988,0.047884032130241394,0.047884032130241394
1716736832658947300,2.446947265625,9.730335235595703,0.047884032130241394,0.05267243832349777
1716736832668947500,2.456947509765625,9.936236381530762,0.0454898327589035,0.047884032130241394
1716736832678947300,2.466947265625,9.8691987991333,0.07182604819536209,0.06703764945268631
1716736832688947500,2.476947509765625,9.639355659484863,0.0454898327589035,0.05027823522686958
1716736832698947300,2.486947265625,9.737517356872559,0.05506663769483566,0.05985504388809204
1716736832708947500,2.496947509765625,9.933841705322266,0.047884032130241394,0.06224924325942993
1716736832718947300,2.506947265625,9.847650527954102,0.05267243832349777,0.06703764945268631
1716736832728947500,2.516947509765625,9.672874450683594,0.026336219161748886,0.0454898327589035
1716736832738947300,2.526947265625,9.723152160644531,0.031124621629714966,0.05746084079146385
1716736832748947500,2.536947509765625,9.900322914123535,0.05027823522686958,0.0694318488240242
1716736832758947300,2.546947265625,9.840468406677246,0.05027823522686958,0.0454898327589035
1716736832768947500,2.556947509765625,9.684844970703125,0.0694318488240242,0.07422025501728058
1716736832778947300,2.566947265625,9.727940559387207,0.06224924325942993,0.05027823522686958
1716736832788947500,2.576947509765625,9.864410400390625,0.043095629662275314,0.05027823522686958
1716736832798947300,2.586947265625,9.850045204162598,0.038307227194309235,0.06464344263076782
1716736832808947500,2.596947509765625,9.723152160644531,0.033518824726343155,0.038307227194309235
1716736832818947300,2.606947265625,9.739912033081055,0.038307227194309235,0.05985504388809204
1716736832828947500,2.616947509765625,9.847650527954102,0.05746084079146385,0.047884032130241394
1716736832838947300,2.626947265625,9.845256805419922,0.05985504388809204,0.0454898327589035
1716736832848947500,2.636947509765625,9.751882553100586,0.043095629662275314,0.038307227194309235
1716736832858947300,2.646947265625,9.759065628051758,0.035913024097681046,0.047884032130241394
1716736832868947500,2.656947509765625,9.83807373046875,0.0454898327589035,0.05985504388809204
1716736832878947300,2.666947265625,9.830891609191895,0.05027823522686958,0.038307227194309235
1716736832888947500,2.676947509765625,9.74709415435791,0.05027823522686958,0.040701430290937424
1716736832898947300,2.686947265625,9.763854026794434,0.06703764945268631,0.035913024097681046
1716736832908947500,2.696947509765625,9.840468406677246,0.06703764945268631,0.06703764945268631
1716736832918947300,2.706947265625,9.797372817993164,0.06703764945268631,0.05506663769483566
1716736832928947500,2.716947509765625,9.742305755615234,0.0454898327589035,0.0454898327589035
1716736832938947300,2.726947265625,9.783007621765137,0.0454898327589035,0.06703764945268631
1716736832948947500,2.736947509765625,9.83568000793457,0.038307227194309235,0.05746084079146385
1716736832958947300,2.746947265625,9.811738014221191,0.040701430290937424,0.07422025501728058
1716736832968947500,2.756947509765625,9.74470043182373,0.047884032130241394,0.05985504388809204
1716736832978947300,2.766947265625,9.76864242553711,0.038307227194309235,0.06464344263076782
1716736832988947500,2.776947509765625,9.830891609191895,0.0694318488240242,0.06224924325942993
1716736832998947300,2.786947265625,9.811738014221191,0.05985504388809204,0.06703764945268631
1716736833008947500,2.796947509765625,9.74470043182373,0.05985504388809204,0.047884032130241394
1716736833018947300,2.806947265625,9.775824546813965,0.05746084079146385,0.06464344263076782
1716736833028947500,2.816947509765625,9.821314811706543,0.05267243832349777,0.05027823522686958
1716736833038947300,2.826947265625,9.811738014221191,0.05506663769483566,0.047884032130241394
1716736833048947500,2.836947509765625,9.763854026794434,0.0454898327589035,0.038307227194309235
1716736833058947300,2.846947265625,9.773430824279785,0.047884032130241394,0.038307227194309235
1716736833068947500,2.856947509765625,9.794978141784668,0.07182604819536209,0.06703764945268631
1716736833078947300,2.866947265625,9.794978141784668,0.043095629662275314,0.05506663769483566
1716736833088947500,2.876947509765625,9.763854026794434,0.06703764945268631,0.06464344263076782
1716736833098947300,2.886947265625,9.775824546813965,0.023942016065120697,0.038307227194309235
1716736833108947500,2.896947509765625,9.799766540527344,0.06224924325942993,0.05746084079146385
1716736833118947300,2.906947265625,9.80455493927002,0.06224924325942993,0.06703764945268631
1716736833128947500,2.916947509765625,9.773430824279785,0.047884032130241394,0.0454898327589035
1716736833138947300,2.926947265625,9.783007621765137,0.05985504388809204,0.07422025501728058
1716736833148947500,2.936947509765625,9.797372817993164,0.05746084079146385,0.05985504388809204
1716736833158947300,2.946947265625,9.80216121673584,0.05027823522686958,0.05746084079146385
1716736833168947500,2.956947509765625,9.761459350585938,0.05027823522686958,0.05267243832349777
1716736833178947300,2.966947265625,9.773430824279785,0.043095629662275314,0.05267243832349777
1716736833188947500,2.976947509765625,9.80455493927002,0.05506663769483566,0.0454898327589035
1716736833198947300,2.986947265625,9.794978141784668,0.0454898327589035,0.05267243832349777
1716736833208947500,2.996947509765625,9.778219223022461,0.06224924325942993,0.05027823522686958
1716736833218947300,3.006947265625,9.771036148071289,0.038307227194309235,0.05267243832349777
1716736833228947500,3.016947509765625,9.799766540527344,0.040701430290937424,0.05267243832349777
1716736833238947300,3.026947265625,9.797372817993164,0.0454898327589035,0.043095629662275314
1716736833248947500,3.036947509765625,9.778219223022461,0.05746084079146385,0.047884032130241394
1716736833258947300,3.046947265625,9.783007621765137,0.05267243832349777,0.0454898327589035
1716736833268947500,3.056947509765625,9.790189743041992,0.0454898327589035,0.040701430290937424
1716736833278947300,3.066947265625,9.797372817993164,0.035913024097681046,0.05267243832349777
1716736833288947500,3.076947509765625,9.80216121673584,0.047884032130241394,0.047884032130241394
1716736833298947300,3.086947265625,9.785401344299316,0.043095629662275314,0.06703764945268631
1716736833308947500,3.096947509765625,9.794978141784668,0.038307227194309235,0.05027823522686958
1716736833318947300,3.106947265625,9.785401344299316,0.0454898327589035,0.0454898327589035
1716736833328947500,3.116947509765625,9.783007621765137,0.05027823522686958,0.05267243832349777
1716736833338947300,3.126947265625,9.78061294555664,0.028730420395731926,0.05985504388809204
1716736833348947500,3.136947509765625,9.799766540527344,0.038307227194309235,0.047884032130241394
1716736833358947300,3.146947265625,9.794978141784668,0.040701430290937424,0.05267243832349777
1716736833368947500,3.156947509765625,9.792584419250488,0.05027823522686958,0.0694318488240242
1716736833378947300,3.166947265625,9.783007621765137,0.0694318488240242,0.06464344263076782
1716736833388947500,3.176947509765625,9.797372817993164,0.040701430290937424,0.05027823522686958
1716736833398947300,3.186947265625,9.806949615478516,0.05506663769483566,0.06224924325942993
1716736833408947500,3.196947509765625,9.787796020507812,0.047884032130241394,0.05506663769483566
1716736833418947300,3.206947265625,9.78061294555664,0.043095629662275314,0.05267243832349777
1716736833428947500,3.216947509765625,9.787796020507812,0.0454898327589035,0.035913024097681046
1716736833438947300,3.226947265625,9.790189743041992,0.040701430290937424,0.0454898327589035
1716736833448947500,3.236947509765625,9.783007621765137,0.05506663769483566,0.05267243832349777
1716736833458947300,3.246947265625,9.792584419250488,0.0454898327589035,0.07182604819536209
1716736833468947200,3.256947265625,9.778219223022461,0.05267243832349777,0.047884032130241394
1716736833478947000,3.266947021484375,9.792584419250488,0.040701430290937424,0.05746084079146385
1716736833488947200,3.276947265625,9.787796020507812,0.047884032130241394,0.06224924325942993
1716736833498947000,3.286947021484375,9.790189743041992,0.05027823522686958,0.06703764945268631
1716736833508947200,3.296947265625,9.775824546813965,0.040701430290937424,0.047884032130241394
1716736833518947000,3.306947021484375,9.792584419250488,0.040701430290937424,0.06464344263076782
1716736833528947000,3.316947021484375,9.775824546813965,0.05027823522686958,0.047884032130241394
1716736833538947000,3.326947021484375,9.787796020507812,0.06224924325942993,0.05506663769483566
1716736833548947000,3.336947021484375,9.794978141784668,0.047884032130241394,0.05746084079146385
1716736833558947000,3.346947021484375,9.775824546813965,0.05027823522686958,0.05985504388809204
1716736833568947000,3.356947021484375,9.787796020507812,0.05027823522686958,0.031124621629714966
1716736833578947000,3.366947021484375,9.794978141784668,0.043095629662275314,0.05267243832349777
1716736833588947200,3.376947265625,9.78061294555664,0.0454898327589035,0.05267243832349777
1716736833598947000,3.386947021484375,9.78061294555664,0.038307227194309235,0.05746084079146385
1716736833608947000,3.396947021484375,9.790189743041992,0.035913024097681046,0.06703764945268631
1716736833618947000,3.406947021484375,9.790189743041992,0.043095629662275314,0.05506663769483566
1716736833628947000,3.416947021484375,9.778219223022461,0.05027823522686958,0.040701430290937424
1716736833638947000,3.426947021484375,9.790189743041992,0.047884032130241394,0.05027823522686958
1716736833648947000,3.436947021484375,9.545981407165527,0.05027823522686958,0.0454898327589035
1716736833658947000,3.446947021484375,9.957783699035645,0.07661445438861847,0.043095629662275314
1716736833668947000,3.456947021484375,9.979331970214844,0.033518824726343155,0.05506663769483566
1716736833678947000,3.466947021484375,9.756670951843262,0.016759412363171577,0.07182604819536209
1716736833688947000,3.476947021484375,9.52922248840332,0.0454898327589035,0.0694318488240242
1716736833698947000,3.486947021484375,9.771036148071289,0.07422025501728058,0.05267243832349777
1716736833708947200,3.496947265625,10.01524543762207,0.05027823522686958,0.06464344263076782
1716736833718947000,3.506947021484375,9.83807373046875,0.0454898327589035,0.06224924325942993
1716736833728947200,3.516947265625,9.557952880859375,0.040701430290937424,0.07182604819536209
1716736833738947000,3.526947021484375,9.759065628051758,0.05985504388809204,0.06464344263076782
1716736833748947200,3.536947265625,9.988908767700195,0.05506663769483566,0.05267243832349777
1716736833758947000,3.546947021484375,9.826103210449219,0.040701430290937424,0.05027823522686958
1716736833768947500,3.556947509765625,9.627384185791016,0.06703764945268631,0.06224924325942993
1716736833778947300,3.566947265625,9.723152160644531,0.043095629662275314,0.0454898327589035
1716736833788947500,3.576947509765625,9.931447982788086,0.043095629662275314,0.040701430290937424
1716736833798947300,3.586947265625,9.840468406677246,0.06224924325942993,0.040701430290937424
1716736833808947500,3.596947509765625,9.65372085571289,0.05267243832349777,0.047884032130241394
1716736833818947300,3.606947265625,9.732728958129883,0.0694318488240242,0.05027823522686958
1716736833828947500,3.616947509765625,9.900322914123535,0.05027823522686958,0.047884032130241394
1716736833838947300,3.626947265625,9.840468406677246,0.028730420395731926,0.0454898327589035
1716736833848947500,3.636947509765625,9.682451248168945,0.033518824726343155,0.05267243832349777
1716736833858947300,3.646947265625,9.715970039367676,0.033518824726343155,0.05746084079146385
1716736833868947500,3.656947509765625,9.888352394104004,0.05506663769483566,0.07422025501728058
1716736833878947300,3.666947265625,9.850045204162598,0.043095629662275314,0.06464344263076782
1716736833888947500,3.676947509765625,9.687239646911621,0.040701430290937424,0.07661445438861847
1716736833898947300,3.686947265625,9.737517356872559,0.047884032130241394,0.08619125932455063
1716736833908947500,3.696947509765625,9.87159252166748,0.043095629662275314,0.06703764945268631
1716736833918947300,3.706947265625,9.845256805419922,0.05506663769483566,0.06703764945268631
1716736833928947500,3.716947509765625,9.730335235595703,0.035913024097681046,0.05506663769483566
1716736833938947300,3.726947265625,9.74709415435791,0.035913024097681046,0.05746084079146385
1716736833948947500,3.736947509765625,9.854833602905273,0.047884032130241394,0.06464344263076782
1716736833958947300,3.746947265625,9.828496932983398,0.06224924325942993,0.0454898327589035
1716736833968947500,3.756947509765625,9.723152160644531,0.06224924325942993,0.047884032130241394
1716736833978947300,3.766947265625,9.759065628051758,0.06224924325942993,0.026336219161748886
1716736833988947500,3.776947509765625,9.845256805419922,0.05746084079146385,0.035913024097681046
1716736833998947300,3.786947265625,9.826103210449219,0.038307227194309235,0.040701430290937424
1716736834008947500,3.796947509765625,9.742305755615234,0.035913024097681046,0.028730420395731926
1716736834018947300,3.806947265625,9.749488830566406,0.07182604819536209,0.028730420395731926
1716736834028947500,3.816947509765625,9.816526412963867,0.05267243832349777,0.06224924325942993
1716736834038947300,3.826947265625,9.818920135498047,0.05027823522686958,0.05746084079146385
1716736834048947500,3.836947509765625,9.742305755615234,0.040701430290937424,0.07422025501728058
1716736834058947300,3.846947265625,9.74709415435791,0.035913024097681046,0.08379705995321274
1716736834068947500,3.856947509765625,9.823708534240723,0.06224924325942993,0.05746084079146385
1716736834078947600,3.866947509765625,9.823708534240723,0.038307227194309235,0.07900865375995636
1716736834088947500,3.876947509765625,9.74470043182373,0.021547814831137657,0.06703764945268631
1716736834098947300,3.886947265625,9.759065628051758,0.026336219161748886,0.06224924325942993
1716736834108947500,3.896947509765625,9.826103210449219,0.043095629662275314,0.05506663769483566
1716736834118947300,3.906947265625,9.811738014221191,0.0454898327589035,0.05985504388809204
1716736834128947500,3.916947509765625,9.754277229309082,0.05985504388809204,0.06703764945268631
1716736834138947300,3.926947265625,9.759065628051758,0.05746084079146385,0.06703764945268631
1716736834148947500,3.936947509765625,9.809343338012695,0.0694318488240242,0.05267243832349777
1716736834158947300,3.946947265625,9.80216121673584,0.05746084079146385,0.05746084079146385
1716736834168947500,3.956947509765625,9.76864242553711,0.05985504388809204,0.0454898327589035
1716736834178947300,3.966947265625,9.759065628051758,0.06464344263076782,0.047884032130241394
1716736834188947500,3.976947509765625,9.794978141784668,0.0694318488240242,0.038307227194309235
1716736834198947300,3.986947265625,9.806949615478516,0.047884032130241394,0.031124621629714966
1716736834208947500,3.996947509765625,9.766247749328613,0.05506663769483566,0.05267243832349777
1716736834218947300,4.006947265625,9.775824546813965,0.05027823522686958,0.05267243832349777
1716736834228947500,4.016947509765625,9.806949615478516,0.035913024097681046,0.05267243832349777
1716736834238947300,4.026947265625,9.787796020507812,0.043095629662275314,0.05267243832349777
1716736834248947500,4.036947509765625,9.773430824279785,0.0454898327589035,0.07422025501728058
1716736834258947300,4.046947265625,9.771036148071289,0.047884032130241394,0.0454898327589035
1716736834268947500,4.056947509765625,9.799766540527344,0.0454898327589035,0.06224924325942993
1716736834278947300,4.066947265625,9.80216121673584,0.05027823522686958,0.07661445438861847
1716736834288947500,4.076947509765625,9.766247749328613,0.038307227194309235,0.06464344263076782
1716736834298947300,4.086947265625,9.773430824279785,0.05267243832349777,0.08379705995321274
1716736834308947500,4.096947509765625,9.799766540527344,0.023942016065120697,0.028730420395731926
1716736834318947300,4.106947265625,9.799766540527344,0.047884032130241394,0.040701430290937424
1716736834328947500,4.116947509765625,9.771036148071289,0.05027823522686958,0.05267243832349777
1716736834338947300,4.126947265625,9.78061294555664,0.043095629662275314,0.05267243832349777
1716736834348947500,4.136947509765625,9.797372817993164,0.05506663769483566,0.038307227194309235
1716736834358947300,4.146947265625,9.809343338012695,0.05985504388809204,0.043095629662275314
1716736834368947500,4.156947509765625,9.778219223022461,0.07182604819536209,0.040701430290937424
1716736834378947300,4.166947265625,9.773430824279785,0.0454898327589035,0.035913024097681046
1716736834388947500,4.176947509765625,9.797372817993164,0.05985504388809204,0.05746084079146385
1716736834398947300,4.186947265625,9.792584419250488,0.040701430290937424,0.038307227194309235
1716736834408947500,4.196947509765625,9.775824546813965,0.0454898327589035,0.07182604819536209
1716736834418947300,4.206947265625,9.775824546813965,0.026336219161748886,0.05506663769483566
1716736834428947500,4.216947509765625,9.787796020507812,0.05985504388809204,0.05027823522686958
1716736834438947300,4.226947265625,9.790189743041992,0.0694318488240242,0.07182604819536209
1716736834448947500,4.236947509765625,9.775824546813965,0.043095629662275314,0.05746084079146385
1716736834458947300,4.246947265625,9.787796020507812,0.05506663769483566,0.0694318488240242
1716736834468947500,4.256947509765625,9.78061294555664,0.038307227194309235,0.06703764945268631
1716736834478947300,4.266947265625,9.797372817993164,0.028730420395731926,0.047884032130241394
1716736834488947500,4.276947509765625,9.797372817993164,0.05267243832349777,0.07182604819536209
1716736834498947300,4.286947265625,9.792584419250488,0.05746084079146385,0.047884032130241394
1716736834508947500,4.296947509765625,9.792584419250488,0.05506663769483566,0.05985504388809204
1716736834518947300,4.306947265625,9.787796020507812,0.0454898327589035,0.06224924325942993
1716736834528947500,4.316947509765625,9.773430824279785,0.05027823522686958,0.038307227194309235
1716736834538947300,4.326947265625,9.78061294555664,0.06464344263076782,0.043095629662275314
1716736834548947000,4.336947021484375,9.785401344299316,0.05267243832349777,0.05267243832349777
1716736834558947000,4.346947021484375,9.792584419250488,0.035913024097681046,0.05027823522686958
1716736834568947000,4.356947021484375,9.78061294555664,0.06224924325942993,0.05267243832349777
1716736834578947000,4.366947021484375,9.775824546813965,0.05267243832349777,0.05027823522686958
1716736834588947000,4.376947021484375,9.797372817993164,0.047884032130241394,0.06464344263076782
1716736834598947000,4.386947021484375,9.809343338012695,0.06224924325942993,0.05985504388809204
1716736834608947000,4.396947021484375,9.773430824279785,0.07182604819536209,0.06703764945268631
1716736834618947000,4.406947021484375,9.785401344299316,0.033518824726343155,0.08140286058187485
1716736834628947000,4.416947021484375,9.790189743041992,0.040701430290937424,0.05746084079146385
1716736834638947000,4.426947021484375,9.797372817993164,0.05506663769483566,0.06224924325942993
1716736834648947000,4.436947021484375,9.778219223022461,0.035913024097681046,0.06464344263076782
1716736834658947000,4.446947021484375,9.775824546813965,0.040701430290937424,0.05267243832349777
1716736834668947000,4.456947021484375,9.785401344299316,0.05267243832349777,0.06703764945268631
1716736834678947000,4.466947021484375,9.775824546813965,0.043095629662275314,0.05267243832349777
1716736834688947000,4.476947021484375,9.778219223022461,0.05985504388809204,0.040701430290937424
1716736834698947000,4.486947021484375,9.792584419250488,0.05985504388809204,0.035913024097681046
1716736834708947000,4.496947021484375,9.809343338012695,0.08858546614646912,-0.002394201699644327
1716736834718947000,4.506947021484375,10.13974380493164,0.06464344263076782,0.011971008032560349
1716736834728947000,4.516947021484375,10.096648216247559,0.009576806798577309,0.05506663769483566
1716736834738947000,4.526947021484375,9.5531644821167,0.011971008032560349,0.05746084079146385
1716736834748947000,4.536947021484375,9.419088363647461,0.05746084079146385,0.05267243832349777
1716736834758947000,4.546947021484375,10.036792755126953,0.0694318488240242,0.05027823522686958
1716736834768947000,4.556947021484375,10.190021514892578,0.05267243832349777,0.0694318488240242
1716736834778947000,4.566947021484375,9.699210166931152,0.038307227194309235,0.05746084079146385
1716736834788947000,4.576947021484375,9.416694641113281,0.0454898327589035,0.06224924325942993
1716736834798947000,4.586947021484375,9.862015724182129,0.05746084079146385,0.05027823522686958
1716736834808947000,4.596947021484375,10.122983932495117,0.07182604819536209,0.05746084079146385
1716736834818947000,4.606947021484375,9.739912033081055,0.047884032130241394,0.06464344263076782
1716736834828947000,4.616947021484375,9.500492095947266,0.023942016065120697,0.0454898327589035
1716736834838947000,4.626947021484375,9.806949615478516,0.05027823522686958,0.06464344263076782
1716736834848947500,4.636947509765625,10.05115795135498,0.05746084079146385,0.05027823522686958
1716736834858947300,4.646947265625,9.730335235595703,0.05027823522686958,0.047884032130241394
1716736834868947500,4.656947509765625,9.538799285888672,0.06224924325942993,0.047884032130241394
1716736834878947300,4.666947265625,9.83568000793457,0.0694318488240242,0.05985504388809204
1716736834888947500,4.676947509765625,10.022427558898926,0.05506663769483566,0.047884032130241394
1716736834898947300,4.686947265625,9.76864242553711,0.0454898327589035,0.031124621629714966
1716736834908947500,4.696947509765625,9.560346603393555,0.047884032130241394,0.05027823522686958
1716736834918947300,4.706947265625,9.80455493927002,0.05746084079146385,0.043095629662275314
1716736834928947500,4.716947509765625,9.988908767700195,0.0694318488240242,0.07182604819536209
1716736834938947300,4.726947265625,9.792584419250488,0.043095629662275314,0.07182604819536209
1716736834948947500,4.736947509765625,9.596260070800781,0.035913024097681046,0.05985504388809204
1716736834958947300,4.746947265625,9.756670951843262,0.05506663769483566,0.05506663769483566
1716736834968947500,4.756947509765625,9.950601577758789,0.0454898327589035,0.05267243832349777
1716736834978947300,4.766947265625,9.818920135498047,0.033518824726343155,0.0694318488240242
1716736834988947500,4.776947509765625,9.644144058227539,0.023942016065120697,0.06703764945268631
1716736834998947300,4.786947265625,9.766247749328613,0.035913024097681046,0.07661445438861847
1716736835008947500,4.796947509765625,9.914688110351562,0.05267243832349777,0.047884032130241394
1716736835018947300,4.806947265625,9.797372817993164,0.040701430290937424,0.05506663769483566
1716736835028947500,4.816947509765625,9.6896333694458,0.0454898327589035,0.0454898327589035
1716736835038947300,4.826947265625,9.773430824279785,0.05027823522686958,0.028730420395731926
1716736835048947500,4.836947509765625,9.888352394104004,0.040701430290937424,0.05506663769483566
1716736835058947300,4.846947265625,9.799766540527344,0.05027823522686958,0.043095629662275314
1716736835068947500,4.856947509765625,9.696816444396973,0.040701430290937424,0.040701430290937424
1716736835078947300,4.866947265625,9.759065628051758,0.05985504388809204,0.0454898327589035
1716736835088947500,4.876947509765625,9.866804122924805,0.05506663769483566,0.05506663769483566
1716736835098947300,4.886947265625,9.811738014221191,0.06224924325942993,0.0454898327589035
1716736835108947500,4.896947509765625,9.727940559387207,0.05027823522686958,0.040701430290937424
1716736835118947300,4.906947265625,9.759065628051758,0.05027823522686958,0.05746084079146385
1716736835128947500,4.916947509765625,9.85962200164795,0.05506663769483566,0.043095629662275314
1716736835138947300,4.926947265625,9.811738014221191,0.043095629662275314,0.05506663769483566
1716736835148947500,4.936947509765625,9.737517356872559,0.035913024097681046,0.0454898327589035
1716736835158947300,4.946947265625,9.76864242553711,0.043095629662275314,0.06464344263076782
1716736835168947500,4.956947509765625,9.828496932983398,0.05267243832349777,0.05746084079146385
1716736835178947300,4.966947265625,9.80455493927002,0.040701430290937424,0.06224924325942993
1716736835188947500,4.976947509765625,9.751882553100586,0.05027823522686958,0.05985504388809204
1716736835198947300,4.986947265625,9.761459350585938,0.043095629662275314,0.05746084079146385
1716736835208947500,4.996947509765625,9.828496932983398,0.05746084079146385,0.07900865375995636
1716736835218947300,5.006947265625,9.809343338012695,0.05027823522686958,0.06224924325942993
1716736835228947500,5.016947509765625,9.74470043182373,0.043095629662275314,0.05746084079146385
1716736835238947300,5.026947265625,9.761459350585938,0.047884032130241394,0.06703764945268631
1716736835248947500,5.036947509765625,9.809343338012695,0.07182604819536209,0.06224924325942993
1716736835258947300,5.046947265625,9.811738014221191,0.07182604819536209,0.038307227194309235
1716736835268947500,5.056947509765625,9.761459350585938,0.047884032130241394,0.05506663769483566
1716736835278947600,5.066947509765625,9.756670951843262,0.05267243832349777,0.0454898327589035
1716736835288947500,5.076947509765625,9.799766540527344,0.047884032130241394,0.038307227194309235
1716736835298947600,5.086947509765625,9.799766540527344,0.040701430290937424,0.038307227194309235
1716736835308947500,5.096947509765625,9.766247749328613,0.05985504388809204,0.043095629662275314
1716736835318947600,5.106947509765625,9.778219223022461,0.05746084079146385,0.047884032130241394
1716736835328947500,5.116947509765625,9.806949615478516,0.05506663769483566,0.05267243832349777
1716736835338947600,5.126947509765625,9.792584419250488,0.0454898327589035,0.06224924325942993
1716736835348947500,5.136947509765625,9.76864242553711,0.05506663769483566,0.06464344263076782
1716736835358947600,5.146947509765625,9.76864242553711,0.0454898327589035,0.05267243832349777
1716736835368947500,5.156947509765625,9.799766540527344,0.05027823522686958,0.06703764945268631
1716736835378947600,5.166947509765625,9.811738014221191,0.05506663769483566,0.05267243832349777
1716736835388947500,5.176947509765625,9.773430824279785,0.05027823522686958,0.05506663769483566
1716736835398947600,5.186947509765625,9.766247749328613,0.038307227194309235,0.07661445438861847
1716736835408947500,5.196947509765625,9.794978141784668,0.05506663769483566,0.05506663769483566
1716736835418947600,5.206947509765625,9.794978141784668,0.06224924325942993,0.06464344263076782
1716736835428947500,5.216947509765625,9.778219223022461,0.05027823522686958,0.05746084079146385
1716736835438947600,5.226947509765625,9.783007621765137,0.040701430290937424,0.06224924325942993
1716736835448947500,5.236947509765625,9.785401344299316,0.038307227194309235,0.05267243832349777
1716736835458947300,5.246947265625,9.792584419250488,0.06224924325942993,0.0454898327589035
1716736835468947500,5.256947509765625,9.787796020507812,0.05267243832349777,0.05027823522686958
1716736835478947300,5.266947265625,9.783007621765137,0.0454898327589035,0.035913024097681046
1716736835488947500,5.276947509765625,9.78061294555664,0.05027823522686958,0.0454898327589035
1716736835498947300,5.286947265625,9.794978141784668,0.06224924325942993,0.047884032130241394
1716736835508947500,5.296947509765625,9.775824546813965,0.038307227194309235,0.05506663769483566
1716736835518947300,5.306947265625,9.778219223022461,0.05746084079146385,0.06224924325942993
1716736835528947500,5.316947509765625,9.80455493927002,0.047884032130241394,0.05506663769483566
1716736835538947300,5.326947265625,9.790189743041992,0.040701430290937424,0.05746084079146385
1716736835548947500,5.336947509765625,9.775824546813965,0.040701430290937424,0.05746084079146385
1716736835558947300,5.346947265625,9.778219223022461,0.05506663769483566,0.06224924325942993
1716736835568947500,5.356947509765625,9.794978141784668,0.05985504388809204,0.06703764945268631
1716736835578947300,5.366947265625,9.792584419250488,0.035913024097681046,0.05027823522686958
1716736835588947500,5.376947509765625,9.783007621765137,0.0454898327589035,0.05746084079146385
1716736835598947300,5.386947265625,9.773430824279785,0.05027823522686958,0.05985504388809204
1716736835608947500,5.396947509765625,9.794978141784668,0.026336219161748886,0.038307227194309235
1716736835618947300,5.406947265625,9.787796020507812,0.0454898327589035,0.05746084079146385
1716736835628947500,5.416947509765625,9.778219223022461,0.05746084079146385,0.06464344263076782
1716736835638947300,5.426947265625,9.785401344299316,0.047884032130241394,0.05267243832349777
1716736835648947500,5.436947509765625,9.790189743041992,0.05267243832349777,0.05027823522686958
1716736835658947300,5.446947265625,9.790189743041992,0.06464344263076782,0.0454898327589035
1716736835668947500,5.456947509765625,9.783007621765137,0.06464344263076782,0.0454898327589035
1716736835678947300,5.466947265625,9.787796020507812,0.06224924325942993,0.05027823522686958
1716736835688947500,5.476947509765625,9.783007621765137,0.047884032130241394,0.05746084079146385
1716736835698947300,5.486947265625,9.787796020507812,0.038307227194309235,0.0454898327589035
1716736835708947500,5.496947509765625,9.783007621765137,0.043095629662275314,0.05985504388809204
1716736835718947300,5.506947265625,9.771036148071289,0.06464344263076782,0.05027823522686958
1716736835728947500,5.516947509765625,9.694421768188477,0.043095629662275314,0.05506663769483566
1716736835738947300,5.526947265625,9.783007621765137,0.07182604819536209,0.040701430290937424
1716736835748947500,5.536947509765625,10.003273963928223,0.06703764945268631,0.07182604819536209
1716736835758947300,5.546947265625,9.873987197875977,0.016759412363171577,0.0454898327589035
1716736835768947500,5.556947509765625,9.510068893432617,0.035913024097681046,0.05506663769483566
1716736835778947300,5.566947265625,9.608230590820312,0.05267243832349777,0.06464344263076782
1716736835788947500,5.576947509765625,10.01524543762207,0.07182604819536209,0.05506663769483566
1716736835798947600,5.586947509765625,9.933841705322266,0.05267243832349777,0.06224924325942993
1716736835808947500,5.596947509765625,9.596260070800781,0.047884032130241394,0.06224924325942993
1716736835818947600,5.606947509765625,9.613018989562988,0.0454898327589035,0.047884032130241394
1716736835828947500,5.616947509765625,9.943418502807617,0.05506663769483566,0.05267243832349777
1716736835838947600,5.626947509765625,9.941024780273438,0.05506663769483566,0.047884032130241394
1716736835848947500,5.636947509765625,9.663297653198242,0.0454898327589035,0.043095629662275314
1716736835858947300,5.646947265625,9.624990463256836,0.043095629662275314,0.043095629662275314
1716736835868947500,5.656947509765625,9.89314079284668,0.05267243832349777,0.040701430290937424
1716736835878947300,5.666947265625,9.948206901550293,0.05746084079146385,0.043095629662275314
1716736835888947500,5.676947509765625,9.696816444396973,0.043095629662275314,0.038307227194309235
1716736835898947300,5.686947265625,9.65372085571289,0.05027823522686958,0.05267243832349777
1716736835908947500,5.696947509765625,9.847650527954102,0.0694318488240242,0.06224924325942993
1716736835918947300,5.706947265625,9.912294387817383,0.047884032130241394,0.05746084079146385
1716736835928947500,5.716947509765625,9.730335235595703,0.05267243832349777,0.05746084079146385
1716736835938947300,5.726947265625,9.658509254455566,0.033518824726343155,0.06224924325942993
1716736835948947500,5.736947509765625,9.845256805419922,0.05027823522686958,0.038307227194309235
1716736835958947300,5.746947265625,9.888352394104004,0.05027823522686958,0.0694318488240242
1716736835968947500,5.756947509765625,9.74470043182373,0.047884032130241394,0.07182604819536209
1716736835978947300,5.766947265625,9.694421768188477,0.05267243832349777,0.07900865375995636
1716736835988947500,5.776947509765625,9.830891609191895,0.040701430290937424,0.08140286058187485
1716736835998947300,5.786947265625,9.881169319152832,0.047884032130241394,0.0454898327589035
1716736836008947500,5.796947509765625,9.766247749328613,0.033518824726343155,0.05506663769483566
1716736836018947300,5.806947265625,9.696816444396973,0.038307227194309235,0.038307227194309235
1716736836028947500,5.816947509765625,9.814131736755371,0.06464344263076782,0.0454898327589035
1716736836038947300,5.826947265625,9.866804122924805,0.05985504388809204,0.05027823522686958
1716736836048947500,5.836947509765625,9.773430824279785,0.047884032130241394,0.05027823522686958
1716736836058947300,5.846947265625,9.715970039367676,0.05746084079146385,0.05027823522686958
1716736836068947500,5.856947509765625,9.799766540527344,0.047884032130241394,0.021547814831137657
1716736836078947300,5.866947265625,9.847650527954102,0.05267243832349777,0.05746084079146385
1716736836088947500,5.876947509765625,9.787796020507812,0.0454898327589035,0.06224924325942993
1716736836098947300,5.886947265625,9.730335235595703,0.05267243832349777,0.043095629662275314
1716736836108947500,5.896947509765625,9.792584419250488,0.05506663769483566,0.0454898327589035
1716736836118947300,5.906947265625,9.83568000793457,0.05746084079146385,0.05506663769483566
1716736836128947500,5.916947509765625,9.78061294555664,0.031124621629714966,0.05746084079146385
1716736836138947300,5.926947265625,9.727940559387207,0.040701430290937424,0.06224924325942993
1716736836148947500,5.936947509765625,9.787796020507812,0.05746084079146385,0.07422025501728058
1716736836158947300,5.946947265625,9.842862129211426,0.05027823522686958,0.07900865375995636
1716736836168947500,5.956947509765625,9.790189743041992,0.043095629662275314,0.05746084079146385
1716736836178947300,5.966947265625,9.735123634338379,0.05027823522686958,0.0694318488240242
1716736836188947500,5.976947509765625,9.78061294555664,0.05027823522686958,0.07661445438861847
1716736836198947300,5.986947265625,9.833285331726074,0.035913024097681046,0.047884032130241394
1716736836208947500,5.996947509765625,9.787796020507812,0.040701430290937424,0.047884032130241394
1716736836218947300,6.006947265625,9.737517356872559,0.0454898327589035,0.040701430290937424
1716736836228947500,6.016947509765625,9.771036148071289,0.05746084079146385,0.06224924325942993
1716736836238947300,6.026947265625,9.826103210449219,0.040701430290937424,0.05267243832349777
1716736836248947500,6.036947509765625,9.797372817993164,0.040701430290937424,0.047884032130241394
1716736836258947300,6.046947265625,9.759065628051758,0.047884032130241394,0.05267243832349777
1716736836268947500,6.056947509765625,9.763854026794434,0.06224924325942993,0.05506663769483566
1716736836278947300,6.066947265625,9.818920135498047,0.06224924325942993,0.05506663769483566
1716736836288947500,6.076947509765625,9.794978141784668,0.06224924325942993,0.05027823522686958
1716736836298947300,6.086947265625,9.771036148071289,0.043095629662275314,0.038307227194309235
1716736836308947500,6.096947509765625,9.775824546813965,0.043095629662275314,0.05027823522686958
1716736836318947300,6.106947265625,9.809343338012695,0.043095629662275314,0.0454898327589035
1716736836328947500,6.116947509765625,9.787796020507812,0.05985504388809204,0.05267243832349777
1716736836338947300,6.126947265625,9.773430824279785,0.05267243832349777,0.05746084079146385
1716736836348947500,6.136947509765625,9.790189743041992,0.05985504388809204,0.07661445438861847
1716736836358947300,6.146947265625,9.816526412963867,0.033518824726343155,0.05267243832349777
1716736836368947500,6.156947509765625,9.792584419250488,0.05027823522686958,0.0694318488240242
1716736836378947300,6.166947265625,9.766247749328613,0.05027823522686958,0.05027823522686958
1716736836388947500,6.176947509765625,9.76864242553711,0.05027823522686958,0.05746084079146385
1716736836398947300,6.186947265625,9.809343338012695,0.038307227194309235,0.05506663769483566
1716736836408947500,6.196947509765625,9.794978141784668,0.05506663769483566,0.07661445438861847
1716736836418947300,6.206947265625,9.763854026794434,0.047884032130241394,0.06224924325942993
1716736836428947500,6.216947509765625,9.775824546813965,0.05506663769483566,0.06703764945268631
1716736836438947300,6.226947265625,9.816526412963867,0.05985504388809204,0.047884032130241394
1716736836448947500,6.236947509765625,9.794978141784668,0.047884032130241394,0.05506663769483566
1716736836458947300,6.246947265625,9.773430824279785,0.043095629662275314,0.047884032130241394
1716736836468947500,6.256947509765625,9.783007621765137,0.0454898327589035,0.06224924325942993
1716736836478947300,6.266947265625,9.80455493927002,0.05027823522686958,0.05746084079146385
1716736836488947500,6.276947509765625,9.799766540527344,0.047884032130241394,0.05027823522686958
1716736836498947300,6.286947265625,9.773430824279785,0.047884032130241394,0.06464344263076782
1716736836508947500,6.296947509765625,9.790189743041992,0.0454898327589035,0.05267243832349777
1716736836518947300,6.306947265625,9.790189743041992,0.06224924325942993,0.06464344263076782
1716736836528947500,6.316947509765625,9.792584419250488,0.047884032130241394,0.06703764945268631
1716736836538947300,6.326947265625,9.773430824279785,0.047884032130241394,0.05027823522686958
1716736836548947500,6.336947509765625,9.790189743041992,0.05985504388809204,0.07182604819536209
1716736836558947300,6.346947265625,9.785401344299316,0.035913024097681046,0.05506663769483566
1716736836568947500,6.356947509765625,9.794978141784668,0.043095629662275314,0.06464344263076782
1716736836578947300,6.366947265625,9.78061294555664,0.038307227194309235,0.05506663769483566
1716736836588947500,6.376947509765625,9.778219223022461,0.0454898327589035,0.047884032130241394
1716736836598947300,6.386947265625,9.794978141784668,0.06224924325942993,0.040701430290937424
1716736836608947500,6.396947509765625,9.790189743041992,0.047884032130241394,0.043095629662275314
1716736836618947300,6.406947265625,9.78061294555664,0.033518824726343155,0.06224924325942993
1716736836628947500,6.416947509765625,9.783007621765137,0.05506663769483566,0.0454898327589035
1716736836638947300,6.426947265625,9.787796020507812,0.047884032130241394,0.038307227194309235
1716736836648947500,6.436947509765625,9.785401344299316,0.05985504388809204,0.05267243832349777
1716736836658947300,6.446947265625,9.78061294555664,0.035913024097681046,0.05506663769483566
1716736836668947500,6.456947509765625,9.785401344299316,0.035913024097681046,0.05267243832349777
1716736836678947300,6.466947265625,9.80216121673584,0.05985504388809204,0.047884032130241394
1716736836688947500,6.476947509765625,9.457395553588867,0.06464344263076782,0.040701430290937424
1716736836698947300,6.486947265625,9.823708534240723,0.05746084079146385,0.05746084079146385
1716736836708947500,6.496947509765625,10.041581153869629,0.05027823522686958,0.05027823522686958
1716736836718947300,6.506947265625,9.790189743041992,0.0071826050989329815,0.05506663769483566
1716736836728947500,6.516947509765625,9.541193008422852,0.038307227194309235,0.07182604819536209
1716736836738947300,6.526947265625,9.62259578704834,0.06464344263076782,0.05746084079146385
1716736836748947500,6.536947509765625,9.976937294006348,0.05985504388809204,0.05985504388809204
1716736836758947300,6.546947265625,9.890746116638184,0.05746084079146385,0.07661445438861847
1716736836768947500,6.556947509765625,9.591471672058105,0.040701430290937424,0.05985504388809204
1716736836778947300,6.566947265625,9.68005657196045,0.05746084079146385,0.05746084079146385
1716736836788947500,6.576947509765625,9.941024780273438,0.0694318488240242,0.05027823522686958
1716736836798947300,6.586947265625,9.878775596618652,0.035913024097681046,0.047884032130241394
1716736836808947500,6.596947509765625,9.65372085571289,0.043095629662275314,0.06464344263076782
1716736836818947300,6.606947265625,9.684844970703125,0.040701430290937424,0.040701430290937424
1716736836828947500,6.616947509765625,9.921871185302734,0.05985504388809204,0.031124621629714966
1716736836838947300,6.626947265625,9.89314079284668,0.05267243832349777,0.040701430290937424
1716736836848947500,6.636947509765625,9.672874450683594,0.05267243832349777,0.0454898327589035
1716736836858947300,6.646947265625,9.706393241882324,0.05506663769483566,0.0454898327589035
1716736836868947500,6.656947509765625,9.89553451538086,0.06464344263076782,0.07182604819536209
1716736836878947300,6.666947265625,9.876380920410156,0.047884032130241394,0.0454898327589035
1716736836888947500,6.676947509765625,9.708786964416504,0.028730420395731926,0.05746084079146385
1716736836898947300,6.686947265625,9.701604843139648,0.023942016065120697,0.038307227194309235
1716736836908947500,6.696947509765625,9.885957717895508,0.040701430290937424,0.05267243832349777
1716736836918947300,6.706947265625,9.87159252166748,0.06703764945268631,0.07182604819536209
1716736836928947500,6.716947509765625,9.715970039367676,0.06464344263076782,0.05746084079146385
1716736836938947300,6.726947265625,9.718363761901855,0.043095629662275314,0.0694318488240242
1716736836948947500,6.736947509765625,9.862015724182129,0.047884032130241394,0.05746084079146385
1716736836958947300,6.746947265625,9.857227325439453,0.021547814831137657,0.05746084079146385
1716736836968947500,6.756947509765625,9.742305755615234,0.026336219161748886,0.05027823522686958
1716736836978947300,6.766947265625,9.715970039367676,0.05267243832349777,0.047884032130241394
1716736836988947500,6.776947509765625,9.83807373046875,0.05985504388809204,0.040701430290937424
1716736836998947300,6.786947265625,9.862015724182129,0.06464344263076782,0.035913024097681046
1716736837008947500,6.796947509765625,9.766247749328613,0.05746084079146385,0.0454898327589035
1716736837018947300,6.806947265625,9.737517356872559,0.05985504388809204,0.047884032130241394
1716736837028947500,6.816947509765625,9.818920135498047,0.06703764945268631,0.031124621629714966
1716736837038947300,6.826947265625,9.821314811706543,0.047884032130241394,0.040701430290937424
1716736837048947500,6.836947509765625,9.761459350585938,0.05746084079146385,0.043095629662275314
1716736837058947300,6.846947265625,9.737517356872559,0.043095629662275314,0.05746084079146385
1716736837068947500,6.856947509765625,9.806949615478516,0.038307227194309235,0.05746084079146385
1716736837078947300,6.866947265625,9.826103210449219,0.043095629662275314,0.047884032130241394
1716736837088947500,6.876947509765625,9.754277229309082,0.043095629662275314,0.05746084079146385
1716736837098947300,6.886947265625,9.749488830566406,0.047884032130241394,0.07422025501728058
1716736837108947500,6.896947509765625,9.811738014221191,0.040701430290937424,0.06464344263076782
1716736837118947300,6.906947265625,9.821314811706543,0.028730420395731926,0.07422025501728058
1716736837128947500,6.916947509765625,9.771036148071289,0.05506663769483566,0.05985504388809204
1716736837138947300,6.926947265625,9.763854026794434,0.028730420395731926,0.05267243832349777
1716736837148947500,6.936947509765625,9.797372817993164,0.043095629662275314,0.05267243832349777
1716736837158947300,6.946947265625,9.842862129211426,0.05027823522686958,0.05506663769483566
1716736837168947500,6.956947509765625,9.771036148071289,0.06464344263076782,0.05267243832349777
1716736837178947300,6.966947265625,9.763854026794434,0.06703764945268631,0.047884032130241394
1716736837188947500,6.976947509765625,9.794978141784668,0.038307227194309235,0.05985504388809204
1716736837198947300,6.986947265625,9.811738014221191,0.043095629662275314,0.0454898327589035
1716736837208947500,6.996947509765625,9.771036148071289,0.0454898327589035,0.05506663769483566
1716736837218947300,7.006947265625,9.766247749328613,0.06464344263076782,0.05746084079146385
1716736837228947500,7.016947509765625,9.811738014221191,0.05267243832349777,0.05506663769483566
1716736837238947300,7.026947265625,9.806949615478516,0.05506663769483566,0.047884032130241394
1716736837248947500,7.036947509765625,9.773430824279785,0.05027823522686958,0.047884032130241394
1716736837258947300,7.046947265625,9.761459350585938,0.05267243832349777,0.06224924325942993
1716736837268947500,7.056947509765625,9.80216121673584,0.033518824726343155,0.06703764945268631
1716736837278947300,7.066947265625,9.794978141784668,0.05506663769483566,0.05267243832349777
1716736837288947500,7.076947509765625,9.792584419250488,0.023942016065120697,0.05027823522686958
1716736837298947300,7.086947265625,9.773430824279785,0.05027823522686958,0.07422025501728058
1716736837308947500,7.096947509765625,9.792584419250488,0.05506663769483566,0.0694318488240242
1716736837318947300,7.106947265625,9.821314811706543,0.040701430290937424,0.07422025501728058
1716736837328947500,7.116947509765625,9.775824546813965,0.040701430290937424,0.0694318488240242
1716736837338947300,7.126947265625,9.766247749328613,0.05027823522686958,0.06224924325942993
1716736837348947500,7.136947509765625,9.797372817993164,0.043095629662275314,0.05267243832349777
1716736837358947300,7.146947265625,9.80216121673584,0.05267243832349777,0.043095629662275314
1716736837368947500,7.156947509765625,9.78061294555664,0.05267243832349777,0.05027823522686958
1716736837378947300,7.166947265625,9.766247749328613,0.05027823522686958,0.047884032130241394
1716736837388947500,7.176947509765625,9.785401344299316,0.043095629662275314,0.0454898327589035
1716736837398947300,7.186947265625,9.797372817993164,0.05746084079146385,0.0454898327589035
1716736837408947500,7.196947509765625,9.794978141784668,0.05027823522686958,0.047884032130241394
1716736837418947300,7.206947265625,9.78061294555664,0.05267243832349777,0.047884032130241394
1716736837428947500,7.216947509765625,9.787796020507812,0.047884032130241394,0.05985504388809204
1716736837438947300,7.226947265625,9.797372817993164,0.040701430290937424,0.05027823522686958
1716736837448947500,7.236947509765625,9.790189743041992,0.038307227194309235,0.05746084079146385
1716736837458947300,7.246947265625,9.778219223022461,0.040701430290937424,0.05746084079146385
1716736837468947500,7.256947509765625,9.792584419250488,0.047884032130241394,0.06464344263076782
1716736837478947300,7.266947265625,9.80216121673584,0.047884032130241394,0.05746084079146385
1716736837488947500,7.276947509765625,9.783007621765137,0.047884032130241394,0.07182604819536209
1716736837498947300,7.286947265625,9.78061294555664,0.05746084079146385,0.06703764945268631
1716736837508947500,7.296947509765625,9.790189743041992,0.040701430290937424,0.06703764945268631
1716736837518947300,7.306947265625,9.799766540527344,0.047884032130241394,0.05267243832349777
1716736837528947500,7.316947509765625,9.792584419250488,0.05267243832349777,0.05746084079146385
1716736837538947300,7.326947265625,9.78061294555664,0.038307227194309235,0.047884032130241394
1716736837548947500,7.336947509765625,9.794978141784668,0.05267243832349777,0.05746084079146385
1716736837558947300,7.346947265625,9.785401344299316,0.05267243832349777,0.047884032130241394
1716736837568947500,7.356947509765625,9.794978141784668,0.05027823522686958,0.05027823522686958
1716736837578947300,7.366947265625,9.787796020507812,0.047884032130241394,0.047884032130241394
1716736837588947500,7.376947509765625,9.787796020507812,0.0454898327589035,0.05506663769483566
1716736837598947300,7.386947265625,9.797372817993164,0.0454898327589035,0.06703764945268631
1716736837608947500,7.396947509765625,9.651326179504395,0.040701430290937424,0.033518824726343155
1716736837618947300,7.406947265625,9.799766540527344,0.06703764945268631,0.043095629662275314
1716736837628947500,7.416947509765625,9.943418502807617,0.05746084079146385,0.047884032130241394
1716736837638947300,7.426947265625,9.809343338012695,0.033518824726343155,0.06464344263076782
1716736837648947500,7.436947509765625,9.636960983276367,0.05985504388809204,0.07661445438861847
1716736837658947300,7.446947265625,9.725546836853027,0.05267243832349777,0.0694318488240242
1716736837668947500,7.456947509765625,9.914688110351562,0.06224924325942993,0.08619125932455063
1716736837678947300,7.466947265625,9.850045204162598,0.040701430290937424,0.06224924325942993
1716736837688947500,7.476947509765625,9.658509254455566,0.05267243832349777,0.06224924325942993
1716736837698947300,7.486947265625,9.74470043182373,0.05985504388809204,0.05267243832349777
1716736837708947500,7.496947509765625,9.919476509094238,0.06464344263076782,0.040701430290937424
1716736837718947300,7.506947265625,9.809343338012695,0.043095629662275314,0.038307227194309235
1716736837728947500,7.516947509765625,9.67766284942627,0.047884032130241394,0.0454898327589035
1716736837738947300,7.526947265625,9.771036148071289,0.05746084079146385,0.033518824726343155
1716736837748947500,7.536947509765625,9.897929191589355,0.07182604819536209,0.026336219161748886
1716736837758947300,7.546947265625,9.83807373046875,0.05027823522686958,0.043095629662275314
1716736837768947500,7.556947509765625,9.684844970703125,0.05985504388809204,0.033518824726343155
1716736837778947300,7.566947265625,9.756670951843262,0.05267243832349777,0.05267243832349777
1716736837788947500,7.576947509765625,9.888352394104004,0.05506663769483566,0.06703764945268631
1716736837798947300,7.586947265625,9.823708534240723,0.035913024097681046,0.05746084079146385
1716736837808947500,7.596947509765625,9.711181640625,0.05027823522686958,0.0454898327589035
1716736837818947300,7.606947265625,9.749488830566406,0.021547814831137657,0.06464344263076782
1716736837828947500,7.616947509765625,9.854833602905273,0.05027823522686958,0.05746084079146385
1716736837838947300,7.626947265625,9.818920135498047,0.040701430290937424,0.06703764945268631
1716736837848947500,7.636947509765625,9.727940559387207,0.031124621629714966,0.06224924325942993
1716736837858947300,7.646947265625,9.761459350585938,0.05027823522686958,0.05985504388809204
1716736837868947500,7.656947509765625,9.850045204162598,0.06224924325942993,0.06464344263076782
1716736837878947300,7.666947265625,9.809343338012695,0.043095629662275314,0.05027823522686958
1716736837888947500,7.676947509765625,9.754277229309082,0.019153613597154617,0.05746084079146385
1716736837898947300,7.686947265625,9.775824546813965,0.0454898327589035,0.047884032130241394
1716736837908947500,7.696947509765625,9.840468406677246,0.040701430290937424,0.05027823522686958
1716736837918947300,7.706947265625,9.809343338012695,0.05746084079146385,0.05746084079146385
1716736837928947500,7.716947509765625,9.742305755615234,0.05027823522686958,0.028730420395731926
1716736837938947300,7.726947265625,9.76864242553711,0.05027823522686958,0.040701430290937424
1716736837948947500,7.736947509765625,9.818920135498047,0.043095629662275314,0.035913024097681046
1716736837958947300,7.746947265625,9.806949615478516,0.038307227194309235,0.05506663769483566
1716736837968947500,7.756947509765625,9.756670951843262,0.043095629662275314,0.033518824726343155
1716736837978947300,7.766947265625,9.766247749328613,0.043095629662275314,0.05267243832349777
1716736837988947500,7.776947509765625,9.80216121673584,0.05027823522686958,0.05985504388809204
1716736837998947300,7.786947265625,9.806949615478516,0.040701430290937424,0.0694318488240242
1716736838008947500,7.796947509765625,9.766247749328613,0.031124621629714966,0.07182604819536209
1716736838018947300,7.806947265625,9.773430824279785,0.043095629662275314,0.0694318488240242
1716736838028947500,7.816947509765625,9.80455493927002,0.035913024097681046,0.07422025501728058
1716736838038947300,7.826947265625,9.799766540527344,0.05746084079146385,0.05985504388809204
1716736838048947500,7.836947509765625,9.785401344299316,0.033518824726343155,0.05746084079146385
1716736838058947600,7.846947509765625,9.759065628051758,0.033518824726343155,0.06464344263076782
1716736838068947500,7.856947509765625,9.80455493927002,0.0694318488240242,0.05506663769483566
1716736838078947600,7.866947509765625,9.794978141784668,0.047884032130241394,0.035913024097681046
1716736838088947500,7.876947509765625,9.759065628051758,0.05267243832349777,0.047884032130241394
1716736838098947300,7.886947265625,9.78061294555664,0.047884032130241394,0.0454898327589035
1716736838108947500,7.896947509765625,9.80216121673584,0.06464344263076782,0.047884032130241394
1716736838118947300,7.906947265625,9.811738014221191,0.0454898327589035,0.035913024097681046
1716736838128947500,7.916947509765625,9.78061294555664,0.05027823522686958,0.038307227194309235
1716736838138947300,7.926947265625,9.775824546813965,0.038307227194309235,0.035913024097681046
1716736838148947500,7.936947509765625,9.799766540527344,0.05506663769483566,0.05267243832349777
1716736838158947300,7.946947265625,9.80216121673584,0.06464344263076782,0.038307227194309235
1716736838168947500,7.956947509765625,9.792584419250488,0.028730420395731926,0.05746084079146385
1716736838178947300,7.966947265625,9.771036148071289,0.05746084079146385,0.05746084079146385
1716736838188947500,7.976947509765625,9.797372817993164,0.05985504388809204,0.05746084079146385
1716736838198947300,7.986947265625,9.797372817993164,0.038307227194309235,0.0694318488240242
1716736838208947500,7.996947509765625,9.78061294555664,0.0454898327589035,0.05985504388809204
1716736838218947300,8.006947265625,9.787796020507812,0.040701430290937424,0.05985504388809204
1716736838228947500,8.016947509765625,9.792584419250488,0.047884032130241394,0.06464344263076782
1716736838238947300,8.026947265625,9.785401344299316,0.035913024097681046,0.0694318488240242
1716736838248947500,8.036947509765625,9.771036148071289,0.035913024097681046,0.08140286058187485
1716736838258947300,8.046947265625,9.78061294555664,0.05027823522686958,0.0694318488240242
1716736838268947500,8.056947509765624,9.785401344299316,0.043095629662275314,0.028730420395731926
1716736838278947300,8.066947265625,9.787796020507812,0.05746084079146385,0.05027823522686958
1716736838288947500,8.076947509765626,9.785401344299316,0.0454898327589035,0.040701430290937424
1716736838298947300,8.086947265625,9.783007621765137,0.0454898327589035,0.043095629662275314
1716736838308947500,8.096947509765625,9.799766540527344,0.05027823522686958,0.033518824726343155
1716736838318947300,8.106947265625,9.80216121673584,0.05027823522686958,0.05506663769483566
1716736838328947500,8.116947509765625,9.787796020507812,0.05985504388809204,0.05506663769483566
1716736838338947300,8.126947265625,9.787796020507812,0.047884032130241394,0.05746084079146385
1716736838348947500,8.136947509765625,9.794978141784668,0.038307227194309235,0.05506663769483566
1716736838358947300,8.146947265625,9.790189743041992,0.0454898327589035,0.06224924325942993
1716736838368947500,8.156947509765626,9.783007621765137,0.040701430290937424,0.06224924325942993
1716736838378947300,8.166947265625,9.790189743041992,0.05267243832349777,0.07182604819536209
1716736838388947500,8.176947509765625,9.799766540527344,0.043095629662275314,0.06224924325942993
1716736838398947300,8.186947265625,9.787796020507812,0.031124621629714966,0.05027823522686958
1716736838408947500,8.196947509765625,9.783007621765137,0.05027823522686958,0.07900865375995636
1716736838418947300,8.206947265625,9.775824546813965,0.038307227194309235,0.06703764945268631
1716736838428947500,8.216947509765625,9.794978141784668,0.031124621629714966,0.05267243832349777
1716736838438947300,8.226947265625,9.797372817993164,0.05746084079146385,0.06224924325942993
1716736838448947500,8.236947509765624,9.790189743041992,0.05746084079146385,0.05506663769483566
1716736838458947300,8.246947265625,9.763854026794434,0.047884032130241394,0.05746084079146385
1716736838468947500,8.256947509765626,9.790189743041992,0.05506663769483566,0.031124621629714966
1716736838478947300,8.266947265625,9.787796020507812,0.05267243832349777,0.047884032130241394
1716736838488947500,8.276947509765625,9.775824546813965,0.07182604819536209,0.05746084079146385
1716736838498947300,8.286947265625,9.783007621765137,0.047884032130241394,0.040701430290937424
1716736838508947500,8.296947509765625,9.785401344299316,0.047884032130241394,0.043095629662275314
1716736838518947300,8.306947265625,9.778219223022461,0.047884032130241394,0.05267243832349777
1716736838528947500,8.316947509765624,9.785401344299316,0.026336219161748886,0.05027823522686958
1716736838538947300,8.326947265625,9.785401344299316,0.040701430290937424,0.05746084079146385
1716736838548947500,8.336947509765626,9.792584419250488,0.040701430290937424,0.05746084079146385
1716736838558947300,8.346947265625,9.787796020507812,0.047884032130241394,0.05985504388809204
1716736838568947500,8.356947509765625,9.792584419250488,0.05267243832349777,0.06464344263076782
1716736838578947300,8.366947265625,9.792584419250488,0.047884032130241394,0.05506663769483566
1716736838588947500,8.376947509765625,9.794978141784668,0.05506663769483566,0.047884032130241394
1716736838598947300,8.386947265625,9.787796020507812,0.043095629662275314,0.06703764945268631
1716736838608947500,8.396947509765624,9.754277229309082,0.040701430290937424,0.0454898327589035
1716736838618947300,8.406947265625,9.864410400390625,0.06224924325942993,0.031124621629714966
1716736838628947500,8.416947509765626,9.881169319152832,0.05506663769483566,0.047884032130241394
1716736838638947300,8.426947265625,9.85962200164795,0.035913024097681046,0.035913024097681046
1716736838648947500,8.436947509765625,9.694421768188477,0.028730420395731926,0.05027823522686958
1716736838658947300,8.446947265625,9.74470043182373,0.035913024097681046,0.06464344263076782
1716736838668947500,8.456947509765625,9.833285331726074,0.05267243832349777,0.05985504388809204
1716736838678947300,8.466947265625,9.818920135498047,0.05027823522686958,0.05027823522686958
1716736838688947500,8.476947509765624,9.739912033081055,0.07900865375995636,0.06224924325942993
1716736838698947300,8.486947265625,9.78061294555664,0.033518824726343155,0.0454898327589035
1716736838708947500,8.496947509765626,9.847650527954102,0.05267243832349777,0.0454898327589035
1716736838718947300,8.506947265625,9.80455493927002,0.0454898327589035,0.05027823522686958
1716736838728947500,8.516947509765625,9.720758438110352,0.047884032130241394,0.05267243832349777
1716736838738947300,8.526947265625,9.766247749328613,0.0454898327589035,0.05746084079146385
1716736838748947500,8.536947509765625,9.840468406677246,0.033518824726343155,0.05746084079146385
1716736838758947300,8.546947265625,9.811738014221191,0.05267243832349777,0.05746084079146385
1716736838768947500,8.556947509765624,9.732728958129883,0.0454898327589035,0.07422025501728058
1716736838778947300,8.566947265625,9.783007621765137,0.07182604819536209,0.05985504388809204
1716736838788947500,8.576947509765626,9.842862129211426,0.05267243832349777,0.05506663769483566
1716736838798947300,8.586947265625,9.799766540527344,0.043095629662275314,0.05027823522686958
1716736838808947500,8.596947509765625,9.749488830566406,0.0454898327589035,0.040701430290937424
1716736838818947300,8.606947265625,9.771036148071289,0.043095629662275314,0.05985504388809204
1716736838828947500,8.616947509765625,9.828496932983398,0.05027823522686958,0.0694318488240242
1716736838838947300,8.626947265625,9.799766540527344,0.05746084079146385,0.07422025501728058
1716736838848947500,8.636947509765625,9.749488830566406,0.05267243832349777,0.05506663769483566
1716736838858947300,8.646947265625,9.759065628051758,0.07182604819536209,0.06703764945268631
1716736838868947500,8.656947509765626,9.821314811706543,0.05746084079146385,0.05267243832349777
1716736838878947600,8.666947509765626,9.811738014221191,0.033518824726343155,0.040701430290937424
1716736838888947500,8.676947509765625,9.766247749328613,0.05027823522686958,0.047884032130241394
1716736838898947300,8.686947265625,9.778219223022461,0.040701430290937424,0.05746084079146385
1716736838908947500,8.696947509765625,9.811738014221191,0.040701430290937424,0.05267243832349777
1716736838918947300,8.706947265625,9.80455493927002,0.040701430290937424,0.05267243832349777
1716736838928947500,8.716947509765625,9.773430824279785,0.05506663769483566,0.0694318488240242
1716736838938947300,8.726947265625,9.771036148071289,0.05506663769483566,0.0694318488240242
1716736838948947500,8.736947509765624,9.799766540527344,0.05027823522686958,0.05506663769483566
1716736838958947300,8.746947265625,9.783007621765137,0.038307227194309235,0.05746084079146385
1716736838968947500,8.756947509765626,9.756670951843262,0.043095629662275314,0.06464344263076782
1716736838978947300,8.766947265625,9.78061294555664,0.038307227194309235,0.05267243832349777
1716736838988947500,8.776947509765625,9.797372817993164,0.043095629662275314,0.06224924325942993
1716736838998947300,8.786947265625,9.787796020507812,0.047884032130241394,0.06224924325942993
1716736839008947500,8.796947509765625,9.751882553100586,0.05267243832349777,0.05746084079146385
1716736839018947300,8.806947265625,9.783007621765137,0.0454898327589035,0.05267243832349777
1716736839028947500,8.816947509765624,9.80216121673584,0.0454898327589035,0.06464344263076782
1716736839038947300,8.826947265625,9.787796020507812,0.06464344263076782,0.06464344263076782
1716736839048947500,8.836947509765626,9.773430824279785,0.0694318488240242,0.033518824726343155
1716736839058947300,8.846947265625,9.797372817993164,0.05746084079146385,0.05267243832349777
1716736839068947500,8.856947509765625,9.80455493927002,0.05746084079146385,0.05746084079146385
1716736839078947300,8.866947265625,9.785401344299316,0.047884032130241394,0.05746084079146385
1716736839088947500,8.876947509765625,9.785401344299316,0.043095629662275314,0.06464344263076782
1716736839098947300,8.886947265625,9.78061294555664,0.05985504388809204,0.0454898327589035
1716736839108947500,8.896947509765624,9.794978141784668,0.047884032130241394,0.05506663769483566
1716736839118947300,8.906947265625,9.785401344299316,0.05985504388809204,0.05267243832349777
1716736839128947500,8.916947509765626,9.771036148071289,0.031124621629714966,0.026336219161748886
1716736839138947300,8.926947265625,9.785401344299316,0.05027823522686958,0.047884032130241394
1716736839148947500,8.936947509765625,9.794978141784668,0.06464344263076782,0.05985504388809204
1716736839158947300,8.946947265625,9.783007621765137,0.05027823522686958,0.0694318488240242
1716736839168947500,8.956947509765625,9.792584419250488,0.05027823522686958,0.05985504388809204
1716736839178947300,8.966947265625,9.783007621765137,0.05506663769483566,0.0454898327589035
1716736839188947500,8.976947509765624,9.797372817993164,0.05746084079146385,0.05985504388809204
1716736839198947300,8.986947265625,9.790189743041992,0.05027823522686958,0.05267243832349777
1716736839208947500,8.996947509765626,9.775824546813965,0.033518824726343155,0.05746084079146385
1716736839218947300,9.006947265625,9.785401344299316,0.047884032130241394,0.05027823522686958
1716736839228947500,9.016947509765625,9.792584419250488,0.047884032130241394,0.05267243832349777
1716736839238947300,9.026947265625,9.78061294555664,0.05746084079146385,0.033518824726343155
1716736839248947500,9.036947509765625,9.785401344299316,0.0694318488240242,0.06224924325942993
1716736839258947300,9.046947265625,9.771036148071289,0.05746084079146385,0.043095629662275314
1716736839268947500,9.056947509765624,9.785401344299316,0.05506663769483566,0.05027823522686958
1716736839278947300,9.066947265625,9.775824546813965,0.040701430290937424,0.038307227194309235
1716736839288947500,9.076947509765626,9.794978141784668,0.0454898327589035,0.05027823522686958
1716736839298947300,9.086947265625,9.785401344299316,0.040701430290937424,0.0454898327589035
1716736839308947500,9.096947509765625,9.797372817993164,0.05985504388809204,0.05746084079146385
1716736839318947300,9.106947265625,9.775824546813965,0.06703764945268631,0.035913024097681046
1716736839328947500,9.116947509765625,9.78061294555664,0.038307227194309235,0.05985504388809204
1716736839338947300,9.126947265625,9.783007621765137,0.0454898327589035,0.043095629662275314
1716736839348947500,9.136947509765625,9.792584419250488,0.0454898327589035,0.05506663769483566
1716736839358947300,9.146947265625,9.78061294555664,0.047884032130241394,0.0454898327589035
1716736839368947500,9.156947509765626,9.76864242553711,0.038307227194309235,0.05506663769483566
1716736839378947300,9.166947265625,9.785401344299316,0.05027823522686958,0.038307227194309235
1716736839388947500,9.176947509765625,9.787796020507812,0.0454898327589035,0.06464344263076782
1716736839398947300,9.186947265625,9.794978141784668,0.05267243832349777,0.047884032130241394
1716736839408947500,9.196947509765625,9.785401344299316,0.05506663769483566,0.047884032130241394
1716736839418947300,9.206947265625,9.78061294555664,0.05985504388809204,0.05506663769483566
1716736839428947500,9.216947509765625,9.785401344299316,0.047884032130241394,0.05506663769483566
1716736839438947300,9.226947265625,9.787796020507812,0.0454898327589035,0.05267243832349777
1716736839448947500,9.236947509765624,9.775824546813965,0.043095629662275314,0.0454898327589035
1716736839458947300,9.246947265625,9.790189743041992,0.031124621629714966,0.05027823522686958
1716736839468947200,9.256947265625,9.806949615478516,0.05506663769483566,0.05746084079146385
1716736839478947300,9.266947265625,9.787796020507812,0.05267243832349777,0.05746084079146385
1716736839488947200,9.276947265625,9.771036148071289,0.043095629662275314,0.07422025501728058
1716736839498947300,9.286947265625,9.790189743041992,0.05746084079146385,0.05746084079146385
1716736839508947200,9.296947265625,9.773430824279785,0.038307227194309235,0.05267243832349777
1716736839518947300,9.306947265625,9.792584419250488,0.035913024097681046,0.05985504388809204
1716736839528947200,9.316947265625,9.783007621765137,0.05027823522686958,0.06703764945268631
1716736839538947000,9.326947021484376,9.778219223022461,0.06224924325942993,0.06464344263076782
1716736839548947200,9.336947265625,9.56274127960205,0.033518824726343155,0.043095629662275314
1716736839558947000,9.346947021484375,9.89314079284668,0.05506663769483566,0.05985504388809204
1716736839568947200,9.356947265625,9.847650527954102,0.043095629662275314,0.05267243832349777
1716736839578947000,9.366947021484375,9.751882553100586,0.028730420395731926,0.05506663769483566
1716736839588947200,9.376947265625,9.715970039367676,0.05506663769483566,0.05985504388809204
1716736839598947000,9.386947021484374,9.78061294555664,0.033518824726343155,0.031124621629714966
1716736839608947200,9.396947265625,9.814131736755371,0.06464344263076782,0.05985504388809204
1716736839618947000,9.406947021484376,9.78061294555664,0.047884032130241394,0.05027823522686958
1716736839628947200,9.416947265625,9.727940559387207,0.0454898327589035,0.05985504388809204
1716736839638947000,9.426947021484375,9.799766540527344,0.05027823522686958,0.047884032130241394
1716736839648947200,9.436947265625,9.818920135498047,0.047884032130241394,0.040701430290937424
1716736839658947000,9.446947021484375,9.766247749328613,0.043095629662275314,0.035913024097681046
1716736839668947200,9.456947265625,9.74709415435791,0.05506663769483566,0.040701430290937424
1716736839678947000,9.466947021484375,9.797372817993164,0.031124621629714966,0.0454898327589035
1716736839688947200,9.476947265625,9.830891609191895,0.06464344263076782,0.05746084079146385
1716736839698947000,9.486947021484376,9.778219223022461,0.05027823522686958,0.043095629662275314
1716736839708947200,9.496947265625,9.754277229309082,0.05267243832349777,0.06224924325942993
1716736839718947000,9.506947021484375,9.80216121673584,0.043095629662275314,0.06464344263076782
1716736839728947200,9.516947265625,9.826103210449219,0.05267243832349777,0.047884032130241394
1716736839738947000,9.526947021484375,9.76864242553711,0.047884032130241394,0.0694318488240242
1716736839748947200,9.536947265625,9.756670951843262,0.038307227194309235,0.06464344263076782
1716736839758947000,9.546947021484375,9.790189743041992,0.0454898327589035,0.05506663769483566
1716736839768947200,9.556947265625,9.814131736755371,0.035913024097681046,0.07182604819536209
1716736839778947300,9.566947265625,9.78061294555664,0.05267243832349777,0.05985504388809204
1716736839788947500,9.576947509765626,9.778219223022461,0.05027823522686958,0.06464344263076782
1716736839798947300,9.586947265625,9.799766540527344,0.047884032130241394,0.05506663769483566
1716736839808947500,9.596947509765625,9.806949615478516,0.026336219161748886,0.05746084079146385
1716736839818947300,9.606947265625,9.78061294555664,0.05267243832349777,0.05267243832349777
1716736839828947500,9.616947509765625,9.76864242553711,0.028730420395731926,0.047884032130241394
1716736839838947300,9.626947265625,9.792584419250488,0.040701430290937424,0.047884032130241394
1716736839848947500,9.636947509765625,9.787796020507812,0.0454898327589035,0.06464344263076782
1716736839858947300,9.646947265625,9.799766540527344,0.05027823522686958,0.06224924325942993
1716736839868947500,9.656947509765626,9.76864242553711,0.0694318488240242,0.05746084079146385
1716736839878947300,9.666947265625,9.783007621765137,0.05746084079146385,0.0454898327589035
1716736839888947500,9.676947509765625,9.80216121673584,0.06224924325942993,0.05985504388809204
1716736839898947300,9.686947265625,9.787796020507812,0.05027823522686958,0.06703764945268631
1716736839908947500,9.696947509765625,9.775824546813965,0.040701430290937424,0.0694318488240242
1716736839918947300,9.706947265625,9.785401344299316,0.05027823522686958,0.047884032130241394
1716736839928947500,9.716947509765625,9.799766540527344,0.05027823522686958,0.07900865375995636
1716736839938947300,9.726947265625,9.787796020507812,0.05746084079146385,0.06464344263076782
1716736839948947500,9.736947509765624,9.775824546813965,0.035913024097681046,0.06464344263076782
1716736839958947300,9.746947265625,9.783007621765137,0.038307227194309235,0.06703764945268631
1716736839968947500,9.756947509765626,9.794978141784668,0.040701430290937424,0.05027823522686958
1716736839978947300,9.766947265625,9.797372817993164,0.043095629662275314,0.05506663769483566
1716736839988947500,9.776947509765625,9.787796020507812,0.033518824726343155,0.05027823522686958
1716736839998947300,9.786947265625,9.783007621765137,0.05506663769483566,0.05746084079146385
1716736840008947500,9.796947509765625,9.80216121673584,0.05027823522686958,0.028730420395731926
1716736840018947300,9.806947265625,9.797372817993164,0.043095629662275314,0.038307227194309235
1716736840028947500,9.816947509765624,9.771036148071289,0.05746084079146385,0.06464344263076782
1716736840038947300,9.826947265625,9.773430824279785,0.05746084079146385,0.05746084079146385
1716736840048947500,9.836947509765626,9.794978141784668,0.0454898327589035,0.033518824726343155
1716736840058947300,9.846947265625,9.794978141784668,0.047884032130241394,0.05267243832349777
1716736840068947500,9.856947509765625,9.78061294555664,0.05746084079146385,0.06464344263076782
1716736840078947300,9.866947265625,9.792584419250488,0.047884032130241394,0.05746084079146385
1716736840088947500,9.876947509765625,9.809343338012695,0.05506663769483566,0.05027823522686958
1716736840098947300,9.886947265625,9.797372817993164,0.05746084079146385,0.07900865375995636
1716736840108947500,9.896947509765624,9.783007621765137,0.05746084079146385,0.05267243832349777
1716736840118947300,9.906947265625,9.783007621765137,0.06464344263076782,0.07182604819536209
1716736840128947500,9.916947509765626,9.799766540527344,0.043095629662275314,0.043095629662275314
1716736840138947300,9.926947265625,9.787796020507812,0.05506663769483566,0.06703764945268631
1716736840148947500,9.936947509765625,9.794978141784668,0.040701430290937424,0.05746084079146385
1716736840158947300,9.946947265625,9.790189743041992,0.05746084079146385,0.038307227194309235
1716736840168947500,9.956947509765625,9.790189743041992,0.0454898327589035,0.06224924325942993
1716736840178947300,9.966947265625,9.792584419250488,0.05746084079146385,0.05506663769483566
1716736840188947500,9.976947509765624,9.790189743041992,0.043095629662275314,0.05746084079146385
1716736840198947300,9.986947265625,9.785401344299316,0.0454898327589035,0.05267243832349777
1716736840208947500,9.996947509765626,9.790189743041992,0.047884032130241394,0.05267243832349777
1716736840218947300,10.006947265625,9.794978141784668,0.06464344263076782,0.05267243832349777
1716736840228947500,10.016947509765625,9.790189743041992,0.0454898327589035,0.05506663769483566
1716736840238947300,10.026947265625,9.783007621765137,0.05746084079146385,0.06224924325942993
1716736840248947500,10.036947509765625,9.785401344299316,0.05267243832349777,0.05267243832349777
1716736840258947300,10.046947265625,9.799766540527344,0.05506663769483566,0.05985504388809204
1716736840268947500,10.056947509765624,9.794978141784668,0.05506663769483566,0.06224924325942993
1716736840278947300,10.066947265625,9.783007621765137,0.047884032130241394,0.06224924325942993
1716736840288947500,10.076947509765626,9.783007621765137,0.05267243832349777,0.05985504388809204
1716736840298947300,10.086947265625,9.783007621765137,0.047884032130241394,0.047884032130241394
1716736840308947500,10.096947509765625,9.797372817993164,0.05027823522686958,0.06464344263076782
1716736840318947300,10.106947265625,9.778219223022461,0.047884032130241394,0.05985504388809204
1716736840328947500,10.116947509765625,9.792584419250488,0.05746084079146385,0.05985504388809204
1716736840338947300,10.126947265625,9.78061294555664,0.05267243832349777,0.07661445438861847
1716736840348947500,10.136947509765625,9.790189743041992,0.05506663769483566,0.05746084079146385
1716736840358947300,10.146947265625,9.794978141784668,0.05027823522686958,0.040701430290937424
1716736840368947500,10.156947509765626,9.783007621765137,0.05746084079146385,0.0454898327589035
1716736840378947300,10.166947265625,9.797372817993164,0.040701430290937424,0.040701430290937424
1716736840388947500,10.176947509765625,9.778219223022461,0.05267243832349777,0.043095629662275314
1716736840398947300,10.186947265625,9.790189743041992,0.05027823522686958,0.06224924325942993
1716736840408947500,10.196947509765625,9.799766540527344,0.040701430290937424,0.06464344263076782
1716736840418947300,10.206947265625,9.787796020507812,0.043095629662275314,0.033518824726343155
1716736840428947500,10.216947509765625,9.78061294555664,0.047884032130241394,0.05027823522686958
1716736840438947300,10.226947265625,9.790189743041992,0.043095629662275314,0.05506663769483566
1716736840448947500,10.236947509765624,9.787796020507812,0.05027823522686958,0.047884032130241394
1716736840458947300,10.246947265625,9.792584419250488,0.06464344263076782,0.06703764945268631
1716736840468947500,10.256947509765626,9.785401344299316,0.06224924325942993,0.05267243832349777
1716736840478947300,10.266947265625,9.790189743041992,0.033518824726343155,0.047884032130241394
1716736840488947500,10.276947509765625,9.783007621765137,0.05506663769483566,0.08619125932455063
1716736840498947300,10.286947265625,9.797372817993164,0.05985504388809204,0.06464344263076782
1716736840508947500,10.296947509765625,9.78061294555664,0.05027823522686958,0.047884032130241394
1716736840518947300,10.306947265625,9.792584419250488,0.0454898327589035,0.06224924325942993
1716736840528947500,10.316947509765624,9.912294387817383,0.05746084079146385,0.014365210197865963
1716736840538947300,10.326947265625,9.914688110351562,0.05506663769483566,0.026336219161748886
1716736840548947500,10.336947509765626,9.888352394104004,0.05506663769483566,0.05267243832349777
1716736840558947300,10.346947265625,9.737517356872559,0.05267243832349777,0.05027823522686958
1716736840568947500,10.356947509765625,9.749488830566406,0.033518824726343155,0.06464344263076782
1716736840578947300,10.366947265625,9.862015724182129,0.05746084079146385,0.047884032130241394
1716736840588947500,10.376947509765625,9.826103210449219,0.043095629662275314,0.05027823522686958
1716736840598947300,10.386947265625,9.78061294555664,0.05027823522686958,0.026336219161748886
1716736840608947200,10.396947265625,9.773430824279785,0.0454898327589035,0.047884032130241394
1716736840618947300,10.406947265625,9.821314811706543,0.05746084079146385,0.043095629662275314
1716736840628947200,10.416947265625,9.826103210449219,0.038307227194309235,0.05027823522686958
1716736840638947300,10.426947265625,9.74470043182373,0.026336219161748886,0.05027823522686958
1716736840648947200,10.436947265625,9.756670951843262,0.040701430290937424,0.0454898327589035
1716736840658947300,10.446947265625,9.83568000793457,0.06464344263076782,0.05746084079146385
1716736840668947200,10.456947265625,9.830891609191895,0.05267243832349777,0.047884032130241394
1716736840678947300,10.466947265625,9.763854026794434,0.05746084079146385,0.05027823522686958
1716736840688947200,10.476947265625,9.763854026794434,0.035913024097681046,0.05267243832349777
1716736840698947300,10.486947265625,9.818920135498047,0.047884032130241394,0.05027823522686958
1716736840708947200,10.496947265625,9.80216121673584,0.0454898327589035,0.06464344263076782
1716736840718947300,10.506947265625,9.773430824279785,0.035913024097681046,0.05506663769483566
1716736840728947200,10.516947265625,9.761459350585938,0.033518824726343155,0.05506663769483566
1716736840738947300,10.526947265625,9.809343338012695,0.035913024097681046,0.06464344263076782
1716736840748947200,10.536947265625,9.828496932983398,0.05267243832349777,0.05267243832349777
1716736840758947300,10.546947265625,9.775824546813965,0.05267243832349777,0.047884032130241394
1716736840768947200,10.556947265625,9.759065628051758,0.05506663769483566,0.05027823522686958
1716736840778947300,10.566947265625,9.80455493927002,0.06464344263076782,0.038307227194309235
1716736840788947500,10.576947509765626,9.809343338012695,0.05506663769483566,0.047884032130241394
1716736840798947300,10.586947265625,9.759065628051758,0.05267243832349777,0.05506663769483566
1716736840808947500,10.596947509765625,9.78061294555664,0.0454898327589035,0.043095629662275314
1716736840818947300,10.606947265625,9.794978141784668,0.0454898327589035,0.05746084079146385
1716736840828947500,10.616947509765625,9.809343338012695,0.05506663769483566,0.05985504388809204
1716736840838947300,10.626947265625,9.797372817993164,0.05267243832349777,0.05985504388809204
1716736840848947500,10.636947509765625,9.773430824279785,0.05027823522686958,0.0454898327589035
1716736840858947300,10.646947265625,9.797372817993164,0.038307227194309235,0.05506663769483566
1716736840868947500,10.656947509765626,9.814131736755371,0.035913024097681046,0.047884032130241394
1716736840878947300,10.666947265625,9.790189743041992,0.047884032130241394,0.040701430290937424
1716736840888947500,10.676947509765625,9.794978141784668,0.0454898327589035,0.0694318488240242
1716736840898947300,10.686947265625,9.787796020507812,0.05027823522686958,0.05506663769483566
1716736840908947500,10.696947509765625,9.806949615478516,0.05267243832349777,0.06224924325942993
1716736840918947300,10.706947265625,9.771036148071289,0.0694318488240242,0.05746084079146385
1716736840928947500,10.716947509765625,9.771036148071289,0.047884032130241394,0.05506663769483566
1716736840938947300,10.726947265625,9.811738014221191,0.05267243832349777,0.0454898327589035
1716736840948947500,10.736947509765624,9.792584419250488,0.043095629662275314,0.047884032130241394
1716736840958947300,10.746947265625,9.794978141784668,0.05027823522686958,0.05267243832349777
1716736840968947500,10.756947509765626,9.78061294555664,0.026336219161748886,0.05746084079146385
1716736840978947300,10.766947265625,9.799766540527344,0.038307227194309235,0.07182604819536209
1716736840988947500,10.776947509765625,9.799766540527344,0.0454898327589035,0.05985504388809204
1716736840998947300,10.786947265625,9.785401344299316,0.05746084079146385,0.038307227194309235
1716736841008947500,10.796947509765625,9.78061294555664,0.047884032130241394,0.05506663769483566
1716736841018947300,10.806947265625,9.794978141784668,0.05506663769483566,0.05267243832349777
1716736841028947500,10.816947509765624,9.799766540527344,0.047884032130241394,0.05985504388809204
1716736841038947300,10.826947265625,9.785401344299316,0.0454898327589035,0.05985504388809204
1716736841048947500,10.836947509765626,9.790189743041992,0.047884032130241394,0.05985504388809204
1716736841058947300,10.846947265625,9.790189743041992,0.040701430290937424,0.0454898327589035
1716736841068947500,10.856947509765625,9.785401344299316,0.043095629662275314,0.0454898327589035
1716736841078947300,10.866947265625,9.785401344299316,0.040701430290937424,0.06224924325942993
1716736841088947500,10.876947509765625,9.76864242553711,0.040701430290937424,0.05027823522686958
1716736841098947300,10.886947265625,9.794978141784668,0.05027823522686958,0.05027823522686958
1716736841108947500,10.896947509765624,9.799766540527344,0.038307227194309235,0.043095629662275314
1716736841118947300,10.906947265625,9.790189743041992,0.040701430290937424,0.05506663769483566
1716736841128947500,10.916947509765626,9.790189743041992,0.047884032130241394,0.0454898327589035
1716736841138947300,10.926947265625,9.794978141784668,0.05027823522686958,0.05985504388809204
1716736841148947500,10.936947509765625,9.797372817993164,0.07182604819536209,0.040701430290937424
1716736841158947300,10.946947265625,9.811738014221191,0.05267243832349777,0.05267243832349777
1716736841168947500,10.956947509765625,9.792584419250488,0.05746084079146385,0.047884032130241394
1716736841178947300,10.966947265625,9.78061294555664,0.047884032130241394,0.05985504388809204
1716736841188947500,10.976947509765624,9.794978141784668,0.038307227194309235,0.0454898327589035
1716736841198947300,10.986947265625,9.790189743041992,0.040701430290937424,0.06464344263076782
1716736841208947500,10.996947509765626,9.778219223022461,0.05506663769483566,0.05985504388809204
1716736841218947300,11.006947265625,9.787796020507812,0.06464344263076782,0.0454898327589035
1716736841228947500,11.016947509765625,9.787796020507812,0.05267243832349777,0.05506663769483566
1716736841238947300,11.026947265625,9.775824546813965,0.0454898327589035,0.047884032130241394
1716736841248947500,11.036947509765625,9.785401344299316,0.05985504388809204,0.06224924325942993
1716736841258947300,11.046947265625,9.792584419250488,0.040701430290937424,0.047884032130241394
1716736841268947500,11.056947509765624,9.799766540527344,0.038307227194309235,0.05506663769483566
1716736841278947300,11.066947265625,9.783007621765137,0.0454898327589035,0.05027823522686958
1716736841288947500,11.076947509765626,9.787796020507812,0.035913024097681046,0.06224924325942993
1716736841298947600,11.086947509765626,9.785401344299316,0.038307227194309235,0.05506663769483566
1716736841308947500,11.096947509765625,9.790189743041992,0.05506663769483566,0.05267243832349777
1716736841318947600,11.106947509765625,9.799766540527344,0.06224924325942993,0.05267243832349777
1716736841328947500,11.116947509765625,9.785401344299316,0.05985504388809204,0.047884032130241394
1716736841338947600,11.126947509765625,9.806949615478516,0.0454898327589035,0.035913024097681046
1716736841348947500,11.136947509765625,9.790189743041992,0.043095629662275314,0.05506663769483566
1716736841358947600,11.146947509765624,9.78061294555664,0.05506663769483566,0.040701430290937424
1716736841368947500,11.156947509765626,9.790189743041992,0.06464344263076782,0.06224924325942993
1716736841378947300,11.166947265625,9.785401344299316,0.05267243832349777,0.06224924325942993
1716736841388947500,11.176947509765625,9.783007621765137,0.05746084079146385,0.05506663769483566
1716736841398947300,11.186947265625,9.790189743041992,0.035913024097681046,0.05746084079146385
1716736841408947500,11.196947509765625,9.790189743041992,0.05985504388809204,0.05267243832349777
1716736841418947300,11.206947265625,9.790189743041992,0.026336219161748886,0.05267243832349777
1716736841428947500,11.216947509765625,9.792584419250488,0.043095629662275314,0.05267243832349777
1716736841438947300,11.226947265625,9.785401344299316,0.0454898327589035,0.06464344263076782
1716736841448947500,11.236947509765624,9.783007621765137,0.05746084079146385,0.033518824726343155
1716736841458947300,11.246947265625,9.790189743041992,0.05267243832349777,0.038307227194309235
1716736841468947500,11.256947509765626,9.792584419250488,0.038307227194309235,0.05267243832349777
1716736841478947300,11.266947265625,9.792584419250488,0.05267243832349777,0.05027823522686958
1716736841488947500,11.276947509765625,9.78061294555664,0.05267243832349777,0.06224924325942993
1716736841498947300,11.286947265625,9.794978141784668,0.05506663769483566,0.05506663769483566
1716736841508947500,11.296947509765625,9.799766540527344,0.040701430290937424,0.08140286058187485
1716736841518947300,11.306947265625,9.792584419250488,0.043095629662275314,0.05506663769483566
1716736841528947500,11.316947509765624,9.771036148071289,0.047884032130241394,0.05267243832349777
1716736841538947300,11.326947265625,9.845256805419922,0.05267243832349777,0.06464344263076782
1716736841548947500,11.336947509765626,9.907505989074707,0.05985504388809204,0.047884032130241394
1716736841558947300,11.346947265625,9.818920135498047,0.05267243832349777,0.035913024097681046
1716736841568947500,11.356947509765625,9.742305755615234,0.031124621629714966,0.07182604819536209
1716736841578947300,11.366947265625,9.775824546813965,0.033518824726343155,0.05985504388809204
1716736841588947500,11.376947509765625,9.830891609191895,0.05267243832349777,0.0694318488240242
1716736841598947300,11.386947265625,9.816526412963867,0.031124621629714966,0.07182604819536209
1716736841608947200,11.396947265625,9.76864242553711,0.05985504388809204,0.05746084079146385
1716736841618947300,11.406947265625,9.797372817993164,0.05746084079146385,0.06464344263076782
1716736841628947200,11.416947265625,9.85962200164795,0.05506663769483566,0.06224924325942993
1716736841638947300,11.426947265625,9.797372817993164,0.05746084079146385,0.05746084079146385
1716736841648947200,11.436947265625,9.754277229309082,0.038307227194309235,0.05746084079146385
1716736841658947300,11.446947265625,9.797372817993164,0.05985504388809204,0.040701430290937424
1716736841668947200,11.456947265625,9.840468406677246,0.047884032130241394,0.05506663769483566
1716736841678947300,11.466947265625,9.792584419250488,0.033518824726343155,0.043095629662275314
1716736841688947200,11.476947265625,9.766247749328613,0.05506663769483566,0.05985504388809204
1716736841698947300,11.486947265625,9.790189743041992,0.05985504388809204,0.0454898327589035
1716736841708947200,11.496947265625,9.823708534240723,0.047884032130241394,0.05027823522686958
1716736841718947300,11.506947265625,9.783007621765137,0.06224924325942993,0.038307227194309235
1716736841728947200,11.516947265625,9.751882553100586,0.06703764945268631,0.05267243832349777
1716736841738947300,11.526947265625,9.783007621765137,0.0454898327589035,0.0454898327589035
1716736841748947200,11.536947265625,9.811738014221191,0.040701430290937424,0.07182604819536209
1716736841758947300,11.546947265625,9.811738014221191,0.035913024097681046,0.07182604819536209
1716736841768947200,11.556947265625,9.76864242553711,0.05267243832349777,0.05746084079146385
1716736841778947300,11.566947265625,9.78061294555664,0.05267243832349777,0.05746084079146385
1716736841788947200,11.576947265625,9.799766540527344,0.05506663769483566,0.05027823522686958
1716736841798947300,11.586947265625,9.790189743041992,0.038307227194309235,0.06224924325942993
1716736841808947500,11.596947509765625,9.773430824279785,0.040701430290937424,0.05027823522686958
1716736841818947300,11.606947265625,9.792584419250488,0.033518824726343155,0.05267243832349777
1716736841828947500,11.616947509765625,9.80216121673584,0.035913024097681046,0.07661445438861847
1716736841838947300,11.626947265625,9.809343338012695,0.05267243832349777,0.035913024097681046
1716736841848947500,11.636947509765625,9.778219223022461,0.05506663769483566,0.0694318488240242
1716736841858947300,11.646947265625,9.797372817993164,0.05027823522686958,0.040701430290937424
1716736841868947500,11.656947509765626,9.816526412963867,0.05267243832349777,0.06703764945268631
1716736841878947300,11.666947265625,9.797372817993164,0.05985504388809204,0.05985504388809204
1716736841888947500,11.676947509765625,9.790189743041992,0.047884032130241394,0.07182604819536209
1716736841898947300,11.686947265625,9.797372817993164,0.047884032130241394,0.05506663769483566
1716736841908947500,11.696947509765625,9.814131736755371,0.05027823522686958,0.0454898327589035
1716736841918947300,11.706947265625,9.783007621765137,0.05027823522686958,0.06464344263076782
1716736841928947500,11.716947509765625,9.76864242553711,0.043095629662275314,0.06224924325942993
1716736841938947300,11.726947265625,9.773430824279785,0.06224924325942993,0.0694318488240242
1716736841948947500,11.736947509765624,9.792584419250488,0.047884032130241394,0.05027823522686958
1716736841958947300,11.746947265625,9.799766540527344,0.040701430290937424,0.05506663769483566
1716736841968947500,11.756947509765626,9.799766540527344,0.047884032130241394,0.06224924325942993
1716736841978947300,11.766947265625,9.783007621765137,0.047884032130241394,0.0694318488240242
1716736841988947500,11.776947509765625,9.794978141784668,0.05267243832349777,0.08379705995321274
1716736841998947300,11.786947265625,9.80455493927002,0.033518824726343155,0.05985504388809204
1716736842008947500,11.796947509765625,9.785401344299316,0.043095629662275314,0.05985504388809204
1716736842018947300,11.806947265625,9.783007621765137,0.047884032130241394,0.040701430290937424
1716736842028947500,11.816947509765624,9.790189743041992,0.040701430290937424,0.05985504388809204
1716736842038947300,11.826947265625,9.797372817993164,0.05506663769483566,0.05746084079146385
1716736842048947500,11.836947509765626,9.787796020507812,0.038307227194309235,0.05746084079146385
1716736842058947300,11.846947265625,9.78061294555664,0.043095629662275314,0.05267243832349777
1716736842068947500,11.856947509765625,9.80216121673584,0.05027823522686958,0.05267243832349777
1716736842078947300,11.866947265625,9.790189743041992,0.05985504388809204,0.05506663769483566
1716736842088947500,11.876947509765625,9.783007621765137,0.05506663769483566,0.05027823522686958
1716736842098947300,11.886947265625,9.792584419250488,0.05027823522686958,0.05985504388809204
1716736842108947500,11.896947509765624,9.78061294555664,0.05506663769483566,0.05027823522686958
1716736842118947300,11.906947265625,9.790189743041992,0.047884032130241394,0.0694318488240242
1716736842128947500,11.916947509765626,9.790189743041992,0.031124621629714966,0.05267243832349777
1716736842138947300,11.926947265625,9.787796020507812,0.05267243832349777,0.05506663769483566
1716736842148947500,11.936947509765625,9.778219223022461,0.05267243832349777,0.05746084079146385
1716736842158947300,11.946947265625,9.80455493927002,0.038307227194309235,0.047884032130241394
1716736842168947500,11.956947509765625,9.790189743041992,0.05746084079146385,0.05985504388809204
1716736842178947300,11.966947265625,9.785401344299316,0.05267243832349777,0.05267243832349777
1716736842188947500,11.976947509765624,9.792584419250488,0.047884032130241394,0.05506663769483566
1716736842198947300,11.986947265625,9.790189743041992,0.05267243832349777,0.05027823522686958
1716736842208947500,11.996947509765626,9.785401344299316,0.043095629662275314,0.05027823522686958
1716736842218947300,12.006947265625,9.794978141784668,0.043095629662275314,0.05027823522686958
1716736842228947500,12.016947509765625,9.787796020507812,0.05746084079146385,0.05746084079146385
1716736842238947300,12.026947265625,9.790189743041992,0.05267243832349777,0.047884032130241394
1716736842248947200,12.036947265625,9.773430824279785,0.05267243832349777,0.05746084079146385
1716736842258947300,12.046947265625,9.790189743041992,0.0454898327589035,0.06464344263076782
1716736842268947200,12.056947265625,9.80216121673584,0.05267243832349777,0.05985504388809204
1716736842278947300,12.066947265625,9.785401344299316,0.05746084079146385,0.05746084079146385
1716736842288947200,12.076947265625,9.790189743041992,0.040701430290937424,0.0454898327589035
1716736842298947300,12.086947265625,9.794978141784668,0.043095629662275314,0.05027823522686958
1716736842308947500,12.096947509765625,9.787796020507812,0.043095629662275314,0.05746084079146385
1716736842318947300,12.106947265625,9.787796020507812,0.05506663769483566,0.05506663769483566
1716736842328947500,12.116947509765625,9.785401344299316,0.047884032130241394,0.05746084079146385
1716736842338947300,12.126947265625,9.783007621765137,0.05267243832349777,0.05027823522686958
1716736842348947500,12.136947509765625,9.806949615478516,0.047884032130241394,0.05267243832349777
1716736842358947300,12.146947265625,9.792584419250488,0.05985504388809204,0.07182604819536209
1716736842368947500,12.156947509765626,9.787796020507812,0.0454898327589035,0.05027823522686958
1716736842378947300,12.166947265625,9.792584419250488,0.043095629662275314,0.0694318488240242
1716736842388947500,12.176947509765625,9.792584419250488,0.05267243832349777,0.05267243832349777
1716736842398947300,12.186947265625,9.787796020507812,0.05267243832349777,0.033518824726343155
1716736842408947500,12.196947509765625,9.783007621765137,0.05027823522686958,0.05027823522686958
1716736842418947300,12.206947265625,9.78061294555664,0.040701430290937424,0.0454898327589035
1716736842428947500,12.216947509765625,9.790189743041992,0.023942016065120697,0.040701430290937424
1716736842438947300,12.226947265625,9.783007621765137,0.047884032130241394,0.038307227194309235
1716736842448947500,12.236947509765624,9.783007621765137,0.0454898327589035,0.06224924325942993
1716736842458947300,12.246947265625,9.790189743041992,0.031124621629714966,0.038307227194309235
1716736842468947500,12.256947509765626,9.794978141784668,0.035913024097681046,0.06224924325942993
1716736842478947300,12.266947265625,9.799766540527344,0.05027823522686958,0.047884032130241394
1716736842488947500,12.276947509765625,9.792584419250488,0.05985504388809204,0.05027823522686958
1716736842498947300,12.286947265625,9.787796020507812,0.043095629662275314,0.06224924325942993
1716736842508947500,12.296947509765625,9.787796020507812,0.0454898327589035,0.05746084079146385
1716736842518947300,12.306947265625,9.783007621765137,0.031124621629714966,0.05746084079146385
1716736842528947500,12.316947509765624,9.785401344299316,0.043095629662275314,0.05506663769483566
1716736842538947300,12.326947265625,9.790189743041992,0.040701430290937424,0.06224924325942993
1716736842548947500,12.336947509765626,9.790189743041992,0.040701430290937424,0.06703764945268631
1716736842558947300,12.346947265625,9.797372817993164,0.040701430290937424,0.05267243832349777
1716736842568947500,12.356947509765625,9.783007621765137,0.0694318488240242,0.05985504388809204
1716736842578947300,12.366947265625,9.790189743041992,0.05506663769483566,0.05267243832349777
1716736842588947500,12.376947509765625,9.80216121673584,0.043095629662275314,0.05027823522686958
1716736842598947300,12.386947265625,9.792584419250488,0.033518824726343155,0.043095629662275314
1716736842608947500,12.396947509765624,9.78061294555664,0.05027823522686958,0.05267243832349777
1716736842618947300,12.406947265625,9.785401344299316,0.05506663769483566,0.05027823522686958
1716736842628947500,12.416947509765626,9.790189743041992,0.05267243832349777,0.047884032130241394
1716736842638947300,12.426947265625,9.778219223022461,0.047884032130241394,0.021547814831137657
1716736842648947500,12.436947509765625,9.905111312866211,0.05746084079146385,0.0454898327589035
1716736842658947300,12.446947265625,9.840468406677246,0.0454898327589035,0.05506663769483566
1716736842668947500,12.456947509765625,9.742305755615234,0.05746084079146385,0.06703764945268631
1716736842678947300,12.466947265625,9.759065628051758,0.040701430290937424,0.06224924325942993
1716736842688947500,12.476947509765624,9.850045204162598,0.043095629662275314,0.047884032130241394
1716736842698947300,12.486947265625,9.809343338012695,0.043095629662275314,0.06224924325942993
1716736842708947500,12.496947509765626,9.763854026794434,0.0454898327589035,0.07182604819536209
1716736842718947300,12.506947265625,9.771036148071289,0.0454898327589035,0.0694318488240242
1716736842728947500,12.516947509765625,9.799766540527344,0.06224924325942993,0.05985504388809204
1716736842738947300,12.526947265625,9.806949615478516,0.043095629662275314,0.047884032130241394
1716736842748947500,12.536947509765625,9.763854026794434,0.043095629662275314,0.043095629662275314
1716736842758947300,12.546947265625,9.76864242553711,0.040701430290937424,0.05267243832349777
1716736842768947500,12.556947509765624,9.792584419250488,0.0454898327589035,0.047884032130241394
1716736842778947300,12.566947265625,9.790189743041992,0.05985504388809204,0.043095629662275314
1716736842788947500,12.576947509765626,9.773430824279785,0.043095629662275314,0.047884032130241394
1716736842798947300,12.586947265625,9.778219223022461,0.05746084079146385,0.047884032130241394
1716736842808947500,12.596947509765625,9.792584419250488,0.043095629662275314,0.0454898327589035
1716736842818947300,12.606947265625,9.799766540527344,0.043095629662275314,0.05267243832349777
1716736842828947500,12.616947509765625,9.763854026794434,0.040701430290937424,0.040701430290937424
1716736842838947300,12.626947265625,9.773430824279785,0.05267243832349777,0.05746084079146385
1716736842848947500,12.636947509765625,9.785401344299316,0.035913024097681046,0.043095629662275314
1716736842858947300,12.646947265625,9.794978141784668,0.05746084079146385,0.0694318488240242
1716736842868947500,12.656947509765626,9.766247749328613,0.038307227194309235,0.07182604819536209
1716736842878947300,12.666947265625,9.763854026794434,0.05027823522686958,0.07422025501728058
1716736842888947500,12.676947509765625,9.794978141784668,0.0454898327589035,0.05027823522686958
1716736842898947300,12.686947265625,9.799766540527344,0.047884032130241394,0.05746084079146385
1716736842908947500,12.696947509765625,9.773430824279785,0.038307227194309235,0.05746084079146385
1716736842918947300,12.706947265625,9.792584419250488,0.0454898327589035,0.05506663769483566
1716736842928947500,12.716947509765625,9.792584419250488,0.05506663769483566,0.05506663769483566
1716736842938947300,12.726947265625,9.783007621765137,0.043095629662275314,0.0694318488240242
1716736842948947500,12.736947509765624,9.773430824279785,0.06464344263076782,0.05506663769483566
1716736842958947300,12.746947265625,9.763854026794434,0.07182604819536209,0.06224924325942993
1716736842968947500,12.756947509765626,9.80216121673584,0.06703764945268631,0.0454898327589035
1716736842978947300,12.766947265625,9.799766540527344,0.05267243832349777,0.0454898327589035
1716736842988947500,12.776947509765625,9.775824546813965,0.035913024097681046,0.0454898327589035
1716736842998947300,12.786947265625,9.778219223022461,0.043095629662275314,0.05506663769483566
1716736843008947500,12.796947509765625,9.783007621765137,0.035913024097681046,0.043095629662275314
1716736843018947300,12.806947265625,9.787796020507812,0.05746084079146385,0.05506663769483566
1716736843028947500,12.816947509765624,9.771036148071289,0.05985504388809204,0.026336219161748886
1716736843038947300,12.826947265625,9.78061294555664,0.05267243832349777,0.035913024097681046
1716736843048947500,12.836947509765626,9.778219223022461,0.043095629662275314,0.07182604819536209
1716736843058947300,12.846947265625,9.783007621765137,0.040701430290937424,0.0694318488240242
1716736843068947500,12.856947509765625,9.790189743041992,0.033518824726343155,0.06703764945268631
1716736843078947300,12.866947265625,9.771036148071289,0.033518824726343155,0.05506663769483566
1716736843088947500,12.876947509765625,9.783007621765137,0.05746084079146385,0.06224924325942993
1716736843098947300,12.886947265625,9.78061294555664,0.06224924325942993,0.06703764945268631
1716736843108947500,12.896947509765624,9.790189743041992,0.05506663769483566,0.06224924325942993
1716736843118947300,12.906947265625,9.778219223022461,0.040701430290937424,0.06464344263076782
1716736843128947500,12.916947509765626,9.775824546813965,0.043095629662275314,0.05746084079146385
1716736843138947300,12.926947265625,9.794978141784668,0.035913024097681046,0.043095629662275314
1716736843148947500,12.936947509765625,9.790189743041992,0.05746084079146385,0.05027823522686958
1716736843158947300,12.946947265625,9.775824546813965,0.05506663769483566,0.043095629662275314
1716736843168947500,12.956947509765625,9.778219223022461,0.05267243832349777,0.033518824726343155
1716736843178947300,12.966947265625,9.790189743041992,0.05985504388809204,0.047884032130241394
1716736843188947500,12.976947509765624,9.775824546813965,0.038307227194309235,0.038307227194309235
1716736843198947300,12.986947265625,9.778219223022461,0.06464344263076782,0.043095629662275314
