time,seconds_elapsed,z,y,x
1717858104402186200,0.107186279296875,0.0006548785604536533,0.008674310520291328,0.0010380912572145462
1717858104412227000,0.11722705078125,0.00039703911170363426,-0.005261658225208521,-0.000558274332433939
1717858104422268200,0.12726806640625,0.0005515026859939098,-0.007565558888018131,-0.002915704622864723
1717858104432308000,0.137307861328125,-0.00009701796807348728,0.0016887681558728218,0.0017161043360829353
1717858104442349000,0.14734912109375,-0.0006144701037555933,0.006952505558729172,0.002571511548012495
1717858104452389000,0.15738916015625,0.0008485610596835613,-0.0021197786554694176,0.0005177329294383526
1717858104462430000,0.167429931640625,0.0007542851381003857,-0.006802680902183056,-0.0010442109778523445
1717858104472470000,0.177469970703125,-0.00033029750920832157,-0.001421373337507248,-0.0002192188985645771
1717858104482511000,0.187510986328125,0.00006012176163494587,0.00388923566788435,0.0004162113182246685
1717858104492552400,0.197552490234375,0.0007696757093071938,0.0011333674192428589,0.0008290237747132778
1717858104502592500,0.207592529296875,0.00037978915497660637,-0.0045335725881159306,-0.002126019448041916
1717858104512633600,0.217633544921875,-0.00038538104854524136,-0.0018913564272224903,-0.00047063082456588745
1717858104522673700,0.227673583984375,0.0007054496090859175,0.0026594530791044235,0.0007182043045759201
1717858104532714500,0.237714599609375,-0.0000957101583480835,0.0029478082433342934,0.001059897243976593
1717858104542754600,0.247754638671875,0.0000686070416122675,-0.0033457735553383827,-0.0007230890914797783
1717858104552795600,0.257795654296875,-0.00008730823174118996,-0.0014357245527207851,-0.0002866191789507866
1717858104562835500,0.26783544921875,-0.0007251354400068521,0.0031355908140540123,0.0007213875651359558
1717858104572876500,0.27787646484375,0.0007010023109614849,0.0013186940923333168,0.00025700079277157784
1717858104582917400,0.28791748046875,0.000884227454662323,-0.0010757539421319962,0.0005616662092506886
1717858104592957400,0.29795751953125,0.001878662733361125,-0.0015648226253688335,-0.00027251290157437325
1717858104602998500,0.30799853515625,0.0007441558409482241,0.0010607875883579254,0.0009235125035047531
1717858104613038600,0.31803857421875,-0.0010227393358945847,0.0003868835046887398,0.0012793643400073051
1717858104623079400,0.328079345703125,-0.0007724021561443806,0.000918717123568058,-0.0011467752046883106
1717858104633119500,0.338119384765625,0.0008647209033370018,-0.0007037101313471794,0.00003009941428899765
1717858104643160600,0.34816064453125,-0.0006120018661022186,0.000041175633668899536,0.0011374414898455143
1717858104653200600,0.35820068359375,-0.00035795755684375763,0.0010963203385472298,0.0005824388936161995
1717858104663241700,0.36824169921875,-0.0002796605695039034,0.00009976513683795929,-0.0007446142844855785
1717858104673282600,0.378282470703125,-0.00005684071220457554,-0.0002129608765244484,0.0006077103316783905
1717858104683322400,0.388322265625,0.0004978957585990429,0.00017745885998010635,-0.00008764071390032768
1717858104693363700,0.39836376953125,-0.001018831506371498,0.00022842548787593842,0.0006292867474257946
1717858104703403500,0.408403564453125,-0.0003234799951314926,-0.00012391060590744019,0.001049267128109932
1717858104713444400,0.4184443359375,-0.00023598619736731052,-0.000363033264875412,-0.0001763422042131424
1717858104723484400,0.428484375,0.0013323493767529726,0.0013970499858260155,-0.00020883278921246529
1717858104733525500,0.438525390625,-0.0009604587685316801,0.0002230694517493248,0.00024794600903987885
1717858104743566600,0.448566650390625,-0.00007335981354117393,-0.000292251817882061,-0.00036298343911767006
1717858104753606700,0.458606689453125,0.002542952774092555,-0.0002984069287776947,0.0010820715688169003
1717858104763647500,0.4686474609375,0.000929609639570117,-0.0011607380583882332,0.0013864710927009583
1717858104773687600,0.4786875,-0.0019849997479468584,0.0007051313295960426,0.000008770264685153961
1717858104783728600,0.488728759765625,0.0012874924577772617,-0.0007817111909389496,-0.0012429156340658665
1717858104793768700,0.498768798828125,0.0009398979600518942,-0.00030105188488960266,0.0006952839903533459
1717858104803809500,0.5088095703125,-0.00039461185224354267,0.0009849881753325462,0.0006010080687701702
1717858104813850600,0.5188505859375,0.001617638859897852,-0.00122770294547081,-0.000655048992484808
1717858104823890400,0.528890380859375,-0.0006673531606793404,0.0006170691922307014,0.00067120511084795
1717858104833931500,0.538931640625,-0.00037405360490083694,0.0007812976837158203,-0.0008061397820711136
1717858104843971600,0.5489716796875,0.0005047894082963467,0.000022829510271549225,0.000005325768142938614
1717858104854012400,0.559012451171875,0.00003199069760739803,0.0012407992035150528,0.00016354862600564957
1717858104864052500,0.569052490234375,0.0006479797884821892,0.0005078976973891258,0.00237823324277997
1717858104874093600,0.579093505859375,0.0011023315601050854,0.0005360208451747894,0.0006056474521756172
1717858104884134700,0.589134765625,-0.0003871745429933071,-0.0003462843596935272,0.0015902183949947357
1717858104894174500,0.599174560546875,-0.001812223345041275,0.00037863943725824356,0.00021417811512947083
1717858104904215600,0.609215576171875,0.0001140411477535963,-0.0008032713085412979,-0.0005517471581697464
1717858104914255600,0.619255615234375,-0.00008248165249824524,-0.0003395974636077881,0.00022091064602136612
1717858104924296700,0.629296630859375,-0.0006414791569113731,0.00048571638762950897,-0.0005833636969327927
1717858104934336800,0.639336669921875,0.00013870908878743649,0.001002635806798935,0.00021047843620181084
1717858104944377600,0.649377685546875,-0.00022214907221496105,0.0007744031026959419,0.0005268617533147335
1717858104954417400,0.65941748046875,0.00129450554959476,-0.0010348837822675705,-0.00009283935651183128
1717858104964458500,0.66945849609375,0.00002870522439479828,-0.0005360739305615425,0.0003234129399061203
1717858104974499600,0.67949951171875,0.0010781718883663416,0.0008533457294106483,-0.00031320424750447273
1717858104984539400,0.689539306640625,-0.0011210665106773376,-0.0007211156189441681,0.0011043963022530079
1717858104994580500,0.69958056640625,-0.00032774615101516247,-0.0008376678451895714,-0.00028677191585302353
1717858105004620500,0.70962060546875,0.0008672140538692474,0.000006021931767463684,0.0010565263219177723
1717858105014661600,0.71966162109375,0.0001008911058306694,0.0002611186355352402,-0.0006280746310949326
1717858105024702500,0.729702392578125,-0.00007967115379869938,-0.0007594050839543343,0.0006909891963005066
1717858105034742500,0.739742431640625,-0.00010846462100744247,-0.0008716108277440071,-0.00007891515269875526
1717858105044783600,0.74978369140625,0.0004723707679659128,0.0004216209053993225,0.0008824863471090794
1717858105054823700,0.75982373046875,0.000397013733163476,-0.0002511152997612953,0.00010506948456168175
1717858105064864500,0.769864501953125,-0.0011233850382268429,0.0010530343279242516,0.0009570145048201084
1717858105074904300,0.779904296875,0.0013756409753113985,-0.0009805522859096527,0.00032952940091490746
1717858105084945400,0.7899453125,-0.0002342399675399065,-0.00042901095002889633,0.00017852801829576492
1717858105094985500,0.7999853515625,0.0015447183977812529,-0.0014585582539439201,-0.0011433036997914314
1717858105105026600,0.810026611328125,-0.00045717996545135975,-0.0004244530573487282,0.0001613791100680828
1717858105115067400,0.8200673828125,-0.00042404327541589737,-0.0004900963976979256,0.0012240400537848473
1717858105125107500,0.830107421875,-0.0004216462839394808,0.0001551872119307518,-0.0005091452039778233
1717858105135148500,0.8401484375,-0.0010414104908704758,-0.001475268043577671,0.00010900618508458138
1717858105145188600,0.850188720703125,-0.0002041126135736704,0.0018158666789531708,0.0014983774162828922
1717858105155229700,0.860229736328125,-0.0010704949963837862,0.0008897734805941582,-0.000341945793479681
1717858105165269500,0.87026953125,0.000279461033642292,-0.0003765588626265526,0.00002903258427977562
1717858105175310600,0.880310546875,0.000552046112716198,-0.00009922031313180923,-0.00028509367257356644
1717858105185351700,0.8903515625,-0.00047699944116175175,0.00048401206731796265,-0.0004371604882180691
1717858105195391700,0.900391845703125,0.0004929539281874895,0.00010875891894102097,0.0005614738911390305
1717858105205432600,0.9104326171875,0.0005930888000875711,-0.0010915277525782585,-0.0002443986013531685
1717858105215472400,0.920472412109375,0.001277749426662922,-0.0018674456514418125,-0.00028549274429678917
1717858105225513500,0.930513427734375,-0.00009138183668255806,0.00043858494609594345,0.00039574364200234413
1717858105235553500,0.940553466796875,0.00022599473595619202,-0.0014101536944508553,0.00036064861342310905
1717858105245594600,0.9505947265625,-0.00043926271609961987,-0.00002744048833847046,0.0006589223630726337
1717858105255635500,0.960635498046875,-0.0003033401444554329,-0.0001930808648467064,0.0006440537981688976
1717858105265675500,0.970675537109375,0.0004964072722941637,-0.0006205178797245026,-0.00019351020455360413
1717858105275716600,0.980716552734375,0.0013966138940304518,0.0005766041576862335,0.00034992676228284836
1717858105285756700,0.990756591796875,0.0002684991341084242,-0.0017965384759008884,-0.0005968273617327213
1717858105295797500,1.000797607421875,-0.0011093211360275745,-0.0016265022568404675,0.00027409521862864494
1717858105305837600,1.010837646484375,0.000008940231055021286,0.0005311910063028336,-0.000046016648411750793
1717858105315878700,1.020878662109375,-0.0011770359706133604,0.0003579249605536461,0.0007808860391378403
1717858105325919700,1.030919677734375,-0.000598330982029438,-0.000707872211933136,0.0003177621401846409
1717858105335959600,1.04095947265625,0.0005606398917734623,0.0006942972540855408,-0.00027440162375569344
1717858105346000400,1.05100048828125,-0.0006588215474039316,0.0001896284520626068,-0.0007596295326948166
1717858105356040400,1.06104052734375,0.000716047827154398,0.0003897985443472862,0.0005268296226859093
1717858105366081500,1.07108154296875,-0.0006972916889935732,-0.0010123560205101967,-0.0004638661630451679
1717858105376121600,1.08112158203125,0.0000340344849973917,-0.00010329391807317734,-0.0003954418934881687
1717858105386162400,1.091162353515625,-0.0009087244980037212,0.0004487792029976845,-0.001191460993140936
1717858105396203500,1.10120361328125,0.0007856548763811588,-0.0002130633220076561,0.0005727815441787243
1717858105406243600,1.11124365234375,0.0005238661542534828,-0.0012226682156324387,-0.00025519542396068573
1717858105416284700,1.12128466796875,-0.0002400907687842846,0.00018486101180315018,0.0004174928180873394
1717858105426324500,1.131324462890625,-0.0005809755530208349,0.0010482575744390488,0.0007469258271157742
1717858105436365600,1.141365478515625,-0.0006229830905795097,-0.0010985825210809708,0.00007872935384511948
1717858105446405600,1.151405517578125,-0.00008316035382449627,0.00006521958857774734,-0.0008017118088901043
1717858105456446700,1.16144677734375,0.0016656052321195602,0.0008467333391308784,-0.0009855017997324467
1717858105466487600,1.171487548828125,0.0010578716173768044,0.00005018245428800583,-0.0005056001245975494
1717858105476527400,1.18152734375,0.000355742871761322,0.00008790474385023117,-0.00120492372661829
1717858105486568400,1.191568359375,-0.00016197538934648037,0.000001884065568447113,0.00041214749217033386
1717858105496608000,1.20160791015625,0.000327336136251688,-0.0005674567073583603,0.00038798945024609566
1717858105506649000,1.211649169921875,0.0008242819458246231,0.00013481918722391129,0.0005504423752427101
1717858105516689000,1.22168896484375,-0.0003295382484793663,-0.00019950326532125473,-0.00037644384428858757
1717858105526729700,1.231729736328125,0.0008377253543585539,0.0005744108930230141,-0.0009612743742763996
1717858105536770800,1.241770751953125,0.001251485664397478,-0.0008788099512457848,-0.0012859874404966831
1717858105546811000,1.251810791015625,-0.0016018247697502375,-0.0006010429933667183,-0.00006199860945343971
1717858105556852000,1.26185205078125,-0.0021882704459130764,-0.00046938005834817886,0.0010188412852585316
1717858105566892000,1.27189208984375,0.001455200370401144,-0.0005846954882144928,-0.00022139260545372963
1717858105576932900,1.281932861328125,0.0013662504497915506,-0.0010488610714673996,-0.0005623986944556236
1717858105586973000,1.291972900390625,0.0011087229941040277,-0.0010003922507166862,-0.0005658608861267567
1717858105597014000,1.302013916015625,-0.0003859233111143112,-0.0005926415324211121,0.0005957768298685551
1717858105607054800,1.312054931640625,0.0003698817454278469,-0.0008461745455861092,-0.0006234184838831425
1717858105617095000,1.322094970703125,0.0009554694406688213,0.0009886464104056358,-0.001155999954789877
1717858105627136000,1.332135986328125,0.00014027603901922703,0.0007979637011885643,-0.000836420338600874
1717858105637176000,1.342176025390625,-0.0004610838368535042,-0.00014993268996477127,0.00002920161932706833
1717858105647217200,1.352217041015625,0.0005320091731846333,-0.0005203783512115479,0.0008302805945277214
1717858105657257000,1.362257080078125,0.0013124111574143171,0.00012435391545295715,0.0002448670566082001
1717858105667297800,1.3722978515625,-0.001509474590420723,-0.0006184019148349762,0.0006589884869754314
1717858105677339000,1.3823388671875,0.0012237378396093845,-0.00001141522079706192,0.0011716843582689762
1717858105687379000,1.39237890625,-0.0004263566806912422,-0.0002199411392211914,0.0003479686565697193
1717858105697419800,1.402419677734375,-0.0004354508128017187,0.00005263183265924454,-0.00016009481623768806
1717858105707459800,1.4124599609375,0.0012018606066703796,-0.0007236795499920845,0.00020475825294852257
1717858105717501000,1.4225009765625,0.0005016967188566923,-0.0002025458961725235,0.0010528354905545712
1717858105727541000,1.432541015625,0.00010621757246553898,0.0007077232003211975,-0.0006555826403200626
1717858105737582000,1.44258203125,-0.000031960196793079376,-0.0005977023392915726,0.0004960484802722931
1717858105747623000,1.452622802734375,-0.00048629543744027615,-0.00149838300421834,0.0004635578952729702
1717858105757663000,1.4626630859375,0.0008154921233654022,-0.0005811043083667755,-0.0002952003851532936
1717858105767704000,1.4727041015625,-0.0018322223331779242,0.0014524860307574272,0.0013253330253064632
1717858105777744000,1.482743896484375,0.0007102414965629578,0.0019906656816601753,0.0013714455999433994
1717858105787784700,1.49278466796875,-0.00144239142537117,0.0014606965705752373,0.0005954005755484104
1717858105797824800,1.50282470703125,0.0008996645919978619,-0.004818269517272711,-0.0004837745800614357
1717858105807865900,1.512865966796875,0.0004091104492545128,-0.0019535073079168797,-0.000006802380084991455
1717858105817907000,1.522906982421875,-0.001228621695190668,0.003759070299565792,0.0031640774104744196
1717858105827947000,1.532947021484375,-0.00037268176674842834,0.0020274827256798744,-0.00020455475896596909
1717858105837987800,1.54298779296875,0.000216697808355093,-0.002837184816598892,-0.0015126587823033333
1717858105848028000,1.55302783203125,0.0014063320122659206,0.0003471570089459419,-0.0012838933616876602
1717858105858069000,1.563069091796875,-0.0007681695278733969,0.0025531910359859467,0.001289700623601675
1717858105868109000,1.573109130859375,0.0003463632892817259,0.0004213303327560425,-0.000563859473913908
1717858105878150000,1.58314990234375,0.0013060963246971369,-0.0011698976159095764,-0.00031855469569563866
1717858105888191000,1.59319091796875,0.0008514949586242437,-0.0008702920749783516,-0.0005494509823620319
1717858105898231000,1.60323095703125,0.0004861135967075825,0.0010024979710578918,-0.00025598425418138504
1717858105908272000,1.613272216796875,0.00022325944155454636,0.0021697618067264557,0.001096369232982397
1717858105918312000,1.62331201171875,0.00015262048691511154,-0.0009840074926614761,-0.0003377399407327175
1717858105928352800,1.633352783203125,-0.002463668817654252,0.0007936526089906693,0.0003448282368481159
1717858105938392800,1.643392822265625,-0.000051445094868540764,0.0004444476217031479,-0.0001470590941607952
1717858105948434000,1.653433837890625,-0.0002855369821190834,-0.00003838352859020233,-0.00011989474296569824
1717858105958474000,1.663473876953125,0.0001949886791408062,-0.0007457826286554337,0.0004848460666835308
1717858105968514800,1.673514892578125,-0.00011234031990170479,-0.0012824097648262978,0.0017842021770775318
1717858105978556000,1.683555908203125,0.001591142499819398,0.00038079172372817993,0.0015416783280670643
1717858105988596000,1.693595947265625,0.00014637759886682034,0.0010332660749554634,0.0008276845328509808
1717858105998637000,1.703636962890625,0.0015578130260109901,0.00047794729471206665,0.00023232027888298035
1717858106008677000,1.713677001953125,0.0012214560993015766,-0.00016733631491661072,-0.00130405742675066
1717858106018718000,1.723718017578125,0.001277437899261713,-0.00046364404261112213,0.0003408086486160755
1717858106028757800,1.7337578125,0.000012170057743787766,0.00042931362986564636,-0.0005878359079360962
1717858106038798800,1.743798828125,-0.0014281480107456446,0.0010337037965655327,0.00017996085807681084
1717858106048839700,1.753839599609375,-0.00008112099021673203,-0.0010669976472854614,0.0004726420156657696
1717858106058879700,1.763879638671875,0.0005882107652723789,-0.00014860555529594421,-0.00018844939768314362
1717858106068920800,1.7739208984375,0.0012430823408067226,0.001277250237762928,0.0008078389801084995
1717858106078961000,1.7839609375,0.00048385513946413994,0.0003998642787337303,-0.0003040991723537445
1717858106089002000,1.794001953125,0.0006827930919826031,-0.0000819014385342598,0.0003803330473601818
1717858106099042000,1.8040419921875,-0.0013247025199234486,-0.0021254667080938816,-0.0006444086320698261
1717858106109083000,1.814082763671875,-0.0008743619546294212,0.0010610055178403854,-0.0009304317645728588
1717858106119124000,1.8241240234375,-0.0011195247061550617,-0.0010506175458431244,0.0005727647803723812
1717858106129164000,1.8341640625,0.00035213795490562916,-0.001455951016396284,-0.000004075933247804642
1717858106139204900,1.844204833984375,0.0002844457048922777,-0.0005210870876908302,-0.0000994531437754631
1717858106149245000,1.854244873046875,-0.0001682913862168789,0.0014014486223459244,0.0011897827498614788
1717858106159286000,1.8642861328125,0.0015350673347711563,0.0007232772186398506,0.001063710544258356
1717858106169325800,1.874325927734375,0.00040535442531108856,-0.0013183020055294037,0.00028153974562883377
1717858106179367000,1.884366943359375,0.0011265280190855265,-0.0010726256296038628,0.0016132444143295288
1717858106189407700,1.89440771484375,-0.0005470023024827242,0.0013322094455361366,0.000513625331223011
1717858106199447800,1.90444775390625,0.00022403337061405182,-0.00032116472721099854,0.00004537729546427727
1717858106209489000,1.914489013671875,-0.00031845271587371826,-0.0007568569853901863,0.00028426293283700943
1717858106219529000,1.924529052734375,-0.00014240248128771782,-0.0007119374349713326,-0.0000025122426450252533
1717858106229569800,1.93456982421875,0.0008773219306021929,0.0005948757752776146,-0.00005151471123099327
1717858106239611000,1.94461083984375,0.0014519807882606983,-0.000034207478165626526,0.0006154077127575874
1717858106249651000,1.95465087890625,-0.0001967824064195156,-0.0007633809000253677,0.000030844006687402725
1717858106259692000,1.964692138671875,-0.0008629150688648224,-0.0004436308518052101,-0.0003131949342787266
1717858106269732000,1.974732177734375,0.0006550864782184362,0.001415788196027279,-0.0005739186890423298
1717858106279773000,1.98477294921875,0.0018410002812743187,0.0007947003468871117,-0.0007632756605744362
1717858106289813000,1.99481298828125,-0.0009683682583272457,-0.001963535323739052,0.0009376853704452515
1717858106299854000,2.00485400390625,0.0016904596704989672,0.0002993280068039894,-0.0009533525444567204
1717858106309895000,2.01489501953125,0.0018033774103969336,0.0015504807233810425,0.0011388268321752548
1717858106319934700,2.024934814453125,-0.00028899824246764183,-0.000013736076653003693,0.000958775170147419
1717858106329975800,2.034975830078125,-0.00028606876730918884,-0.001709104049950838,-0.0005858582444489002
1717858106340015900,2.045015869140625,0.00022546574473381042,-0.000830342061817646,0.000386606901884079
1717858106350057000,2.055056884765625,0.00017193634994328022,0.0003449106588959694,0.0006342809647321701
1717858106360097000,2.065096923828125,-0.0002954506780952215,-0.0001500248908996582,-0.00023286137729883194
1717858106370137900,2.075137939453125,0.00033332197926938534,0.00020311027765274048,0.0011844728142023087
1717858106380179000,2.085178955078125,0.0025228853337466717,0.0005891080945730209,0.00019524665549397469
1717858106390219000,2.095218994140625,0.001150558702647686,0.0007124124094843864,-0.002005056943744421
1717858106400260000,2.105260009765625,0.0006844638846814632,-0.0005051819607615471,0.0003899168223142624
1717858106410300000,2.1152998046875,-0.0002148859202861786,-0.0002007829025387764,0.0008610300719738007
1717858106420341000,2.125341064453125,-0.00029784999787807465,0.00033830106258392334,0.0003791758790612221
1717858106430380800,2.135380859375,0.0012672897428274155,0.0007452322170138359,-0.0006341566331684589
1717858106440422000,2.145421875,0.001543788705021143,0.0009833071380853653,0.00020904652774333954
1717858106450462700,2.155462646484375,-0.0004570439923554659,-0.0011978214606642723,-0.0002860347740352154
1717858106460502800,2.165502685546875,0.0007213624194264412,-0.0001542968675494194,-0.0016776621341705322
1717858106470544000,2.1755439453125,-0.00015668198466300964,0.0005474463105201721,0.0005122553557157516
1717858106480584000,2.185583984375,-0.0007869929540902376,-0.0009885216131806374,0.0006350316107273102
1717858106490625000,2.195625,0.0006436570547521114,-0.000650833360850811,-0.0010361019521951675
1717858106500664800,2.205664794921875,0.00040306802839040756,-0.00024861935526132584,-0.0007698633708059788
1717858106510706000,2.215705810546875,0.000885366927832365,0.0004967991262674332,0.0005745002999901772
1717858106520747000,2.2257470703125,-0.000004707835614681244,-0.0010906029492616653,-0.0013864655047655106
1717858106530787000,2.235787109375,0.0007479016203433275,-0.0013460004702210426,-0.000803499948233366
1717858106540828000,2.245827880859375,0.0008487028535455465,0.00043399445712566376,-0.00009397929534316063
1717858106550868000,2.255867919921875,-0.0007561182137578726,0.0003700787201523781,-0.00013659009709954262
1717858106560909000,2.265908935546875,-0.0015569268725812435,-0.0007990719750523567,0.0009556375443935394
1717858106570949000,2.27594921875,-0.0006445278413593769,-0.0007292972877621651,-0.0001381225883960724
1717858106580990000,2.285989990234375,-0.0004085192922502756,0.0023339856415987015,0.00022709928452968597
1717858106591031000,2.296031005859375,-0.00004792725667357445,0.0008822968229651451,0.001262802630662918
1717858106601071000,2.306071044921875,-0.0011504024732857943,-0.00003146473318338394,0.000027676578611135483
1717858106611112200,2.3161123046875,0.0001337737776339054,-0.0011910051107406616,0.0002958569675683975
1717858106621152300,2.32615234375,-0.000027009518817067146,-0.00013782083988189697,0.00017515849322080612
1717858106631193000,2.336193115234375,0.0008499696850776672,-0.000030761584639549255,-0.0005689286626875401
1717858106641233000,2.34623291015625,0.0012645716778934002,-0.00022556167095899582,0.0008113761432468891
1717858106651274000,2.35627392578125,0.0011242227628827095,-0.0004402119666337967,0.0004944601096212864
1717858106661315000,2.366315185546875,0.0000027674250304698944,-0.0012910142540931702,-0.0002898755483329296
1717858106671355100,2.376355224609375,-0.0004821943584829569,-0.0002699587494134903,0.0005167960189282894
1717858106681396000,2.38639599609375,-0.0013804424088448286,-0.0008680354803800583,-0.0018421937711536884
1717858106691436000,2.39643603515625,0.00039242394268512726,0.0005295919254422188,-0.000399027019739151
1717858106701477000,2.40647705078125,-0.00013827020302414894,-0.0004150019958615303,-0.001017996110022068
1717858106711517200,2.41651708984375,0.000384508166462183,0.0004681013524532318,-0.00033010169863700867
1717858106721558000,2.42655810546875,0.0013436605222523212,-0.0008073374629020691,-0.0006687906570732594
1717858106731599000,2.43659912109375,0.0010499139316380024,-0.0014084125868976116,0.0007498753257095814
1717858106741639200,2.44663916015625,0.000742955831810832,0.001009862869977951,-0.001284327358007431
1717858106751680300,2.45668017578125,-0.00016278517432510853,0.0018506227061152458,-0.00013703759759664536
1717858106761720000,2.466719970703125,0.001608995720744133,0.0010295631363987923,0.0006484794430434704
1717858106771761000,2.476760986328125,-0.0011630887165665627,0.004074621945619583,0.0012064115144312382
1717858106781801000,2.486801025390625,0.0009600890334695578,0.002924230881035328,0.0023024205584079027
1717858106791842000,2.496842041015625,-0.00010091415606439114,-0.0025243298150599003,-0.002127481624484062
1717858106801883000,2.5068828125,0.0003802594728767872,-0.004045598674565554,-0.001641460694372654
1717858106811923000,2.5169228515625,0.000009281327947974205,0.0016264021396636963,0.00106004998087883
1717858106821964000,2.526964111328125,-0.0007490955758839846,0.0037183407694101334,0.001188922207802534
1717858106832004000,2.537004150390625,-0.0016859956085681915,0.0014256257563829422,0.0008222050964832306
1717858106842045200,2.547045166015625,0.000013003125786781311,-0.002532324753701687,-0.0008462388068437576
1717858106852085000,2.5570849609375,-0.000013362150639295578,-0.004043135792016983,-0.000998837873339653
1717858106862126000,2.5671259765625,-0.000588276656344533,0.0038283495232462883,0.0005883499979972839
1717858106872167200,2.577167236328125,0.0002599400468170643,0.0059788525104522705,0.001160663552582264
1717858106882207200,2.587207275390625,0.00030676834285259247,-0.0006480300799012184,-0.00027114618569612503
1717858106892248000,2.597248046875,0.00025670090690255165,-0.0033061313442885876,-0.0009422628208994865
1717858106902288000,2.607287841796875,0.0014303228817880154,-0.0006550289690494537,0.0005067484453320503
1717858106912329000,2.617328857421875,-0.00009007565677165985,0.004938141442835331,0.0006774566136300564
1717858106922369000,2.627369140625,0.0001735773403197527,0.0007822159677743912,0.000013849698007106781
1717858106932410000,2.63741015625,0.00007157842628657818,-0.003371515776962042,-0.0006815013475716114
1717858106942451000,2.647450927734375,-0.00004762131720781326,0.00042266491800546646,-0.0015243394300341606
1717858106952491000,2.657490966796875,-0.0004026207607239485,0.001249575987458229,-0.0012071565724909306
1717858106962532000,2.667531982421875,-0.00008478807285428047,0.0015264255926012993,0.0009573129937052727
1717858106972572200,2.677572265625,0.0010704912710934877,0.0006260108202695847,0.0005618338473141193
1717858106982613000,2.687613037109375,0.0011095311492681503,-0.001705927774310112,-0.0011598807759582996
1717858106992654000,2.697654052734375,-0.0012233979068696499,0.00003338325768709183,0.0009096618741750717
1717858107002694100,2.707694091796875,0.000029531074687838554,-0.0004871869459748268,0.0008982992731034756
1717858107012735200,2.7177353515625,0.00034298538230359554,-0.0003750678151845932,-0.0017430237494409084
1717858107022775000,2.727775146484375,-0.0009751557372510433,-0.000048945657908916473,-0.00041339267045259476
1717858107032815900,2.73781591796875,-0.0001929854042828083,0.0007609212771058083,-0.0006956877186894417
1717858107042856000,2.74785595703125,-0.0009610217530280352,0.0005855327472090721,0.00027016084641218185
1717858107052897000,2.75789697265625,0.00024272711016237736,-0.0011665606871247292,-0.00020521320402622223
1717858107062937900,2.767937744140625,0.0009724155534058809,0.0007641920819878578,0.00013759173452854156
1717858107072978000,2.77797802734375,0.00026907515712082386,0.0013767192140221596,0.00023719388991594315
1717858107083019000,2.78801904296875,-0.0007425711955875158,-0.0011334875598549843,-0.0003634733147919178
1717858107093059000,2.79805908203125,-0.001269610831514001,-0.0016099270433187485,-0.000848967581987381
1717858107103100200,2.80810009765625,-0.0007585238199681044,-0.00009651854634284973,-0.0017598439007997513
1717858107113140200,2.81814013671875,-0.0003814201336354017,0.0002853786572813988,0.00005563301965594292
1717858107123181000,2.82818115234375,0.00026993872597813606,-1.8347054719924927e-7,0.0000266246497631073
1717858107133222100,2.83822216796875,0.00014636805281043053,-0.0004241587594151497,0.0003288933075964451
1717858107143262200,2.84826220703125,0.002202365780249238,-0.0007972642779350281,0.0010821884498000145
1717858107153303000,2.858302978515625,0.002218877663835883,0.0007849195972084999,-0.0008805613033473492
1717858107163342800,2.8683427734375,-0.001877132337540388,0.0006241612136363983,0.0008200188167393208
1717858107173384000,2.878384033203125,0.0008968161419034004,-0.0016698860563337803,-0.0005789394490420818
1717858107183424000,2.888424072265625,0.00039696390740573406,-0.0017179250717163086,-0.00008992571383714676
1717858107193465000,2.898465087890625,0.00013624061830341816,-0.00016743317246437073,0.0009393859654664993
1717858107203506000,2.908505859375,-0.0012035425752401352,-0.0023925951682031155,-0.0012246361002326012
1717858107213546000,2.9185458984375,0.0014732005074620247,-0.001165676862001419,-0.0005188984796404839
1717858107223587000,2.928587158203125,0.0001675060484558344,0.000538521446287632,0.0005263509228825569
1717858107233627100,2.938627197265625,0.0004942759405821562,0.0003726063296198845,0.00021023349836468697
1717858107243668000,2.94866796875,0.001096144551411271,-0.00012203864753246307,-0.0010735224932432175
1717858107253709000,2.958708984375,-0.0008112112991511822,-0.0020704069174826145,0.00011131772771477699
1717858107263749000,2.9687490234375,0.0010445925872772932,-0.0007726829499006271,0.0012454199604690075
1717858107273790200,2.978790283203125,0.0003479092847555876,-0.0006296709179878235,0.0009500752203166485
1717858107283830300,2.988830322265625,-0.00017470307648181915,-0.00014544744044542313,0.0005118218250572681
1717858107293871000,2.99887109375,0.001336907036602497,-0.00010523293167352676,-0.0005180221050977707
1717858107303911000,3.008910888671875,0.00016149203293025494,-0.00041761714965105057,-0.0007464378140866756
1717858107313952000,3.018951904296875,-0.00020575802773237228,0.000697714276611805,-0.00038078567013144493
1717858107323993000,3.0289931640625,0.0011516520753502846,-0.00027633458375930786,-0.0004648393951356411
1717858107334033000,3.039032958984375,0.001053115352988243,-0.0007541049271821976,-0.0003263549879193306
1717858107344074000,3.049073974609375,0.00031119072809815407,0.0006973352283239365,0.0011046105064451694
1717858107354114000,3.059114013671875,-0.0008227834478020668,0.0005572531372308731,0.00009873416274785995
1717858107364155100,3.069155029296875,-0.000308292917907238,0.0011822190135717392,0.001177685335278511
1717858107374195200,3.0791953125,0.00011088862083852291,-0.00045242905616760254,-0.0014777528122067451
1717858107384236000,3.089236083984375,0.000242933863773942,-0.0005291048437356949,0.000027502886950969696
1717858107394277000,3.099277099609375,0.0016674587968736887,0.00030712783336639404,0.0011681346222758293
1717858107404317200,3.109317138671875,0.0008821780793368816,0.0007750391960144043,0.0014768410474061966
1717858107414358000,3.11935791015625,0.0008576768450438976,0.0002719685435295105,0.0004544537514448166
1717858107424397800,3.129397705078125,0.0002100339625030756,0.0010553831234574318,0.000696871429681778
1717858107434439000,3.13943896484375,-0.0003953026607632637,0.0015011969953775406,0.0010241740383207798
1717858107444480000,3.14947998046875,-0.00011161109432578087,-0.000431000255048275,-0.00020160479471087456
1717858107454520000,3.15952001953125,-0.00028258608654141426,0.0013716937974095345,0.0007150550372898579
1717858107464561000,3.169560791015625,0.000027860281988978386,-0.0003641899675130844,-0.00011123577132821083
1717858107474601000,3.17960107421875,0.00006807409226894379,0.0009711189195513725,-0.0002055116929113865
1717858107484642000,3.18964208984375,0.0004642847925424576,0.0007681502029299736,-0.0008331234566867352
1717858107494682400,3.199682373046875,-0.00011362135410308838,-0.00043000560253858566,0.0008310857228934765
1717858107504723200,3.20972314453125,0.0015311455354094505,0.0005218125879764557,0.0016224258579313755
1717858107514764300,3.219764404296875,-0.0005788772832602262,0.001493067480623722,-0.0006625666283071041
1717858107524804400,3.229804443359375,0.0002042751293629408,0.0010367324575781822,0.00007064687088131905
1717858107534845400,3.239845458984375,0.0005456923972815275,-0.0005691535770893097,0.000624318141490221
1717858107544885500,3.249885498046875,-0.00014062877744436264,-0.000003987923264503479,-0.000010781921446323395
1717858107554926300,3.25992626953125,-0.0021119005978107452,-0.0003901468589901924,0.0006339694373309612
1717858107564966400,3.26996630859375,-0.0003790450282394886,0.0004191119223833084,0.001093447208404541
1717858107575007500,3.280007568359375,0.0005168423522263765,-0.0016248645260930061,0.0001759883016347885
1717858107585048300,3.29004833984375,0.00026777596212923527,-0.0008587818592786789,0.0004935832694172859
1717858107595088400,3.30008837890625,0.0003455404657870531,0.0004621455445885658,0.0012158327735960484
1717858107605129500,3.31012939453125,-0.0006401967257261276,0.0007151830941438675,0.001174088567495346
1717858107615169500,3.32016943359375,0.00106023158878088,-0.000521322712302208,-0.0010358025319874287
1717858107625210600,3.330210693359375,0.0005057449452579021,-0.000041540712118148804,-0.00005122832953929901
1717858107635251500,3.34025146484375,0.00007298123091459274,-0.00039867032319307327,0.00022307736799120903
1717858107645291300,3.350291259765625,-0.00021098111756145954,0.000014267861843109131,0.002058155834674835
1717858107655332400,3.360332275390625,-0.001140157924965024,0.00025901198387145996,0.0004064636304974556
1717858107665372400,3.370372314453125,0.000632875831797719,0.0001997603103518486,0.0004943166859447956
1717858107675413200,3.380413330078125,0.000371087109670043,0.00022053252905607224,0.0003086943179368973
1717858107685453300,3.390453369140625,-0.00008634594269096851,-0.00008000899106264114,-0.00033225351944565773
1717858107695494400,3.400494384765625,0.0009240573272109032,-0.0012243697419762611,-0.0010451818816363811
1717858107705535500,3.410535400390625,-0.0006202086806297302,-0.000769471749663353,-0.001275611575692892
1717858107715575600,3.420575439453125,0.0007856737356632948,0.0020231185480952263,-0.00006680237129330635
1717858107725616400,3.430616455078125,-0.0016724630258977413,0.0005290256813168526,0.0005522244609892368
1717858107735656400,3.440656494140625,0.0005912240594625473,0.000037671998143196106,0.0010819272138178349
1717858107745697500,3.450697509765625,0.00014401902444660664,0.0003829142078757286,-0.0014603151939809322
1717858107755737300,3.4607373046875,-0.00004453281871974468,0.00013044662773609161,0.00019643735140562057
1717858107765778400,3.4707783203125,0.0013544587418437004,-0.0005504796281456947,-0.00015188520774245262
1717858107775819500,3.480819580078125,0.0004532448947429657,-0.001496966928243637,0.000760780181735754
1717858107785859300,3.490859375,-0.0013500070199370384,0.000018415972590446472,-0.0011078966781497002
1717858107795900400,3.500900390625,0.0003948963712900877,0.00121364276856184,-0.0002639410085976124
1717858107805940500,3.5109404296875,-0.0003780962433665991,0.00016544386744499207,0.0004610363394021988
1717858107815981300,3.520981201171875,-0.00021564355120062828,0.002881069667637348,0.0003672931343317032
1717858107826022400,3.5310224609375,0.0007358049042522907,0.003110937774181366,-0.001043934840708971
1717858107836062500,3.5410625,0.0006338059902191162,-0.004092646297067404,-0.0022455533035099506
1717858107846103600,3.551103515625,0.0012235576286911964,-0.004342478699982166,0.000054352451115846634
1717858107856143400,3.561143310546875,0.0006413906812667847,0.004488829523324966,0.0011063008569180965
1717858107866184400,3.571184326171875,-0.0003292728215456009,0.0013204701244831085,0.001007982064038515
1717858107876224500,3.581224609375,0.0001849834807217121,-0.00444553978741169,-0.0011776741594076157
1717858107886265600,3.591265625,0.0008543841540813446,-0.003594710025936365,-0.0015143603086471558
1717858107896306400,3.601306396484375,0.00003759237006306648,0.0018352093175053596,-0.000618739053606987
1717858107906346200,3.61134619140625,0.0020859241485595703,0.00404336117208004,0.0018983038607984781
1717858107916387300,3.62138720703125,0.0001551322638988495,0.00037219375371932983,-0.0004767035134136677
1717858107926427400,3.631427490234375,0.000417330302298069,-0.004220388829708099,-0.00044726207852363586
1717858107936468500,3.641468505859375,-0.0008484700229018927,0.0002928702160716057,-0.000414771493524313
1717858107946509300,3.65150927734375,0.0005012145265936852,0.002320190891623497,-0.00004485202953219414
1717858107956549400,3.66154931640625,-0.002159017138183117,-0.00023085065186023712,0.0010718116536736488
1717858107966590500,3.671590576171875,0.0005364986136555672,-0.003012967761605978,-0.0007874760776758194
1717858107976630500,3.681630615234375,-0.0014211912639439106,-0.0006347652524709702,-0.0005677654407918453
1717858107986671400,3.69167138671875,-0.001472436124458909,0.0011229384690523148,0.0011194823309779167
1717858107996711400,3.70171142578125,0.00009510060772299767,0.001531999558210373,-0.00024751853197813034
1717858108006752500,3.71175244140625,-0.0003428028430789709,-0.0006448067724704742,-0.0007517249323427677
1717858108016793600,3.721793701171875,0.0009919735603034496,-0.0006453394889831543,0.0008901138789951801
1717858108026833400,3.73183349609375,0.00038580456748604774,0.0008444357663393021,-0.0004676543176174164
1717858108036874500,3.74187451171875,0.00008832942694425583,0.00002844352275133133,0.00023435521870851517
1717858108046914300,3.751914306640625,0.0008507398888468742,-0.00035491958260536194,-0.0019706496968865395
1717858108056955400,3.761955322265625,0.0001223655417561531,0.0008411062881350517,0.002357253571972251
1717858108066996200,3.771996337890625,0.0008315867744386196,-0.0013954131864011288,0.00015433505177497864
1717858108077036300,3.782036376953125,-0.0009447417687624693,-0.00017328839749097824,0.0004912251606583595
1717858108087077400,3.792077392578125,0.000984512735158205,0.0008843261748552322,0.0012601553462445736
1717858108097117400,3.802117431640625,0.0005120681598782539,-0.00018999353051185608,-0.0006269603036344051
1717858108107158500,3.812158447265625,-0.0006537949666380882,-0.00001617521047592163,0.0007115332409739494
1717858108117198600,3.822198486328125,0.00029375776648521423,0.0009998204186558723,-0.0003723734989762306
1717858108127239400,3.832239501953125,0.0005782861262559891,-0.0004785265773534775,-0.0013454905711114407
1717858108137280500,3.842280517578125,0.0012219720520079136,-0.0007557617500424385,-0.00017636269330978394
1717858108147320600,3.852320556640625,-0.0008388725109398365,0.0004189861938357353,-0.0005519725382328033
1717858108157361400,3.862361328125,0.0004492984153330326,-0.0011200550943613052,-0.0006744777783751488
1717858108167401200,3.872401123046875,0.00040023867040872574,-0.00006748922169208527,0.0001871059648692608
1717858108177442300,3.8824423828125,-0.0009846051689237356,0.0005516959354281425,-0.00023473892360925674
1717858108187483400,3.8924833984375,-0.00012673670426011086,-0.0019157002680003643,-0.0026105819270014763
1717858108197523500,3.9025234375,-0.0007800101302564144,-0.0008080918341875076,0.0006270231679081917
1717858108207564300,3.912564208984375,0.0006829234771430492,0.0010468512773513794,0.00026399223133921623
1717858108217604400,3.922604248046875,-0.0007738256826996803,-0.0010495884343981743,0.0005028778687119484
1717858108227645400,3.9326455078125,0.0011423197574913502,-0.0011717882007360458,-0.0012996867299079895
1717858108237685500,3.942685546875,0.0011356621980667114,-0.00009533856064081192,0.00013122987002134323
1717858108247726300,3.952726318359375,0.0012304591946303844,0.0013822941109538078,0.00009023211896419525
1717858108257767400,3.962767333984375,-0.0003298870287835598,-0.00036180950701236725,-0.0002485220320522785
1717858108267807500,3.972807373046875,-0.0021454524248838425,-0.0013005705550312996,-0.0006452039815485477
1717858108277848600,3.9828486328125,-0.0009899069555103779,-0.0012536989524960518,-0.001149606890976429
1717858108287888600,3.992888671875,0.0004414413124322891,-0.00026998575776815414,0.0006414526142179966
1717858108297929500,4.002929443359375,0.0005908445455133915,0.0012533431872725487,-0.000048572663217782974
1717858108307970600,4.012970458984375,0.0002832026220858097,-0.0008271234109997749,0.001375596970319748
1717858108318010400,4.02301025390625,0.000958580058068037,-0.001545910257846117,-0.0007072612643241882
1717858108328051500,4.033051513671875,0.0018303589895367622,0.0007382584735751152,0.0014760917983949184
1717858108338091300,4.04309130859375,0.00020929286256432533,0.0010344022884964943,0.0011218911968171597
1717858108348132400,4.05313232421875,-0.00015680096112191677,0.00037595443427562714,0.0003976565785706043
1717858108358172400,4.06317236328125,0.0009803688153624535,-0.0003553498536348343,-0.0018766829743981361
1717858108368213500,4.073213623046875,-0.0004819519817829132,-0.0013350057415664196,-0.00009712530300021172
1717858108378254300,4.08325439453125,-0.0003336139488965273,0.0021995417773723602,0.0007151388563215733
1717858108388294400,4.09329443359375,0.00044822366908192635,0.000995241105556488,-0.0005058543756604195
1717858108398335500,4.10333544921875,0.0012072245590388775,0.00023331120610237122,-0.00012102769687771797
1717858108408375600,4.11337548828125,0.0021294783800840378,-0.0012758215889334679,-0.0005796249024569988
1717858108418416400,4.12341650390625,0.0005379733629524708,-0.0005852635949850082,0.000006270594894886017
1717858108428457500,4.13345751953125,-0.0000441425945609808,0.0004382980987429619,0.0015954324044287205
1717858108438497300,4.143497314453125,-0.0013831800315529108,-0.0001175031065940857,0.0004984759725630283
1717858108448538600,4.15353857421875,0.0008204365149140358,-0.0006670933216810226,-0.00010417774319648743
1717858108458578400,4.163578369140625,0.0002401336096227169,0.0008264072239398956,0.0013741427101194859
1717858108468619300,4.173619384765625,-0.0015253492165356874,0.0009100846946239471,0.001500018872320652
1717858108478660400,4.183660400390625,-0.0010355939157307148,-0.0005067167803645134,0.0008603273890912533
1717858108488700400,4.193700439453125,0.00047030672430992126,-0.0003468180075287819,-0.00028980616480112076
1717858108498741200,4.2037412109375,0.00026764022186398506,0.00003561191260814667,-0.0010695797391235828
1717858108508781300,4.21378125,0.001023104414343834,-0.00031031854450702667,-0.0010394873097538948
1717858108518822100,4.223822265625,-0.0003449611831456423,0.0001301690936088562,0.0013794619590044022
1717858108528862200,4.2338623046875,-0.00041635450907051563,-0.000485236756503582,0.00006107427179813385
1717858108538903300,4.2439033203125,-0.0004826672375202179,-0.00009082257747650146,-0.0011067218147218227
1717858108548944100,4.253944091796875,-0.0009757659863680601,-0.0003819447010755539,0.0007093981839716434
1717858108558984200,4.263984130859375,0.00021679745987057686,-0.0009670406579971313,-0.00012550270184874535
1717858108569025300,4.274025390625,-0.001434042351320386,-0.0005515692755579948,0.0006730700843036175
1717858108579065000,4.284065185546875,-0.0014468254521489143,-0.00021760910749435425,-0.000022547785192728043
1717858108589106200,4.294106201171875,0.00010483246296644211,0.00026555825024843216,-0.00013603921979665756
1717858108599147000,4.30414697265625,-0.0012818754184991121,-0.0003288593143224716,0.00017581693828105927
1717858108609187000,4.31418701171875,0.0006861253641545773,-0.0014748512767255306,0.0008360077627003193
1717858108619228200,4.324228271484375,0.0002855858765542507,0.0007978901267051697,-0.0016527161933481693
1717858108629268200,4.334268310546875,-0.00018539093434810638,-0.000836346298456192,0.0001720883883535862
1717858108639309000,4.34430908203125,-0.0002655519638210535,-0.0005524531006813049,0.0008320198394358158
1717858108649349000,4.35434912109375,-0.0002357177436351776,-0.00047717709094285965,-0.000834138598293066
1717858108659390200,4.36439013671875,-0.0008612943347543478,-0.0006873011589050293,0.00014404067769646645
1717858108669431300,4.374431396484375,0.000020864419639110565,-0.0006569046527147293,-0.0006609233096241951
1717858108679471400,4.384471435546875,-0.0005618352442979813,0.0008970499038696289,0.0006472212262451649
1717858108689512200,4.39451220703125,-0.0006246024277061224,-0.0002919035032391548,-0.0004764688201248646
1717858108699552000,4.404552001953125,0.000035062432289123535,-0.0011443812400102615,-0.0008218809962272644
1717858108709593000,4.414593017578125,-0.00030580395832657814,-0.0003375401720404625,-0.0003653676249086857
1717858108719634200,4.42463427734375,-0.000056265853345394135,0.0011074906215071678,0.0014221463352441788
1717858108729674000,4.434674072265625,-0.00019851676188409328,-0.00010320078581571579,-0.0004240809939801693
1717858108739715000,4.444715087890625,-0.0002440568059682846,0.00013355445116758347,0.00007233256474137306
1717858108749755100,4.454755126953125,0.00041688932105898857,0.0004524141550064087,-0.0004323972389101982
1717858108759796200,4.464796142578125,-0.001177012687548995,-0.00004186853766441345,-0.0008960533887147903
1717858108769837000,4.474837158203125,-0.00009618955664336681,0.0009056245908141136,0.00017314404249191284
1717858108779877000,4.484877197265625,-0.0003824792802333832,0.000018524937331676483,0.0006120330654084682
1717858108789918200,4.494918212890625,-0.0008249867241829634,-0.0010908190160989761,-0.0011315508745610714
1717858108799958300,4.504958251953125,0.00021551037207245827,0.0003765830770134926,-0.0002601644955575466
1717858108809999000,4.5149990234375,0.0011055748909711838,-0.0001561501994729042,-0.00045821117237210274
1717858108820040200,4.525040283203125,0.00016947370022535324,-0.00007812026888132095,0.000013434793800115585
1717858108830080300,4.535080322265625,-0.00031219422817230225,-0.0006111627444624901,-0.00035912077873945236
1717858108840121300,4.545121337890625,-0.00011139176785945892,0.002025899477303028,0.0009812484495341778
1717858108850161200,4.5551611328125,0.0007758447900414467,0.0025459686294198036,0.0013656914234161377
1717858108860202000,4.565201904296875,0.00020832521840929985,0.0033822013065218925,0.0034831708762794733
1717858108870242000,4.575241943359375,-0.000042150961235165596,-0.002688339911401272,-0.0010398565791547298
1717858108880283100,4.585283203125,0.0009783725254237652,-0.004954690113663673,-0.0016270838677883148
1717858108890324200,4.59532421875,0.0005399025976657867,0.0017698779702186584,0.0004579564556479454
1717858108900364300,4.6053642578125,-0.0009866214822977781,0.003276694566011429,0.0012047067284584045
1717858108910405000,4.615405029296875,-0.0003438214771449566,0.0015117404982447624,0.0019056419841945171
1717858108920445200,4.625445068359375,0.00045086583122611046,-0.0028076404705643654,-0.001747682224959135
1717858108930486300,4.635486328125,-0.0003907466307282448,-0.00438295304775238,-0.00045445142313838005
1717858108940527000,4.645527099609375,-0.0015508197247982025,0.0004472220316529274,0.0009743347764015198
1717858108950567200,4.655567138671875,-0.00038947188295423985,0.004872972145676613,0.001241046003997326
1717858108960608300,4.665608154296875,0.0004627397283911705,-0.00004482083022594452,-0.0001794840209186077
1717858108970648300,4.6756484375,-0.0006743182893842459,-0.004655751865357161,-0.0002968544140458107
1717858108980689400,4.685689453125,-0.0010056155733764172,-0.001881004311144352,-0.0012348196469247341
1717858108990730200,4.695730224609375,0.00032674241811037064,0.002162335440516472,0.0021879442501813173
1717858109000770000,4.70577001953125,-0.0011337350588291883,0.0039357347413897514,-0.00008293334394693375
1717858109010811100,4.71581103515625,-0.00004104059189558029,-0.0033806352876126766,-0.0011449223384261131
1717858109020851200,4.725851318359375,0.0004220833070576191,-0.0026011280715465546,-0.0004469077102839947
1717858109030892000,4.73589208984375,0.0017417450435459614,-0.001179850660264492,-0.0004064813256263733
1717858109040932000,4.74593212890625,0.0018860884010791779,0.002019670791924,0.00020657852292060852
1717858109050973200,4.75597314453125,0.0007442319765686989,0.0006697634235024452,0.00028487248346209526
1717858109061014300,4.76601416015625,-0.0008078580722212791,-0.0004604822024703026,-0.000484514981508255
1717858109071054300,4.776054443359375,-0.0006483250763267279,-0.0014563044533133507,-0.0005469373427331448
1717858109081095200,4.78609521484375,-0.001272569876164198,0.0019171219319105148,-0.00037276651710271835
1717858109091135200,4.79613525390625,0.0011444753035902977,0.0007622670382261276,0.00121406652033329
1717858109101176300,4.80617626953125,0.0004704291932284832,0.00012843403965234756,0.00032377196475863457
1717858109111217200,4.816217041015625,0.0017658350989222527,0.0007846616208553314,-0.0009852824732661247
1717858109121257000,4.826257080078125,-0.0008376711048185825,0.0004413798451423645,-0.000049447640776634216
1717858109131298000,4.836298095703125,-0.00011288700625300407,-0.0012338804081082344,-0.0008263667114078999
1717858109141338000,4.846338134765625,0.0014147022739052773,0.0009986469522118568,0.00007058586925268173
1717858109151379200,4.856379150390625,-0.00021483167074620724,0.0006858361884951591,-0.0015731779858469963
1717858109161420000,4.866419921875,-0.0002545127645134926,-0.0005836924538016319,-0.0002676965668797493
1717858109171460000,4.876460205078125,0.0004723891615867615,-0.0009973952546715736,-0.00009209243580698967
1717858109181501200,4.886501220703125,0.0001946212723851204,0.001166156493127346,0.0012248409911990166
1717858109191541200,4.896541259765625,0.000792164821177721,-0.000486067496240139,-0.0007667210884392262
1717858109201582000,4.90658203125,0.00010000960901379585,0.00006920192390680313,-0.0013912324793636799
1717858109211623200,4.916623046875,0.00023805350065231323,-0.0012744059786200523,-0.0009424122981727123
1717858109221663200,4.926663330078125,-0.0005771401338279247,-0.0004363087937235832,-0.0016473508439958096
1717858109231704300,4.936704345703125,-0.0006464801263064146,-0.00007436610758304596,-0.0018074451945722103
1717858109241744400,4.946744384765625,0.00022836821153759956,0.0005211168900132179,-0.0006492361426353455
1717858109251785200,4.95678515625,-0.0007205575238913298,-0.0016024052165448666,-0.0011763153597712517
1717858109261826300,4.966826416015625,0.00025868695229291916,-0.0011043939739465714,-0.0022730049677193165
1717858109271866000,4.9768662109375,0.0005931193009018898,0.0008090930059552193,0.00015316391363739967
1717858109281907200,4.9869072265625,0.0001347893849015236,0.0015672948211431503,-0.00015656184405088425
1717858109291947000,4.996947021484375,-0.0008629853837192059,-0.0014874394983053207,-0.00006919074803590775
1717858109301988000,5.006988037109375,0.000751955434679985,-0.00032869819551706314,-0.001017808448523283
1717858109312028200,5.017028076171875,0.0004978072829544544,-0.00044103898108005524,-0.00035344576463103294
1717858109322069200,5.0270693359375,0.0003867535851895809,0.0011291606351733208,-0.0007870085537433624
1717858109332110000,5.037110107421875,0.00014525651931762695,-0.0009919404983520508,0.00015100091695785522
1717858109342150100,5.047150146484375,0.0010850862599909306,-0.0024452279321849346,-0.0008314391598105431
1717858109352191200,5.057191162109375,-0.00042972504161298275,-0.00003797747194766998,-0.0007603955455124378
1717858109362231300,5.067231201171875,-0.001412697834894061,0.0003476487472653389,0.0006249807775020599
1717858109372272000,5.077272216796875,-0.0011454583145678043,-0.0006413515657186508,0.0004025241360068321
1717858109382313200,5.087313232421875,0.00037866877391934395,0.00034588202834129333,0.0011735092848539352
1717858109392353000,5.09735302734375,0.0006190938875079155,-0.002271917648613453,-0.00034703454002738
1717858109402394000,5.10739404296875,-0.0004344524350017309,-0.0004857350140810013,-0.0011036386713385582
1717858109412434200,5.11743408203125,-0.0005272924900054932,-0.0012417789548635483,-0.0016607679426670074
1717858109422475000,5.12747509765625,0.0005393032915890217,0.000014699995517730713,0.0003464566543698311
1717858109432516000,5.13751611328125,-0.0015516472049057484,-0.000658656470477581,-0.0019411081448197365
1717858109442556200,5.14755615234375,-0.0006714724004268646,0.00034721940755844116,0.0004525408148765564
1717858109452597200,5.15759716796875,-0.0002785532269626856,-0.0008098408579826355,0.00036426447331905365
1717858109462637300,5.16763720703125,-0.0001805489882826805,-0.00010037515312433243,-0.00003707408905029297
1717858109472678100,5.17767822265625,0.000048945192247629166,0.0010412223637104034,0.0010524173267185688
1717858109482719200,5.18771923828125,0.0009834482334554195,-0.0009686658158898354,0.0009243194945156574
1717858109492760000,5.197760009765625,0.000854188110679388,0.000003100372850894928,-0.0017399522475898266
1717858109502801000,5.20780078125,0.000597725622355938,-0.0006733424961566925,-0.00016336049884557724
1717858109512841000,5.217841064453125,-0.0009519685991108418,-0.00005688052624464035,0.0030120681039988995
1717858109522882000,5.227882080078125,0.00004352116957306862,0.0008054506033658981,-0.000817557331174612
1717858109532922000,5.237922119140625,0.0007720985449850559,-0.0006139213219285011,-0.0009288620203733444
1717858109542963000,5.247962890625,-0.0005855809431523085,-0.0013867709785699844,0.0004642372950911522
1717858109553004000,5.258004150390625,0.0020248666405677795,0.0005510728806257248,0.0005155703984200954
1717858109563044000,5.268044189453125,-0.0013355100527405739,0.0014264537021517754,0.001439154613763094
1717858109573085200,5.278085205078125,0.0017406926490366459,0.00032658688724040985,0.00047776196151971817
1717858109583125000,5.288125,0.0009036613628268242,-0.0010611861944198608,-0.00030360929667949677
1717858109593165800,5.298165771484375,-0.00025680847465991974,-0.000026881694793701172,0.0004740334115922451
1717858109603207000,5.30820703125,-0.0008690690156072378,0.00034702569246292114,0.00022582709789276123
1717858109613247000,5.3182470703125,-0.00008551590144634247,0.000057474710047245026,0.00029883719980716705
1717858109623287800,5.328287841796875,-0.00030069914646446705,-0.0005092453211545944,-0.0012271539308130741
1717858109633327900,5.338327880859375,0.00043860822916030884,-0.0009974837303161621,0.00020639505237340927
1717858109643369000,5.348368896484375,-0.0006881752051413059,0.00025446899235248566,-0.0005960152484476566
1717858109653410000,5.35841015625,-0.0008348789997398853,0.00038488395512104034,0.0004899352788925171
1717858109663450000,5.3684501953125,-0.0004247522447258234,-0.00043563637882471085,0.00036849547177553177
1717858109673491000,5.378490966796875,-0.00145249767228961,0.00046806223690509796,-0.00015255575999617577
1717858109683531000,5.388531005859375,0.0013331687077879906,0.00041213538497686386,-0.0013789418153464794
1717858109693572000,5.398572021484375,0.0006503933109343052,0.0010538343340158463,0.0015366561710834503
1717858109703613000,5.408613037109375,-0.0007152755279093981,-0.001395207829773426,-0.0004244958981871605
1717858109713652700,5.41865283203125,0.0012718127109110355,-0.0002769073471426964,0.001892260741442442
1717858109723693800,5.42869384765625,0.0009719408117234707,-0.0004694536328315735,0.0001108725555241108
1717858109733734000,5.43873388671875,0.0012614843435585499,-0.0011779386550188065,-0.0007335739210247993
1717858109743775000,5.44877490234375,0.0018407218158245087,-0.000939585268497467,-0.00044755078852176666
1717858109753815000,5.45881494140625,0.00007238797843456268,-0.0006648795679211617,-0.0005264589563012123
1717858109763856000,5.46885595703125,0.000008205883204936981,-0.00040016137063503265,0.00019818730652332306
1717858109773897000,5.47889697265625,-0.00046729412861168385,0.0011543799191713333,-0.0004484630189836025
1717858109783937000,5.48893701171875,0.0019961297512054443,0.0002102889120578766,0.00008310424163937569
1717858109793977900,5.498977783203125,-0.0001817003358155489,0.00006837211549282074,-0.0006153499707579613
1717858109804018000,5.509017822265625,0.0008643893525004387,-0.00021738559007644653,-0.0007032342255115509
1717858109814059000,5.51905908203125,0.0010064062662422657,-0.0009382739663124084,0.00008618505671620369
1717858109824100000,5.52910009765625,0.000046603381633758545,-0.00011296011507511139,0.001020688097923994
1717858109834140200,5.53914013671875,0.0011556213721632957,0.002260901965200901,-0.00033279741182923317
1717858109844181000,5.549180908203125,0.0006773173809051514,0.0020952532067894936,0.000008619856089353561
1717858109854220800,5.559220703125,0.0004623914137482643,-0.0038664890453219414,-0.001210537739098072
1717858109864262000,5.569261962890625,0.001079445704817772,-0.006193292792886496,-0.0004475424066185951
1717858109874303000,5.579302978515625,-0.0013662416022270918,0.005304249003529549,0.0021683047525584698
1717858109884342800,5.5893427734375,0.0003245994448661804,0.004066945053637028,0.0008050324395298958
1717858109894383900,5.5993837890625,-0.0011739828623831272,-0.004014875739812851,-0.0006772475317120552
1717858109904424000,5.609423828125,-0.0004613208584487438,-0.0036545502953231335,-0.0023486479185521603
1717858109914465000,5.619465087890625,-0.000533347250893712,0.0034488532692193985,0.00031429482623934746
1717858109924505900,5.629505859375,0.0005375100299715996,0.003379877656698227,-0.00013045314699411392
1717858109934546000,5.6395458984375,-0.0005082315765321255,-0.003010733984410763,-0.0001808484084904194
1717858109944587000,5.6495869140625,-0.0013897379394620657,-0.003280778881162405,0.00020131515339016914
1717858109954627000,5.659626953125,0.000034815166145563126,0.0014879079535603523,0.00026651378720998764
1717858109964668200,5.669668212890625,-0.001625665696337819,0.004692490212619305,0.0017171376384794712
1717858109974708000,5.6797080078125,-0.0002941002603620291,-0.0012425249442458153,0.0001094047911465168
1717858109984749000,5.6897490234375,0.00012002140283584595,-0.005010898225009441,-0.0012243064120411873
1717858109994790100,5.6997900390625,0.0005755871534347534,0.0005386145785450935,-0.00031329644843935966
1717858110004830000,5.709829833984375,-0.001080100191757083,0.0030419863760471344,0.0012537073343992233
1717858110014870800,5.719870849609375,-0.0001041668001562357,-0.0009558591991662979,0.0013606520369648933
1717858110024910800,5.729910888671875,0.0009544398635625839,-0.004837150685489178,-0.0008199443109333515
1717858110034952000,5.739951904296875,0.0003090216778218746,-0.0005893446505069733,0.0004543168470263481
1717858110044993000,5.749992919921875,-0.00047341478057205677,0.004310072399675846,0.002077247016131878
1717858110055033000,5.760033203125,0.0010446663945913315,-0.0010656295344233513,-0.000771708320826292
1717858110065074000,5.770073974609375,0.000124278012663126,-0.005019624717533588,-0.0003112475387752056
1717858110075114000,5.780114013671875,0.0006875707767903805,0.0005573388189077377,0.00003909086808562279
1717858110085155000,5.790155029296875,-0.00028048851527273655,0.0029557812958955765,0.0016327262856066227
1717858110095196000,5.80019580078125,0.0008994960226118565,-0.00035096704959869385,-0.00032768910750746727
1717858110105236000,5.810236083984375,-0.0008251669351011515,-0.0035022851079702377,-0.0020824456587433815
1717858110115277000,5.820277099609375,0.0005789203569293022,0.0011744201183319092,0.0010403268970549107
1717858110125316900,5.83031689453125,0.000029776711016893387,0.0018548574298620224,0.000951909925788641
1717858110135358000,5.84035791015625,0.0008709295652806759,-0.000378916971385479,0.0006683585233986378
1717858110145398800,5.850398681640625,0.0007422990165650845,-0.0026343483477830887,0.00024757906794548035
1717858110155438800,5.86043896484375,-0.0006812140345573425,0.001057199202477932,0.00022884551435709
1717858110165480000,5.87047998046875,0.0004359818994998932,0.0018185963854193687,0.0017449832521378994
1717858110175520000,5.88052001953125,0.0005589122883975506,-0.0004282863810658455,0.0013993019238114357
1717858110185560800,5.890560791015625,0.0008358811028301716,-0.0016914238221943378,-0.0005687740631401539
1717858110195601000,5.900600830078125,-0.0015265527181327343,-0.0008516218513250351,-0.0008756527677178383
1717858110205642000,5.91064208984375,-0.0005214756820350885,0.0021295202895998955,0.0016277185641229153
1717858110215683000,5.92068310546875,-0.00046429364010691643,0.0005144067108631134,-0.0007033585570752621
1717858110225723100,5.93072314453125,0.001568763516843319,-0.0010091876611113548,-0.000486843753606081
1717858110235764000,5.940763916015625,0.001554924063384533,0.001379614695906639,-0.00010321848094463348
1717858110245804000,5.950803955078125,-0.0005535006057471037,-0.00000789295881986618,-0.00023531122133135796
1717858110255845000,5.96084521484375,0.0012142881751060486,-0.001111040823161602,-0.0014764019288122654
1717858110265886000,5.970885986328125,-0.0002866697032004595,-0.00031715258955955505,-0.0004265839233994484
1717858110275925800,5.98092578125,-0.00009786221198737621,0.0006636036559939384,0.00013283593580126762
1717858110285966800,5.990966796875,-0.0006547293160110712,0.00031313207000494003,-0.0006402796134352684
1717858110296007000,6.0010068359375,-0.0015031499788165092,-0.0014114277437329292,-0.0008001253008842468
1717858110306048000,6.011048095703125,-0.0002506652381271124,-0.002249524462968111,-0.001548207364976406
1717858110316088800,6.0210888671875,0.0007589086890220642,0.0005028527230024338,0.0010009035468101501
1717858110326129000,6.03112890625,0.0004643630236387253,0.0006336132064461708,0.000257082749158144
1717858110336170000,6.041169921875,0.0013137133792042732,-0.0014123255386948586,-0.0004413384012877941
1717858110346210000,6.0512099609375,-0.00002292729914188385,0.00039303116500377655,0.00016426434740424156
1717858110356251000,6.0612509765625,0.00013565737754106522,0.0012209443375468254,0.0008624596521258354
1717858110366292000,6.0712919921875,-0.0014537172392010689,0.000693105161190033,-0.0006576725281774998
1717858110376332000,6.08133203125,-0.002040683990344405,-0.0016442425549030304,0.00036340532824397087
1717858110386373000,6.091373046875,0.0000408426858484745,-0.0020570321939885616,-0.0008169077336788177
1717858110396413000,6.101412841796875,-0.0005979144480079412,0.000122779980301857,-0.0009333514608442783
1717858110406453800,6.111453857421875,-0.00040803104639053345,-0.00025139469653367996,-0.0007700994610786438
1717858110416493800,6.121493896484375,-0.0007784748449921608,-0.0011069681495428085,0.0012623192742466927
1717858110426535000,6.131534912109375,-0.00015316461212933064,0.0005673617124557495,0.0009565884247422218
1717858110436576000,6.141575927734375,0.002322752494364977,-0.00008427165448665619,-0.0017727245576679707
1717858110446615800,6.15161572265625,0.00006439164280891418,-0.0008251629769802094,0.0000028046779334545135
1717858110456657000,6.161656982421875,-0.0006368826143443584,-0.0006077773869037628,0.001465803012251854
1717858110466697000,6.171697021484375,-0.0010976095218211412,-0.0008067162707448006,0.0009504812769591808
1717858110476738000,6.181738037109375,0.000854752492159605,0.00025840476155281067,-0.0016585811972618103
1717858110486779000,6.19177880859375,0.0009447671473026276,-0.0006934087723493576,-0.0005216775462031364
1717858110496818400,6.201818359375,-0.0006783199496567249,0.0009401822462677956,0.0003584492951631546
1717858110506859500,6.211859619140625,0.00040691811591386795,0.002448596991598606,-0.0005608741194009781
1717858110516899300,6.2218994140625,0.0008536935783922672,-0.00004739966243505478,0.0012346641160547733
1717858110526940400,6.2319404296875,0.0005767247639596462,0.00029614754021167755,0.0003323848359286785
1717858110536981200,6.241981201171875,0.0008616726845502853,-0.0019103405065834522,-0.00011699087917804718
1717858110547021300,6.252021240234375,-0.0007729756180197,0.00008490029722452164,0.0012066001072525978
1717858110557062400,6.2620625,0.00012907572090625763,0.00008950568735599518,-0.0002757697366178036
1717858110567102500,6.2721025390625,-0.00003604032099246979,-0.0014564590528607368,-0.0006118607707321644
1717858110577143600,6.2821435546875,0.0013889819383621216,-0.0017995578236877918,-0.000024655833840370178
1717858110587183400,6.292183349609375,0.0008654044941067696,0.0004992829635739326,-0.0007080230861902237
1717858110597224400,6.302224365234375,-0.0010934907477349043,-0.00005720648914575577,0.000666461419314146
1717858110607265500,6.312265625,-0.0009091999381780624,-0.0020820079371333122,-0.0011644619517028332
1717858110617305600,6.3223056640625,0.0005207606591284275,-0.0004536416381597519,-0.00043028080835938454
1717858110627346400,6.332346435546875,-0.000403089914470911,-0.0008978573605418205,0.00030581653118133545
1717858110637386200,6.34238623046875,-0.0014053771737962961,-0.000437161885201931,0.001856792252510786
1717858110647427300,6.35242724609375,0.0012956010177731514,-0.0009673973545432091,0.0005590338259935379
1717858110657468400,6.362468505859375,-0.0007662724237889051,-0.0015826495364308357,0.0013120798394083977
1717858110667508500,6.372508544921875,0.0000747540034353733,-0.00023801997303962708,0.0005853031761944294
1717858110677549300,6.38254931640625,0.0013801520690321922,-0.00035586394369602203,-0.0008476986549794674
1717858110687589400,6.39258935546875,-0.0004137533251196146,-0.0003145849332213402,0.0008364845998585224
1717858110697630500,6.40263037109375,0.0014237058348953724,0.00022710300981998444,-0.00015126215294003487
1717858110707671300,6.41267138671875,0.00036722980439662933,0.00045959651470184326,0.0004940219223499298
1717858110717711400,6.42271142578125,-0.00026375288143754005,0.0005338462069630623,-0.0015480485744774342
1717858110727752400,6.43275244140625,-0.0008887967560440302,-0.001531701534986496,0.00008766492828726768
1717858110737792500,6.44279248046875,-0.0013058464974164963,-0.0009187338873744011,0.00027423910796642303
1717858110747833600,6.45283349609375,0.0005604969337582588,-0.00008729472756385803,-0.0006219143979251385
1717858110757874400,6.46287451171875,-0.0008453512564301491,-0.0018338789232075214,-0.0008568880148231983
1717858110767914500,6.47291455078125,0.0002920848783105612,0.0012750951573252678,0.0007394105195999146
1717858110777955600,6.48295556640625,-0.000439909053966403,0.00034191086888313293,0.0013327030465006828
1717858110787995400,6.492995361328125,-0.00013524340465664864,0.000485454685986042,0.0018442962318658829
1717858110798036200,6.5030361328125,0.00034137465991079807,-0.0007362207397818565,0.00034407246857881546
1717858110808077300,6.513077392578125,-0.0011089828331023455,0.0008150702342391014,-0.0006793802604079247
1717858110818117400,6.523117431640625,-0.00005188467912375927,-0.0007097283378243446,0.00017181597650051117
1717858110828158500,6.533158447265625,0.000024814624339342117,-0.0005920166149735451,0.0019667865708470345
1717858110838198500,6.543198486328125,0.0003915289416909218,-0.0009397510439157486,0.0017228154465556145
1717858110848239400,6.5532392578125,0.0001473170705139637,-0.0006984686478972435,-0.0009374157525599003
1717858110858279400,6.563279541015625,0.00029064971022307873,0.00009508989751338959,0.0009982292540371418
1717858110868320500,6.573320556640625,0.0013702951837331057,0.0026890086010098457,0.00041632866486907005
1717858110878361300,6.583361328125,0.0009956739377230406,0.0024948278442025185,0.000578372273594141
1717858110888401400,6.5934013671875,0.001221243990585208,0.0016266368329524994,0.0008715861476957798
1717858110898442500,6.6034423828125,-0.0006711238529533148,-0.006995500065386295,-0.0011338619515299797
1717858110908482300,6.613482421875,-0.000757942907512188,0.002141272649168968,-0.0005077528767287731
1717858110918523400,6.6235234375,-0.0007361145690083504,0.006034208461642265,0.0013673570938408375
1717858110928564200,6.633564208984375,-0.0009648799896240234,-0.0025475616566836834,0.00016573909670114517
1717858110938604300,6.643604248046875,0.00021527335047721863,-0.005109424237161875,-0.002124564256519079
1717858110948645400,6.653645263671875,0.0016075740568339825,0.0012744395062327385,-0.0008276049047708511
1717858110958685400,6.663685546875,0.0011653148103505373,0.004037429578602314,0.0011237571015954018
1717858110968726300,6.673726318359375,0.00039113382808864117,-0.001028435304760933,-0.00039264699444174767
1717858110978767400,6.683767333984375,0.0006087359506636858,-0.0025123683735728264,-0.0010894178412854671
1717858110988807400,6.693807373046875,0.0006188561674207449,0.0003681061789393425,-0.00048647820949554443
1717858110998848500,6.7038486328125,-0.0010769236832857132,0.0032104188576340675,0.001448232214897871
1717858111008888600,6.713888671875,-0.000984512036666274,0.0006513874977827072,0.0013832510448992252
1717858111018929400,6.723929443359375,-0.0006629244890064001,-0.0039034392684698105,-0.0006976723670959473
1717858111028969500,6.733969482421875,0.000977582996711135,-0.0007957965135574341,0.0011923732236027718
1717858111039010600,6.744010498046875,-0.0008349784184247255,0.0030490942299365997,0.0001766011118888855
1717858111049051600,6.7540517578125,0.00006889831274747849,0.000026673078536987305,0.00021814648061990738
1717858111059091500,6.764091552734375,0.00019963039085268974,-0.004289351869374514,-0.002121670637279749
1717858111069132300,6.77413232421875,0.0006036320701241493,0.002492920495569706,-0.00011790869757533073
1717858111079172400,6.78417236328125,-0.0005036515649408102,0.0029928479343652725,0.00044527696445584297
1717858111089213400,6.79421337890625,0.0008340540807694197,-0.0012775305658578873,-0.0005757790058851242
1717858111099254300,6.804254150390625,-0.0010569845326244831,-0.002157595008611679,-0.00018692435696721077
1717858111109294300,6.81429443359375,0.00009829457849264145,0.0005870591849088669,-0.0014255605638027191
1717858111119335400,6.82433544921875,0.00019207526929676533,0.0007147379219532013,0.0013160677626729012
1717858111129375500,6.83437548828125,-0.0008348394185304642,-0.0008996706455945969,-0.0008666589856147766
1717858111139416600,6.84441650390625,-0.0002211928367614746,-0.0029118508100509644,-0.0009645004756748676
1717858111149457400,6.85445751953125,-0.0008467694278806448,-0.0017533758655190468,-0.00012587103992700577
1717858111159497500,6.86449755859375,0.0006047801580280066,0.00198549497872591,0.0008001886308193207
1717858111169538600,6.87453857421875,0.000515031861141324,-0.0004694070667028427,-0.00037399912253022194
1717858111179578400,6.884578369140625,-0.0001180809922516346,-0.0014183251187205315,0.0005066231824457645
1717858111189619500,6.894619384765625,-0.0009966578800231218,0.0009881071746349335,-0.000405243132263422
1717858111199660500,6.90466064453125,0.00012929784134030342,0.0006114961579442024,0.001942383125424385
1717858111209700400,6.914700439453125,-0.00011278362944722176,-0.00031368620693683624,0.00040174461901187897
1717858111219741400,6.924741455078125,-0.00005967402830719948,-0.0009382860735058784,0.0004234504885971546
1717858111229781500,6.934781494140625,-0.002804594114422798,0.0006100758910179138,-0.00007482664659619331
1717858111239822300,6.944822265625,-0.00023277685977518559,0.00013888441026210785,0.0003230087459087372
1717858111249862400,6.9548623046875,-0.0006330499891191721,0.0007884297519922256,0.0012993239797651768
1717858111259903500,6.964903564453125,-0.000004308996722102165,-0.0022983611561357975,-0.0015097041614353657
1717858111269944300,6.9749443359375,-0.0005055158399045467,-0.0013012737035751343,-0.0007405830547213554
1717858111279984400,6.984984375,0.0007148142904043198,0.0003417748957872391,0.0003356584347784519
1717858111290025500,6.995025390625,-0.00011795619502663612,-0.0010153716430068016,-0.0009373323991894722
1717858111300065500,7.0050654296875,-0.000999122392386198,-0.0005723712965846062,0.0004536891356110573
1717858111310106600,7.015106689453125,-0.0000904519110918045,-0.0020147389732301235,-0.001629435457289219
1717858111320147500,7.0251474609375,0.0007941445801407099,0.0017645126208662987,0.000775736290961504
1717858111330187300,7.035187255859375,-0.00045754131861031055,0.00039697904139757156,-0.00037634698674082756
1717858111340228400,7.045228271484375,0.0004995893687009811,-0.0005069831386208534,0.0005227909423410892
1717858111350268400,7.055268310546875,0.0005390043370425701,-0.00007368624210357666,-0.000723568256944418
1717858111360309200,7.065309326171875,0.0011555957607924938,-0.0005153147503733635,-0.00013969279825687408
1717858111370350300,7.075350341796875,0.0008056564256548882,0.0011579487472772598,0.0013527427799999714
1717858111380390400,7.085390380859375,0.0022104328963905573,-0.0012866007164120674,0.00021297670900821686
1717858111390431500,7.095431396484375,-0.0013145268894731998,-0.0020125783048570156,0.0009370902553200722
1717858111400471600,7.105471435546875,0.0003998749889433384,-0.0010615112259984016,-0.00016376981511712074
1717858111410512400,7.115512451171875,-0.00004034559242427349,0.0008999062702059746,-0.00021916348487138748
1717858111420553500,7.125553466796875,-0.00037872977554798126,0.0001127077266573906,0.0008781752549111843
1717858111430593500,7.135593505859375,0.0008039798121899366,-0.0028045186772942543,-0.0005575348623096943
1717858111440634400,7.14563427734375,0.00260047591291368,-0.0008761482313275337,-0.0011078789830207825
1717858111450674400,7.15567431640625,-0.0005364615935832262,0.00023225881159305573,-0.0006016120314598083
1717858111460715500,7.165715576171875,0.0009656436741352081,-0.0006281230598688126,0.0003395848907530308
1717858111470756600,7.175756591796875,0.000030075199902057648,-0.00026939529925584793,-0.0007278099656105042
1717858111480796400,7.18579638671875,0.0008177373092621565,-0.00040604081004858017,0.0016207299195230007
1717858111490837200,7.195837158203125,-0.000504255760461092,-0.0006710253655910492,0.00010911934077739716
1717858111500877300,7.205877197265625,0.000040309736505150795,-0.00029473844915628433,0.0005657617002725601
1717858111510918400,7.21591845703125,0.00008052377961575985,0.00030367355793714523,0.001355388667434454
1717858111520959500,7.22595947265625,-0.0007240846753120422,-0.0005574570968747139,0.0004010018892586231
1717858111530999300,7.235999267578125,0.0007441160269081593,-0.0002701021730899811,-0.000020310282707214355
1717858111541040400,7.246040283203125,0.0000327227171510458,-0.0010985182598233223,-0.0008821315132081509
1717858111551080400,7.25608056640625,0.0018439388368278742,-0.00001487787812948227,0.0005778134800493717
1717858111561121500,7.26612158203125,0.00010431068949401379,-0.0005379943177103996,-0.0002252776175737381
1717858111571161600,7.27616162109375,0.0011482697445899248,-0.000005362555384635925,0.0006106887012720108
1717858111581202400,7.286202392578125,-0.00007159030064940453,-0.0013519087806344032,0.00024367403239011765
1717858111591243500,7.296243408203125,-0.0007373807020485401,-0.0005372483283281326,-0.0011491593904793262
1717858111601283300,7.306283447265625,0.0009505825582891703,-0.00008720345795154572,-0.0003276797942817211
1717858111611324400,7.316324462890625,-0.00039458018727600574,-0.0003439318388700485,0.0011290693655610085
1717858111621364500,7.326364501953125,-0.001339627429842949,-0.0008209813386201859,-0.0011346046812832355
1717858111631405300,7.3364052734375,-0.001029635313898325,-0.000804469920694828,0.00029897503554821014
1717858111641446400,7.3464462890625,-0.00011533335782587528,-0.0005080513656139374,-0.0005671684630215168
1717858111651486500,7.356486572265625,-0.001105496659874916,-0.00020445138216018677,-0.0010119164362549782
1717858111661527300,7.36652734375,-0.0002838985528796911,-0.0006658220663666725,-0.00012295041233301163
1717858111671567400,7.3765673828125,0.0002956052776426077,-0.00028658751398324966,0.0008445759303867817
1717858111681608400,7.3866083984375,-0.0008840723894536495,-0.0008633323013782501,-0.00021352851763367653
1717858111691649500,7.3966494140625,0.0009907928761094809,-0.00037890300154685974,0.0017803804948925972
1717858111701689600,7.406689697265625,0.0006328166928142309,-0.0008602635934948921,0.0005645058117806911
1717858111711730400,7.41673046875,-0.0005301856435835361,-0.0003247018903493881,0.0014649205841124058
1717858111721770500,7.4267705078125,0.0012560903560370207,0.0001832079142332077,0.000035318080335855484
1717858111731811600,7.4368115234375,0.0007668675389140844,-0.0003952300176024437,-0.00046295905485749245
1717858111741852400,7.446852294921875,0.0006524240598082542,-0.001823054626584053,-0.0006603272631764412
1717858111751892200,7.456892333984375,0.0004470944404602051,0.00011545978486537933,0.0007948242127895355
1717858111761933300,7.466933349609375,-0.00019592023454606533,0.00008221529424190521,0.0011833109892904758
1717858111771973400,7.476973388671875,0.00007012952119112015,0.00008434616029262543,-0.0011456236243247986
1717858111782014500,7.487014404296875,-0.0017422270029783249,-0.000799170695245266,0.0018233084119856358
1717858111792055300,7.49705517578125,0.0003233205061405897,-0.0002465648576617241,0.0008920007385313511
1717858111802095400,7.507095458984375,-0.00047765858471393585,0.0006673363968729973,-0.00015674298629164696
1717858111812136400,7.517136474609375,0.00022887811064720154,-0.001146542839705944,0.0015852306969463825
1717858111822176500,7.527176513671875,-0.00046081538312137127,-0.0014190804213285446,0.0016889185644686222
1717858111832217300,7.53721728515625,-0.0003614795859903097,0.0006227651610970497,-0.0004362836480140686
1717858111842257400,7.54725732421875,0.0001291409134864807,-0.0005136877298355103,-0.000055336859077215195
1717858111852298500,7.557298583984375,-0.00023038568906486034,0.00030523352324962616,-0.0004675937816500664
1717858111862339600,7.567339599609375,-0.0009227576665580273,-0.0006970968097448349,-0.0003948686644434929
1717858111872379600,7.577379638671875,0.00005861697718501091,0.003058759495615959,0.0014160810969769955
1717858111882420500,7.58742041015625,-0.0004926125984638929,0.002902830019593239,0.001921887043863535
1717858111892460300,7.597460205078125,-0.00042843050323426723,0.0015185186639428139,0.0006779246032238007
1717858111902501400,7.60750146484375,0.0018600057810544968,-0.004460284020751715,-0.0017057890072464943
1717858111912542500,7.61754248046875,0.00013081543147563934,0.0007845452055335045,-0.000446113757789135
1717858111922582300,7.627582275390625,-0.000520041212439537,0.00680837407708168,0.0017788144759833813
1717858111932623400,7.637623291015625,-0.0012984832283109426,-0.0012687267735600471,-0.0017165844328701496
1717858111942663400,7.647663330078125,-0.00009630899876356125,-0.0048431591130793095,0.00035701552405953407
1717858111952704500,7.65770458984375,-0.0005349316634237766,-0.000612194649875164,-0.0006134402938187122
1717858111962745300,7.667745361328125,-0.0006368767935782671,0.003401266410946846,0.002146646846085787
1717858111972785400,7.677785400390625,0.00043158349581062794,0.001967686228454113,0.0012254593893885612
1717858111982826500,7.687826416015625,-0.00018041743896901608,-0.001507418230175972,-0.0014434317126870155
1717858111992866600,7.697866455078125,0.002325883600860834,-0.002403838559985161,0.0002636546269059181
1717858112002907400,7.707907470703125,-0.001464538974687457,0.0006805723533034325,-0.00030430732294917107
1717858112012948500,7.717948486328125,-0.001187037443742156,0.0016925735399127007,0.000758027657866478
1717858112022988300,7.72798828125,-0.0008966056630015373,-0.00265423022210598,-0.0001662345603108406
1717858112033029400,7.738029296875,0.0007550870068371296,-0.0025064251385629177,-0.0005979328416287899
1717858112043069400,7.7480693359375,-0.0010008870158344507,0.002099849283695221,0.0024692637380212545
1717858112053110300,7.7581103515625,0.0009384271688759327,0.002863910049200058,0.0021749844308942556
1717858112063151400,7.7681513671875,0.0014240378513932228,-0.0009297141805291176,0.0012101824395358562
1717858112073191400,7.77819140625,-0.0015882637817412615,-0.0033891433849930763,0.0005342718213796616
1717858112083232500,7.788232421875,0.0017621638253331184,0.0011233370751142502,-0.0008040494285523891
1717858112093272300,7.798272216796875,0.00018503982573747635,0.0026035215705633163,0.00010222429409623146
1717858112103313400,7.8083134765625,-0.0020250948145985603,-0.0010372605174779892,0.0002979426644742489
1717858112113353500,7.818353515625,0.0016937435138970613,-0.0014479197561740875,-0.000558796338737011
1717858112123394600,7.82839453125,-0.0006120484322309494,-0.0016289250925183296,-0.0007886975072324276
1717858112133435400,7.838435302734375,0.0008686690125614405,-0.0015245294198393822,-0.0014763260260224342
1717858112143475500,7.848475341796875,-0.0001775675918906927,0.0008311383426189423,0.0006765616126358509
1717858112153516500,7.8585166015625,0.0007966170087456703,0.00047693774104118347,0.00009279651567339897
1717858112163556400,7.868556396484375,0.002726871520280838,0.00047131720930337906,0.0010541058145463467
1717858112173597400,7.878597412109375,0.0015404336154460907,0.0005027428269386292,0.000698307529091835
1717858112183638300,7.88863818359375,-0.0004019297193735838,0.00009849853813648224,0.0009042182937264442
1717858112193678300,7.89867822265625,0.0009328466840088367,-0.0010615745559334755,-0.0006270995363593102
1717858112203719400,7.908719482421875,0.00020677084103226662,0.00008820928633213043,0.0013721408322453499
1717858112213759500,7.918759521484375,0.0006435294635593891,0.0006000688299536705,0.0017290045507252216
1717858112223800300,7.92880029296875,0.00024586915969848633,0.0016766823828220367,0.0002422700636088848
1717858112233841400,7.93884130859375,-0.001294237095862627,-0.0003499835729598999,0.0001362762413918972
1717858112243881500,7.948881591796875,-0.0011450662277638912,0.00002244766801595688,-0.0011498983949422836
1717858112253922600,7.958922607421875,0.0014456571079790592,0.001004088670015335,0.0010394863784313202
1717858112263962600,7.968962646484375,0.0006527339573949575,-0.0003986228257417679,-0.0006029573269188404
1717858112274003500,7.97900341796875,0.0007177151273936033,0.0015052715316414833,0.0005307504907250404
1717858112284044500,7.98904443359375,0.0004066498950123787,-0.0011325664818286896,-0.00025445036590099335
1717858112294084400,7.99908447265625,-0.0008570200297981501,0.00012977235019207,0.0011080228723585606
1717858112304125200,8.009125244140625,-0.0014909913297742605,0.0005389805883169174,-0.0000870819203555584
1717858112314165200,8.019165283203124,-0.0014025743585079908,-0.0016469424590468407,0.0018005669116973877
1717858112324206300,8.029206298828125,0.0005352862644940615,-0.0035421010106801987,-0.0009635984897613525
1717858112334247400,8.039247314453124,0.0003778932150453329,-0.00043951813131570816,0.000056125689297914505
1717858112344287500,8.04928759765625,-0.0017755362205207348,0.0017591211944818497,0.000848391093313694
1717858112354328300,8.059328369140625,0.0008468783926218748,0.0005367305129766464,0.0005309423431754112
1717858112364368400,8.069368408203125,0.0005759268533438444,-0.000873158685863018,0.00038484949618577957
1717858112374409500,8.079409423828125,-0.0007290220819413662,-0.00002866983413696289,0.0000064140185713768005
1717858112384450600,8.089450439453126,0.0024703005328774452,-0.00009435415267944336,0.00020416872575879097
1717858112394490400,8.099490478515625,-0.0005590450018644333,-0.00035108253359794617,-0.00043259328231215477
1717858112404531500,8.109531494140626,-0.00015991576947271824,-0.0005176085978746414,-0.0009409026242792606
1717858112414571500,8.119571533203125,0.000578312436118722,-0.0002241283655166626,-0.00017923861742019653
1717858112424612600,8.129612548828124,0.0013477152679115534,-0.0009184582158923149,-0.0007225950248539448
1717858112434653400,8.1396533203125,0.00008111563511192799,-0.00025080330669879913,-0.0010285922326147556
1717858112444693200,8.149693359375,0.00014694803394377232,0.00035399477928876877,0.0009651188738644123
1717858112454734300,8.159734375,0.00159251200966537,0.0009606629610061646,0.002249827841296792
1717858112464774400,8.1697744140625,0.000291493721306324,-0.000536428764462471,0.0009834128431975842
1717858112474815500,8.1798154296875,-0.00045605585910379887,-0.0008821068331599236,-0.00023205392062664032
1717858112484856300,8.189856201171875,0.00002572266384959221,-0.0009173555299639702,0.00004039378836750984
1717858112494895600,8.1998955078125,-0.0018366258591413498,-0.00006674136966466904,0.0002494519576430321
1717858112504936700,8.209936767578125,-0.0011875934433192015,0.0006614364683628082,-0.0010942877270281315
1717858112514976800,8.219976806640625,-0.0013889283873140812,0.0005852701142430305,0.00010520033538341522
1717858112525017900,8.230017822265625,-0.00008563278242945671,-0.0010787863284349442,-0.001356346532702446
1717858112535057700,8.2400576171875,0.0004360803868621588,-0.00013789162039756775,-0.0008394266478717327
1717858112545098800,8.2500986328125,-0.0005696788430213928,0.001012248918414116,0.00023828120902180672
1717858112555139800,8.260139892578126,0.0003531062975525856,0.000446859747171402,0.0008433517068624496
1717858112565180000,8.270179931640625,0.000675232382491231,-0.00026345811784267426,0.0005395705811679363
1717858112575220700,8.280220703125,-0.0001322380267083645,-0.0011492250487208366,-0.000726496335119009
1717858112585260800,8.2902607421875,-0.000319900456815958,0.0006386479362845421,-0.00001531653106212616
1717858112595302000,8.300302001953124,-0.00023174984380602837,0.000674334354698658,0.00050346739590168
1717858112605343000,8.310343017578125,0.0009757091756910086,-0.0001412034034729004,0.0007432294078171253
1717858112615382800,8.3203828125,0.000553065212443471,-0.001392090693116188,-0.000011776573956012726
1717858112625424000,8.330423828125,-0.0005085377488285303,-0.00029452797025442123,-0.000199037604033947
1717858112635463700,8.340463623046874,-0.00024381955154240131,-0.0005344785749912262,-0.0005359272472560406
1717858112645504800,8.3505048828125,-0.0004796728026121855,0.0003857789561152458,0.0005126679316163063
1717858112655545600,8.360545654296875,-0.0003555694129317999,0.00015834439545869827,0.00017924001440405846
1717858112665585700,8.370585693359375,0.0014428230933845043,-0.0019557592459023,-0.0009504100307822227
1717858112675626800,8.380626708984375,0.00005132146179676056,-0.0007876968011260033,-0.0004814271815121174
1717858112685666800,8.390666748046876,0.00018469104543328285,0.00006519164890050888,0.001169784925878048
1717858112695708000,8.4007080078125,-0.001468865666538477,-0.0010669184848666191,0.00014473404735326767
1717858112705748700,8.410748779296876,-0.0007218748796731234,0.00031971558928489685,0.0006136209703981876
1717858112715788800,8.420788818359375,0.0003694884944707155,-0.001559677068144083,0.0004445100203156471
1717858112725830000,8.430829833984374,-0.0013057191390544176,-0.00138095673173666,0.0008496451191604137
1717858112735870000,8.440869873046875,0.0011230837553739548,0.0003335867077112198,0.00022486736997961998
1717858112745910800,8.450910888671874,0.0025868862867355347,0.00019156653434038162,-0.0013097655028104782
1717858112755951900,8.460951904296875,-0.00004245247691869736,-0.0003780834376811981,-0.00029270444065332413
1717858112765991700,8.47099169921875,0.0005312100984156132,-0.0004602475091814995,0.00047956546768546104
1717858112776032800,8.48103271484375,-0.0008509703911840916,-0.0010506706312298775,0.0007205815054476261
1717858112786072800,8.49107275390625,-0.001108349533751607,0.0007607443258166313,-0.0005010454915463924
1717858112796113700,8.50111376953125,-0.000020181993022561073,0.0013194754719734192,-0.00008346186950802803
1717858112806154800,8.51115478515625,-0.0006161327473819256,-0.0005558505654335022,0.0004979879595339298
1717858112816194800,8.52119482421875,-0.000050743576139211655,-0.0014136545360088348,-0.0012921891175210476
1717858112826235600,8.531235595703125,0.00044431653805077076,-0.0004019280895590782,-0.0005667856894433498
1717858112836275700,8.541275634765626,-0.0002694106660783291,-0.0007539978250861168,-0.0011886339634656906
1717858112846316800,8.55131689453125,-0.0005688145756721497,-0.0008067712187767029,-0.0005241287872195244
1717858112856358000,8.56135791015625,-0.0013025153893977404,-0.0003223419189453125,-0.000313472468405962
1717858112866398000,8.57139794921875,-0.0003591093700379133,-0.0009640417993068695,-0.000028609298169612885
1717858112876438800,8.581438720703124,-0.0005367421545088291,-0.0014343569055199623,0.0006329198367893696
1717858112886478800,8.591478759765625,0.0005515639204531908,-0.0007398528978228569,0.002114182338118553
1717858112896520000,8.60152001953125,-0.00015896745026111603,0.0033901771530508995,-0.0009093042463064194
1717858112906561000,8.61156103515625,0.0006913223769515753,-0.00005643628537654877,0.0007256739772856236
1717858112916600800,8.621600830078124,0.0002830598969012499,-0.0005951942875981331,0.00006068265065550804
1717858112926641700,8.6316416015625,0.0008976203389465809,-0.004742409568279982,-0.0007794131524860859
1717858112936681700,8.641681640625,0.0005918894894421101,-0.0026680734008550644,-0.001273695845156908
1717858112946722800,8.651722900390626,0.0014343424700200558,0.0037320489063858986,0.0003984603099524975
1717858112956763600,8.661763671875,-0.0011515868827700615,0.0007911203429102898,-0.0009411093778908253
1717858112966803700,8.6718037109375,-0.0006788275204598904,-0.0033591855317354202,-0.0009102923795580864
1717858112976844800,8.6818447265625,-0.0006580548360943794,-0.0004435572773218155,0.001364313531666994
1717858112986884900,8.691884765625,-0.00016453932039439678,0.0011642230674624443,-0.000726071186363697
1717858112996926000,8.701926025390625,-0.0010415182914584875,-0.0006547160446643829,0.002240157686173916
1717858113006966800,8.711966796875,0.0004425523802638054,0.0005733231082558632,-0.000042253173887729645
1717858113017006800,8.7220068359375,-0.00042297481559216976,-0.00017023179680109024,0.0012272759340703487
1717858113027048000,8.7320478515625,0.00003996049053966999,-0.0019818469882011414,-0.0005140295252203941
1717858113037088000,8.742087890625,0.002187533536925912,-0.0008960757404565811,0.0016732248477637768
1717858113047128800,8.75212890625,0.0024429713375866413,-0.001457451842725277,0.0009762691333889961
1717858113057170000,8.762169921875,0.0002629072405397892,0.0021748337894678116,0.0006204703822731972
1717858113067209700,8.772209716796874,0.00022458587773144245,-0.0013105440884828568,0.0013128174468874931
1717858113077250800,8.782250732421875,0.0003383031580597162,-0.0008096033707261086,-0.0020283847115933895
1717858113087291000,8.792290771484375,-0.0007987574208527803,-0.001551858615130186,0.0020068660378456116
1717858113097331700,8.802331787109376,0.0002646429929882288,0.00020209886133670807,0.00003373017534613609
1717858113107371800,8.812371826171875,-0.00033598835580050945,0.0003109453245997429,0.0006120358593761921
1717858113117412900,8.822412841796876,0.0007377981673926115,0.0006941743195056915,-0.00041887350380420685
1717858113127453700,8.83245361328125,0.0018368037417531013,-0.0010246234014630318,0.00024593574926257133
1717858113137493800,8.84249365234375,-0.0007304837927222252,-0.0020014713518321514,0.0009836312383413315
1717858113147534800,8.852534912109375,-0.0009066311176866293,0.00043912045657634735,0.0004899390041828156
1717858113157575000,8.862574951171876,0.0006558455061167479,0.000007955357432365417,-0.0005372422747313976
1717858113167616000,8.872615966796875,0.00023035751655697823,-0.0007838895544409752,-0.0008856910280883312
1717858113177656800,8.88265673828125,0.0013648644089698792,0.00038736872375011444,-0.0005317567847669125
1717858113187696600,8.892696533203125,-0.0008561727590858936,-0.00008340738713741302,-0.00045123277232050896
1717858113197737700,8.90273779296875,0.00018192757852375507,0.0013837283477187157,0.0006955242715775967
1717858113207777800,8.91277783203125,0.0004895352758467197,0.0007810806855559349,-0.001115099061280489
1717858113217818600,8.922818603515625,0.0001734183169901371,0.000425814650952816,-0.0007768776267766953
1717858113227859700,8.932859619140626,0.000014078337699174881,-0.00004212465137243271,0.00010319985449314117
1717858113237899800,8.942899658203125,-0.00023119873367249966,0.00023777317255735397,0.000363124068826437
1717858113247940900,8.95294091796875,0.0008325278759002686,0.0010257130488753319,-0.0002495180815458298
1717858113257981000,8.96298095703125,-0.0003632316365838051,-0.0019445102661848068,0.00011533498764038086
1717858113268021800,8.973021728515626,0.0002509739715605974,-0.0015024300664663315,-0.0012649730779230595
1717858113278062800,8.983062744140625,-0.0008433186449110508,-0.0010683350265026093,0.0004216069355607033
1717858113288103000,8.99310302734375,0.000013051321730017662,-0.00034833047538995743,-0.0005294894799590111
1717858113298143700,9.003143798828125,0.0005893593188375235,-0.0006175767630338669,0.0008018244989216328
1717858113308183800,9.013183837890624,0.0022422405891120434,-0.0004336107522249222,0.001234876923263073
1717858113318225000,9.023224853515625,-0.000009462237358093262,0.00017332378774881363,0.0011350084096193314
1717858113328266000,9.033265869140624,0.00041995663195848465,-0.0011229673400521278,-0.0006033680401742458
1717858113338305800,9.043305908203125,-0.0014373320154845715,0.0008011665195226669,-0.00050722761079669
1717858113348346600,9.0533466796875,0.0004389057867228985,0.0002873493358492851,0.002014804631471634
1717858113358386700,9.06338671875,0.0016013756394386292,-0.00004021916538476944,0.0004616491496562958
1717858113368427800,9.073427734375,0.00029327673837542534,-0.0013906816020607948,0.0006714588962495327
1717858113378468900,9.08346875,-0.0005916918162256479,-0.00034805387258529663,-0.0002063191495835781
1717858113388508700,9.0935087890625,0.00006808084435760975,-0.0003108810633420944,0.00003151688724756241
1717858113398549800,9.1035498046875,-0.0004272668156772852,-0.0005026282742619514,-0.00031948741525411606
1717858113408589800,9.11358984375,0.001367456978186965,0.0012325281277298927,0.00033263256773352623
1717858113418631000,9.123630859375,0.0010023375507444143,-0.0019787116907536983,-0.00011824071407318115
1717858113428671700,9.133671630859375,0.0003277466166764498,-0.00039700791239738464,0.0003700624220073223
1717858113438711800,9.1437119140625,-0.0007047608960419893,0.00016811490058898926,0.0000020135194063186646
1717858113448753000,9.1537529296875,0.0004422403872013092,-0.0008898880332708359,0.0009015863761305809
1717858113458792700,9.163792724609374,0.0009088264778256416,-0.00130454171448946,0.0007724231109023094
1717858113468833800,9.173833740234375,-0.0006445192266255617,-0.0006773071363568306,0.0005240351893007755
1717858113478874600,9.18387451171875,-0.001647998346015811,0.0008771792054176331,0.0008087269961833954
1717858113488914700,9.193914794921875,-0.0015085574705153704,0.00023520179092884064,-0.0005409074947237968
1717858113498956800,9.203956787109375,-0.00033117388375103474,-0.0009714765474200249,-0.00028843991458415985
1717858113508996600,9.21399658203125,0.0008952489588409662,-0.0013084644451737404,0.0003896057605743408
1717858113519037700,9.22403759765625,-0.0010035848245024681,0.0007576160132884979,0.00020744558423757553
1717858113529078800,9.234078857421874,-0.0011964731384068727,0.0004432881250977516,-0.0008478444069623947
1717858113539118800,9.244118896484375,0.00018943590112030506,-0.0002459380775690079,-0.0006489064544439316
1717858113549159700,9.25415966796875,-0.0005078476388007402,-0.00002535805106163025,0.0011554015800356865
1717858113559199700,9.26419970703125,0.001827744534239173,0.000007664784789085388,-0.001402298454195261
1717858113569240800,9.27424072265625,-0.0006416228134185076,-0.0007318276911973953,0.0013956241309642792
1717858113579282000,9.284281982421875,-0.0004365593194961548,0.0003824392333626747,-0.0011663367040455341
1717858113589321700,9.29432177734375,0.0002709783148020506,-0.000613408163189888,0.00037788040935993195
1717858113599362600,9.304362548828125,-0.00023448956198990345,-0.0022451267577707767,0.0006865407340228558
1717858113609402600,9.314402587890624,0.0008841990493237972,0.00029078684747219086,-0.0012683258391916752
1717858113619443700,9.324443603515626,0.0005797999911010265,0.0008516479283571243,0.00035407207906246185
1717858113629484500,9.334484619140625,0.00042639393359422684,-0.00008881837129592896,-0.00012480327859520912
1717858113639524600,9.344524658203126,0.00017126323655247688,0.0002978723496198654,-0.0008100345730781555
1717858113649565700,9.354565673828125,0.00030815298669040203,-0.0011317664757370949,-0.00012008426710963249
1717858113659605800,9.364605712890626,-0.000043650390580296516,0.00018250290304422379,-0.0008689649403095245
1717858113669646800,9.374646728515625,-0.00009560328908264637,0.0004741251468658447,0.00023687118664383888
1717858113679687700,9.384687744140624,0.0014679387677460909,-0.00029526185244321823,-0.0005282550118863583
1717858113689727700,9.394727783203125,0.00017637526616454124,0.0002643689513206482,-0.0002614888362586498
1717858113699768800,9.404768798828124,-0.00039300834760069847,0.0009429426863789558,-0.00007320335134863853
1717858113709809000,9.414808837890625,0.0002625680062919855,0.0000030510127544403076,-0.00007330859079957008
1717858113719849700,9.424849609375,-0.00040908134542405605,-0.0005740560591220856,0.002114744856953621
1717858113729890800,9.434890869140625,0.0002401906531304121,-0.0018909024074673653,0.0014655436389148235
1717858113739930600,9.4449306640625,-0.0009848636109381914,-0.00035851914435625076,0.00041998643428087234
1717858113749971700,9.4549716796875,0.0007757921703159809,-0.0010683154687285423,-0.000884409062564373
1717858113760011800,9.46501171875,-0.00019386457279324532,-0.0012320997193455696,0.0011316039599478245
1717858113770052600,9.475052490234376,-0.00037705665454268456,0.00008861906826496124,0.0009845849126577377
1717858113780092700,9.4850927734375,0.0005507888272404671,0.00031658634543418884,-0.0006572538986802101
1717858113790133800,9.4951337890625,0.0014455418568104506,-0.0002514384686946869,-0.0000965408980846405
1717858113800174600,9.505174560546875,0.000013293931260704994,0.00036987755447626114,0.0006158547475934029
1717858113810214700,9.515214599609376,0.0005425703711807728,0.000222058966755867,0.00022487668320536613
1717858113820255700,9.525255859375,0.0004522893577814102,0.0010124854743480682,0.0002368609420955181
1717858113830295800,9.5352958984375,-0.0006698982324451208,-0.0007381662726402283,0.0010221418924629688
1717858113840337000,9.5453369140625,-0.0004965264815837145,0.0004682457074522972,0.0011971117928624153
1717858113850377700,9.555377685546874,0.00025758123956620693,0.0023536738008260727,0.0002662120386958122
1717858113860417500,9.56541748046875,0.00080352951772511,0.0022261086851358414,0.0016742250882089138
1717858113870458600,9.575458740234374,0.00015449710190296173,-0.001863596960902214,-0.000619037076830864
1717858113880498700,9.585498779296875,0.00036115851253271103,-0.00528735714033246,-0.0017064055427908897
1717858113890539500,9.59553955078125,-0.00045939860865473747,-0.0008977549150586128,-0.0010845828801393509
1717858113900580600,9.60558056640625,0.0006258394569158554,0.004558795131742954,0.0008179792203009129
1717858113910620700,9.61562060546875,0.00015105283819139004,0.0022456543520092964,0.0014739399775862694
1717858113920661800,9.625661865234376,0.0006349494215101004,-0.0036127669736742973,-0.0013021393679082394
1717858113930701800,9.635701904296875,0.0003175500314682722,-0.001782250590622425,0.00008716480806469917
1717858113940742700,9.64574267578125,-0.00003159046173095703,0.0030114389955997467,0.0011702724732458591
1717858113950783700,9.65578369140625,0.0005250496324151754,0.002552199177443981,0.0011721113696694374
1717858113960823800,9.66582373046875,0.0024241500068455935,0.0009021041914820671,0.00043627992272377014
1717858113970865000,9.675864990234375,-0.0005806011613458395,-0.0024128397926688194,0.000351716298609972
1717858113980904700,9.68590478515625,0.001429552910849452,-0.0020282790064811707,-0.00017532333731651306
1717858113990945800,9.69594580078125,-0.0007309520151466131,0.0022863419726490974,0.0009723864495754242
1717858114000987000,9.70598681640625,0.0003913042601197958,0.002403787337243557,0.0006874282844364643
1717858114011026700,9.716026611328125,-0.0015216739848256111,-0.0025169504806399345,0.00003821030259132385
1717858114021067500,9.726067626953125,0.0007952761370688677,0.0002532694488763809,-0.00007257703691720963
1717858114031107600,9.736107666015625,0.0016417817678302526,0.0016081826761364937,0.0015939660370349884
1717858114041148700,9.746148681640625,0.0003235170152038336,0.0008499808609485626,-0.00019754236564040184
1717858114051189800,9.756189697265626,0.0010605663992464542,-0.002013317309319973,0.001346629112958908
1717858114061229800,9.766229736328125,0.001399054192006588,-0.0017597842961549759,-0.001097087748348713
1717858114071270700,9.776270751953126,-0.0008857850916683674,-0.001602871809154749,-0.00022838683798909187
1717858114081310700,9.786310791015625,0.0008822872769087553,0.0005945023149251938,0.0009993305429816246
1717858114091351800,9.796351806640626,0.0011943031568080187,0.0011950023472309113,0.0008430676534771919
1717858114101392600,9.806392578125,0.0012757957447320223,-0.0015571084804832935,0.0014891508035361767
1717858114111432700,9.8164326171875,-0.0005729126278311014,0.000026812776923179626,0.0013998639769852161
1717858114121473800,9.826473876953125,0.00020339898765087128,0.000763176940381527,0.0012547215446829796
1717858114131513900,9.836513916015624,0.00028550787828862667,0.0004884824156761169,-0.00023124273866415024
1717858114141555000,9.846554931640625,-0.0010679105762392282,0.0011172546073794365,0.0016761133447289467
1717858114151595800,9.856595703125,-0.0006058919243514538,0.0005624359473586082,0.00013033254072070122
1717858114161635600,9.866635498046875,0.00044925231486558914,-0.00036301277577877045,0.00043313391506671906
1717858114171676700,9.8766767578125,-0.00002530752681195736,-0.0008273329585790634,0.0003689415752887726
1717858114181716700,9.886716796875,0.0014343708753585815,-0.0009623551741242409,0.0004760008305311203
1717858114191757600,9.896757568359375,0.00045145489275455475,0.0008137300610542297,0.001247841864824295
1717858114201798700,9.906798583984376,-0.0000018151476979255676,-0.0023098918609321117,0.00043344683945178986
1717858114211838700,9.916838623046875,0.00024448009207844734,-0.0009629959240555763,-0.0009325831197202206
1717858114221879800,9.9268798828125,-0.0008106641471385956,-0.0003866879269480705,0.0011404212564229965
1717858114231919900,9.936919921875,0.00012456253170967102,0.0008437652140855789,-0.00032051559537649155
1717858114241960700,9.946960693359374,0.0009693172760307789,-0.00047769490629434586,-0.0008403649553656578
1717858114252001800,9.957001708984375,0.0006805271841585636,-0.0015585352666676044,-0.00041908910498023033
1717858114262041900,9.967041748046874,-0.0010569191072136164,-0.0018512168899178505,0.00011727167293429375
1717858114272082700,9.977082763671875,-0.0007983115501701832,-0.0008035702630877495,-0.0000013862736523151398
1717858114282122500,9.98712255859375,0.0010310139041393995,0.0016340212896466255,0.0004976899363100529
1717858114292163600,9.99716357421875,0.0008464062120765448,-0.00025647226721048355,-0.00047658849507570267
1717858114302204700,10.00720458984375,0.0010336267296224833,-0.001340378075838089,0.00021902937442064285
1717858114312244700,10.01724462890625,-0.00007758638821542263,0.0003986349329352379,-0.0005655060522258282
1717858114322285600,10.02728564453125,0.00011069886386394501,0.0007467102259397507,-0.0010312930680811405
1717858114332325600,10.03732568359375,-0.00030910549685359,-0.0006912760436534882,-0.0015361183322966099
1717858114342366700,10.04736669921875,0.0013849311508238316,-0.00130406953394413,-0.000005600042641162872
1717858114352407800,10.05740771484375,0.00018596253357827663,-0.0011169342324137688,-0.0013071359135210514
1717858114362447600,10.067447509765625,0.00028689601458609104,0.0001371484249830246,-0.00025678519159555435
1717858114372488700,10.07748876953125,0.00007486925460398197,-0.00037727784365415573,0.0010456624440848827
1717858114382528800,10.08752880859375,0.0006053710822016001,-0.0001418543979525566,0.00048267049714922905
1717858114392569900,10.09756982421875,0.00034699728712439537,-0.00033996906131505966,0.00026042480021715164
1717858114402610700,10.107610595703125,0.00032649096101522446,0.0006693694740533829,0.000738462433218956
1717858114412650800,10.117650634765624,-0.0008119260892271996,-0.0003835028037428856,-0.00007420405745506287
1717858114422691800,10.12769189453125,-0.0013879677280783653,-0.0012040231376886368,0.0004805321805179119
1717858114432731600,10.137731689453124,-0.002322846557945013,-0.0016103326342999935,0.00042460067197680473
1717858114442772700,10.147772705078125,-0.0012101777829229832,0.0007769251242280006,0.0000030226074159145355
1717858114452813600,10.1578134765625,0.00016355887055397034,0.0011145193129777908,0.000039991457015275955
1717858114462853600,10.167853515625,-0.000794912688434124,-0.000329713337123394,0.0011808895505964756
1717858114472894700,10.177894775390625,0.0006989880930632353,0.0006781918928027153,-0.0001302296295762062
1717858114482934800,10.187934814453126,-0.0009734770283102989,-0.0007836176082491875,0.00024208053946495056
1717858114492975600,10.1979755859375,0.0002465334255248308,-0.000787222757935524,0.0009725834242999554
1717858114503016200,10.20801611328125,0.0027371214237064123,0.000560869462788105,0.00037656771019101143
1717858114513056300,10.21805615234375,0.0022673960775136948,0.0003176676109433174,0.0005197841674089432
1717858114523097300,10.228097412109374,-0.0004468974657356739,-0.0010242993012070656,0.0015874453820288181
1717858114533137400,10.238137451171875,0.0003039361909031868,0.0013910140842199326,0.0000902051106095314
1717858114543178200,10.24817822265625,-0.001074782107025385,-0.0011877240613102913,-0.00015640351921319962
1717858114553219300,10.25821923828125,-0.0007919222116470337,-0.0013081850484013557,-0.0006764139980077744
1717858114563259400,10.26825927734375,0.0013159697409719229,-0.0005348026752471924,-0.000523814931511879
1717858114573300500,10.278300537109375,0.0008796707261353731,-0.000729292631149292,0.0002115773968398571
1717858114583340300,10.28834033203125,-0.0010551158338785172,-0.0013910885900259018,-0.001170337200164795
1717858114593381400,10.29838134765625,0.0005814731121063232,0.00034006498754024506,-0.0006018774583935738
1717858114603422500,10.30842236328125,0.0009820125997066498,-0.00007592048496007919,0.00012969272211194038
1717858114613462500,10.318462646484376,-0.00012408336624503136,0.00014410726726055145,-0.0005843350663781166
1717858114623503400,10.32850341796875,0.0010088251437991858,0.00007193535566329956,-0.00007593771442770958
1717858114633543200,10.338543212890626,0.0009168393444269896,-0.0012804195284843445,0.00025487737730145454
1717858114643584300,10.348584228515625,-0.00032605789601802826,0.0005393186584115028,-0.0008724387735128403
1717858114653625300,10.358625244140624,0.00024556973949074745,-0.0002906685695052147,0.0002861572429537773
1717858114663665400,10.36866552734375,-0.000449515413492918,0.001115214079618454,0.0002709771506488323
1717858114673706200,10.378706298828124,0.0003840639255940914,-0.00007923413068056107,-0.0004242262803018093
1717858114683746300,10.388746337890625,0.0009611709974706173,-0.0008936282247304916,0.0009504975751042366
1717858114693787400,10.398787353515624,-0.0006525770295411348,0.0004336889833211899,0.0005306112580001354
1717858114703828200,10.408828125,-0.0006160917691886425,0.00027549732476472855,-0.0002861800603568554
1717858114713868300,10.418868408203124,0.0013023982755839825,0.0007375637069344521,0.000841071829199791
1717858114723909400,10.428909423828125,-0.0007801938336342573,-0.0008233152329921722,0.0008890088647603989
1717858114733949400,10.438949462890625,0.000906085129827261,-0.00004576332867145538,0.0009605740197002888
1717858114743990500,10.448990478515626,0.0001223171129822731,-0.0010449811816215515,0.0003171544522047043
1717858114754031400,10.45903125,0.0009170034900307655,-0.0014507509768009186,-0.0016363724134862423
1717858114764071200,10.4690712890625,-0.0006207055412232876,-0.0010608648881316185,0.0010904381051659584
1717858114774112300,10.4791123046875,-0.00043237325735390186,-0.0005454272031784058,0.0012919660657644272
1717858114784152300,10.48915234375,-0.0006424966268241405,0.00025591813027858734,-0.00029767444357275963
1717858114794193200,10.499193115234375,-0.0010325803887099028,-0.0008656904101371765,0.0014085136353969574
1717858114804234200,10.509234130859374,-0.00042671128176152706,-0.0013474561274051666,-0.0012312112376093864
1717858114814274300,10.5192744140625,-0.0009293700568377972,0.00023133866488933563,0.0006117313168942928
1717858114824315400,10.5293154296875,0.0005436246283352375,-0.0008821291849017143,0.0017038937658071518
1717858114834355500,10.53935546875,-0.00007911515422165394,0.0015143491327762604,0.0015080329030752182
1717858114844396300,10.549396240234374,-0.00110922590829432,0.0027969274669885635,0.0020103054121136665
1717858114854437400,10.559437255859375,-0.00042121903970837593,0.0002690013498067856,-0.0009057875722646713
1717858114864477400,10.5694775390625,0.0016706939786672592,-0.002706548199057579,-0.0011523962020874023
1717858114874518300,10.579518310546876,-0.0003445851616561413,-0.004135982599109411,-0.0017553973011672497
1717858114884558300,10.589558349609375,-0.0002913221251219511,0.0015469370409846306,0.0014009810984134674
1717858114894599400,10.599599365234376,0.0006272699683904648,0.0042153336107730865,0.0016702637076377869
1717858114904640500,10.609640625,-0.0013344143517315388,-0.0017773113213479519,0.0005003367550671101
1717858114914680300,10.619680419921876,-0.00043008429929614067,-0.0027678711339831352,-0.0002554417587816715
1717858114924721200,10.62972119140625,-0.00020051980391144753,-0.0004093758761882782,0.0008239373564720154
1717858114934761200,10.63976123046875,0.0012058578431606293,-0.00035564322024583817,0.0005698460154235363
1717858114944802300,10.64980224609375,0.0006244895048439503,-0.0006773537024855614,-0.0002557341940701008
1717858114954843400,10.659843505859374,0.00001014024019241333,0.0009370315819978714,-0.0002978909760713577
1717858114964883200,10.66988330078125,-0.00014112726785242558,-0.0003761732950806618,-0.00047925254330039024
1717858114974924300,10.67992431640625,0.0017243754118680954,0.0003759237006306648,0.0007546599954366684
1717858114984964400,10.68996435546875,-0.0016285446472465992,-0.0004459274932742119,0.000349326990544796
1717858114995005400,10.70000537109375,0.00039531802758574486,-0.0007407991215586662,0.0010185199789702892
1717858115005046300,10.71004638671875,-0.00046008918434381485,0.00019263848662376404,0.0006414162926375866
1717858115015086300,10.72008642578125,-0.0004379276651889086,0.0007720831781625748,0.0009941169992089272
1717858115025127400,10.73012744140625,-0.0012683011591434479,-0.00018132850527763367,0.00012113293632864952
1717858115035167500,10.74016748046875,0.0006635691970586777,-0.0005884235724806786,0.0004147239960730076
1717858115045208600,10.75020849609375,0.00032508140429854393,-0.0016784551553428173,-0.0002558599226176739
1717858115055249400,10.76024951171875,0.00161318713799119,-0.0023648771457374096,0.0002172691747546196
1717858115065289200,10.770289306640626,-0.00036048167385160923,0.001425599679350853,-0.0005553141236305237
1717858115075330300,10.780330322265625,0.00022254092618823051,0.0021012909710407257,-0.00026929331943392754
1717858115085370400,10.790370361328126,-0.0012232894077897072,0.0001055179163813591,0.0007552248425781727
1717858115095411200,10.8004111328125,-0.0016129494179040194,-0.0025755311362445354,-0.0008529969491064548
1717858115105452300,10.810452392578124,-0.0006941589526832104,0.0004034806042909622,-0.0005999966524541378
1717858115115492400,10.820492431640625,-0.0007217621896415949,0.0013951007276773453,-0.000026534777134656906
1717858115125533400,10.830533447265625,0.00020848028361797333,-0.0003231707960367203,0.000018739141523838043
1717858115135573500,10.840573486328125,0.0015048799104988575,0.00022379495203495026,0.0008827103301882744
1717858115145614300,10.8506142578125,-0.0010813158005475998,-0.0002941899001598358,-0.0009583327919244766
1717858115155655400,10.860655517578126,0.0003731055185198784,0.00013890396803617477,0.0008294787257909775
1717858115165695500,10.870695556640625,-0.0007454222068190575,-0.0005537839606404305,0.0004467824473977089
1717858115175736300,10.880736328125,0.0005949763581156731,-0.00020383577793836594,-0.0007514865137636662
1717858115185776000,10.890776123046875,-0.0005499168764799833,-0.0004949187859892845,-0.0014130156487226486
1717858115195817200,10.900817138671876,0.0005696052685379982,-0.0008609509095549583,0.0008350703865289688
1717858115205858300,10.9108583984375,0.001645522192120552,0.0017257779836654663,0.00023159803822636604
1717858115215898400,10.9208984375,0.00027635134756565094,0.0016980310901999474,0.0007746759802103043
1717858115225939200,10.930939208984375,-0.00005707656964659691,0.0005339626222848892,0.000830336008220911
1717858115235979300,10.940979248046874,0.0006673312745988369,-0.0014471225440502167,-0.001617893110960722
1717858115246020400,10.951020263671875,0.0009456314146518707,0.0003174878656864166,-0.0012674210593104362
1717858115256061400,10.9610615234375,-0.0007658815011382103,-0.00035633333027362823,-0.0007844772189855576
1717858115266101200,10.971101318359375,0.0006186957471072674,-0.0008325064554810524,0.0001263236626982689
1717858115276142300,10.981142333984375,-0.0012823017314076424,0.001044626347720623,0.001237885095179081
1717858115286182400,10.991182373046875,-0.0007059937343001366,-0.0010147960856556892,-0.0008127489127218723
1717858115296223500,11.001223388671875,-0.0005303823854774237,0.000026088207960128784,-0.00045927800238132477
1717858115306264300,11.011264404296876,-0.0008733975701034069,-0.00015553925186395645,0.00063741160556674
1717858115316304400,11.021304443359375,-0.0012730229645967484,-0.0001002410426735878,0.0000707581639289856
1717858115326345500,11.031345458984376,-0.0012258850038051605,-0.0030483603477478027,0.0002009868621826172
1717858115336385300,11.04138525390625,-0.0010276047978550196,0.000776827335357666,-0.00002724025398492813
1717858115346426400,11.05142626953125,-0.0007980403024703264,0.00011929310858249664,0.0002691694535315037
1717858115356467200,11.06146728515625,-0.00017532962374389172,-0.0007247431203722954,-0.0004679993726313114
1717858115366507300,11.07150732421875,-0.000024860957637429237,0.0007735509425401688,0.00018101278692483902
1717858115376548400,11.08154833984375,-0.00012395274825394154,0.0008862698450684547,-0.00019828835502266884
1717858115386588400,11.09158837890625,0.0005916384980082512,0.00024258438497781754,0.000044059474021196365
1717858115396629200,11.101629150390625,0.00022005243226885796,-0.000296945683658123,0.0015360713005065918
1717858115406670300,11.11167041015625,-0.001274513779208064,-0.0007361005991697311,0.0003323224373161793
1717858115416710400,11.12171044921875,-0.00019746203906834126,0.0005222465842962265,-0.0003838990814983845
1717858115426751500,11.13175146484375,-0.0013111960142850876,0.00009054876863956451,-0.0001897546462714672
1717858115436791300,11.141791259765625,0.000017208978533744812,-0.00023363716900348663,-0.0009777499362826347
1717858115446832400,11.151832275390625,-0.0005843990948051214,0.0000955294817686081,-0.0008086394518613815
1717858115456873500,11.16187353515625,0.0004111016169190407,-0.0005731480196118355,0.00015347125008702278
1717858115466913300,11.171913330078125,0.00009098974987864494,-0.000295381061732769,-0.00003215111792087555
1717858115476954000,11.1819541015625,0.001302886288613081,-0.001292363740503788,-0.001877752598375082
1717858115486994200,11.191994140625,0.0003284355625510216,0.00028635840862989426,0.0014344207011163235
1717858115497035300,11.20203515625,0.001714147161692381,-0.0009837253019213676,0.00011729635298252106
1717858115507076400,11.212076416015625,-0.0006613924633711576,3.129243850708008e-7,-0.00011626258492469788
1717858115517116400,11.222116455078124,0.0006151706911623478,-0.000619235448539257,-0.0005777874030172825
1717858115527157200,11.2321572265625,0.00010384386405348778,-0.00019978825002908707,0.0008422103710472584
1717858115537198300,11.2421982421875,-0.00027637812308967113,0.0012008314952254295,-0.000578517559915781
1717858115547238100,11.252238037109375,-0.0002036739606410265,-0.0005696387961506844,-0.0008453661575913429
1717858115557279200,11.262279296875,0.00005737016908824444,0.00043774861842393875,-0.001888409722596407
1717858115567319000,11.272319091796875,-0.000311477342620492,-0.000045880675315856934,0.0011529200710356236
1717858115577360100,11.282360107421875,-0.0005014489870518446,-0.0013224771246314049,-0.000856911763548851
1717858115587401200,11.292401123046876,-0.002252211095765233,-0.0012582950294017792,0.0005644173361361027
1717858115597441300,11.302441162109375,0.0001638599205762148,0.0009669186547398567,0.0004724734462797642
1717858115607482000,11.312482177734376,0.0004775801207870245,-0.00003336463123559952,0.0011909944005310535
1717858115617522200,11.322522216796875,0.0009224116802215576,-0.00038224924355745316,0.00046534463763237
1717858115627563300,11.332563232421874,0.0019434676505625248,-0.000010738149285316467,0.0003047562204301357
1717858115637604400,11.342604248046875,0.0007986885029822588,-0.0010683033615350723,0.002017696388065815
1717858115647644200,11.35264404296875,0.0011251920368522406,0.0002936366945505142,0.0003420352004468441
1717858115657685200,11.362685302734375,-0.001048113452270627,0.0005463967099785805,-0.0003377394750714302
1717858115667725300,11.372725341796874,0.0007460580673068762,-0.0013966448605060577,0.001189050730317831
1717858115677766400,11.382766357421875,0.0007352393586188555,0.0004229070618748665,0.0002834503538906574
1717858115687807200,11.39280712890625,0.0007211246993392706,0.0004599243402481079,0.00021474063396453857
1717858115697847000,11.402846923828125,0.0004949236754328012,-0.0001030145213007927,0.0005906061269342899
1717858115707888000,11.41288818359375,-0.0011136254761368036,-0.00026972871273756027,0.0007075187750160694
1717858115717928200,11.42292822265625,-0.0003830832429230213,0.00011767633259296417,0.0006433953531086445
1717858115727969300,11.43296923828125,0.0003881680313497782,-0.0005387924611568451,0.0008348766714334488
1717858115738010000,11.443010009765626,0.0001310408115386963,0.00002978835254907608,0.0007148347795009613
1717858115748050200,11.45305029296875,-0.0001336773857474327,-0.000315357930958271,-0.000018866267055273056
1717858115758091300,11.46309130859375,-0.000020402483642101288,-0.0008838316425681114,0.0003536110743880272
1717858115768131300,11.47313134765625,0.0001423167996108532,0.0006882324814796448,-0.0007787654176354408
1717858115778172200,11.483172119140624,-0.0006518014706671238,-0.000181613489985466,0.000570360105484724
1717858115788213200,11.493213134765625,0.0005591379012912512,-0.001734236255288124,0.0009623775258660316
1717858115798253300,11.50325341796875,0.00010190368629992008,0.00031236372888088226,-0.000651027075946331
1717858115808294400,11.51329443359375,0.000600180821493268,-0.001671158242970705,0.0009274287149310112
1717858115818334200,11.523334228515624,-0.0012851138599216938,0.0009275088086724281,0.0005425103008747101
1717858115828375000,11.533375,0.0005362217780202627,0.0025134216994047165,0.0013068374246358871
1717858115838416100,11.543416015625,-0.002620053943246603,0.0028723152354359627,0.00006223469972610474
1717858115848456200,11.553456298828126,-0.00035024178214371204,-0.00197117542847991,-0.0011947774328291416
