time,seconds_elapsed,z,y,x
1717858104389636000,0.094635986328125,0.00410419749096036,0.01395975798368454,-0.004292216617614031
1717858104399676200,0.10467626953125,0.004479703027755022,0.018427476286888123,-0.004459995776414871
1717858104409717000,0.114717041015625,0.004791559185832739,0.007395598106086254,-0.004486893769353628
1717858104419758000,0.124758056640625,0.004841094370931387,0.0008037420338951051,-0.0073170349933207035
1717858104429798100,0.134798095703125,0.005721535068005323,0.008315187878906727,-0.005056011490523815
1717858104439839200,0.144839111328125,0.004614725708961487,0.015356851741671562,-0.004378236830234528
1717858104449879000,0.154879150390625,0.004317516926676035,0.009562612511217594,-0.005311142187565565
1717858104459920000,0.164919921875,0.0054877097718417645,0.002951581496745348,-0.007028880994766951
1717858104469960000,0.1749599609375,0.0049066077917814255,0.0073657711036503315,-0.005784385837614536
1717858104480001000,0.1850009765625,0.004151601810008287,0.01176504697650671,-0.0046882289461791515
1717858104490042400,0.19504248046875,0.004024302586913109,0.01181964110583067,-0.004580636974424124
1717858104500082400,0.20508251953125,0.00415346585214138,0.005139634478837252,-0.007268299348652363
1717858104510123500,0.21512353515625,0.0035569178871810436,0.005685849115252495,-0.006299174856394529
1717858104520163600,0.22516357421875,0.0041065942496061325,0.011118963360786438,-0.00592420157045126
1717858104530204400,0.235204345703125,0.00378994457423687,0.010967429727315903,-0.005832589231431484
1717858104540244500,0.245244384765625,0.003571032779291272,0.00749014038592577,-0.006070409435778856
1717858104550285600,0.25528564453125,0.004767324775457382,0.006620085798203945,-0.006330067757517099
1717858104560325600,0.26532568359375,0.004570250865072012,0.010688863694667816,-0.0051739891059696674
1717858104570366700,0.27536669921875,0.0034165694378316402,0.0118515994399786,-0.005106877535581589
1717858104580407600,0.285407470703125,0.0033933997619897127,0.009069395251572132,-0.005967611446976662
1717858104590447600,0.295447509765625,0.005600627511739731,0.007686149328947067,-0.0065292720682919025
1717858104600488700,0.30548876953125,0.0039009982720017433,0.0092347776517272,-0.005909288302063942
1717858104610528500,0.315528564453125,0.003840810852125287,0.010303770191967487,-0.004777977243065834
1717858104620569300,0.3255693359375,0.0031196267809718847,0.010068346746265888,-0.0062797339633107185
1717858104630609400,0.335609375,0.004026167094707489,0.007939415983855724,-0.006791593506932259
1717858104640650500,0.345650390625,0.003057841444388032,0.008711998350918293,-0.005429120268672705
1717858104650690600,0.355690673828125,0.004405667539685965,0.011143730953335762,-0.0070251524448394775
1717858104660731600,0.365731689453125,0.0036706349346786737,0.01068300474435091,-0.005529255140572786
1717858104670772500,0.3757724609375,0.003792874049395323,0.008534366264939308,-0.00603498937562108
1717858104680812500,0.3858125,0.002653839997947216,0.009272594004869461,-0.005988916382193565
1717858104690853600,0.395853515625,0.004230963997542858,0.01014051865786314,-0.005338838789612055
1717858104700893700,0.405893798828125,0.003683950752019882,0.009847836568951607,-0.00567040266469121
1717858104710934500,0.4159345703125,0.004240285139530897,0.008855010382831097,-0.005858155433088541
1717858104720974300,0.425974365234375,0.0034756914246827364,0.009563677944242954,-0.005094094667583704
1717858104731015400,0.436015380859375,0.004119643941521645,0.00954104121774435,-0.004793157335370779
1717858104741056500,0.446056396484375,0.00433163158595562,0.008175372146070004,-0.006178267300128937
1717858104751096600,0.4560966796875,0.0043534692376852036,0.0086603332310915,-0.0049348375760018826
1717858104761137400,0.466137451171875,0.005131378769874573,0.008713063783943653,-0.005082376766949892
1717858104771177500,0.476177490234375,0.0036812876351177692,0.009514941833913326,-0.005589975044131279
1717858104781218600,0.486218505859375,0.00464641721919179,0.008629174903035164,-0.00634950865060091
1717858104791258600,0.496258544921875,0.004731371998786926,0.008671784773468971,-0.005318598821759224
1717858104801299500,0.506299560546875,0.003019491909071803,0.009327721782028675,-0.0046903593465685844
1717858104811340500,0.516340576171875,0.003632285399362445,0.009819873608648777,-0.00643765926361084
1717858104821380600,0.526380615234375,0.0029936593491584063,0.008194014430046082,-0.005352953914552927
1717858104831421700,0.536421630859375,0.004884770140051842,0.009356217458844185,-0.006130064371973276
1717858104841461800,0.546461669921875,0.0023126890882849693,0.008780175819993019,-0.004964132327586412
1717858104851502600,0.556502685546875,0.004033357370644808,0.00896846130490303,-0.004941229242831469
1717858104861542400,0.56654248046875,0.003050118451938033,0.009966347366571426,-0.0054664043709635735
1717858104871583500,0.57658349609375,0.005526592023670673,0.010498447343707085,-0.005146292503923178
1717858104881624600,0.58662451171875,0.0027358653023838997,0.009178318083286285,-0.0049345712177455425
1717858104891664400,0.596664306640625,0.0029933929909020662,0.00872158631682396,-0.005143363028764725
1717858104901705500,0.60670556640625,0.002326537622138858,0.009308813139796257,-0.005132710561156273
1717858104911745500,0.61674560546875,0.0027712853625416756,0.009531985968351364,-0.00498224189504981
1717858104921786600,0.62678662109375,0.0043958136811852455,0.00971387978643179,-0.006147907115519047
1717858104931826700,0.63682666015625,0.004322576802223921,0.009975136257708073,-0.007237406447529793
1717858104941867500,0.646867431640625,0.0032234902027994394,0.009006810374557972,-0.00529542937874794
1717858104951907600,0.656907470703125,0.0031670311000198126,0.009022257290780544,-0.006852047052234411
1717858104961948700,0.66694873046875,0.0037433390971273184,0.0095096156001091,-0.006474144756793976
1717858104971989500,0.676989501953125,0.004628041293472052,0.009298160672187805,-0.006168946158140898
1717858104982029300,0.687029296875,0.003534547286108136,0.008799084462225437,-0.005345230456441641
1717858104992070400,0.6970703125,0.003988616168498993,0.009616142138838768,-0.005135373678058386
1717858105002110500,0.7071103515625,0.004323641769587994,0.008386027999222279,-0.004869856406003237
1717858105012151600,0.717151611328125,0.004322310443967581,0.009497631341218948,-0.007874701172113419
1717858105022192400,0.7271923828125,0.005567604675889015,0.008533833548426628,-0.004828577395528555
1717858105032232400,0.737232421875,0.0036578518338501453,0.009397762827575207,-0.006533799227327108
1717858105042273500,0.7472734375,0.0027515781112015247,0.008703743107616901,-0.005468801129609346
1717858105052313600,0.757313720703125,0.004147606901824474,0.008234228007495403,-0.004759867675602436
1717858105062354700,0.767354736328125,0.003823500359430909,0.010231598280370235,-0.0054605454206466675
1717858105072394500,0.77739453125,0.004382763989269733,0.008792692795395851,-0.005053614266216755
1717858105082435600,0.787435546875,0.004817658569663763,0.0090555464848876,-0.005772667936980724
1717858105092475600,0.7974755859375,0.005757221486419439,0.00711676524952054,-0.0060270000249147415
1717858105102516700,0.807516845703125,0.002231196267530322,0.008586830459535122,-0.005076517816632986
1717858105112557600,0.8175576171875,0.0033878071699291468,0.009555421769618988,-0.005063201766461134
1717858105122597400,0.827597412109375,0.0037622477393597364,0.009304818697273731,-0.0062128882855176926
1717858105132638500,0.837638427734375,0.004035754129290581,0.007315170951187611,-0.005304484162479639
1717858105142678500,0.847678466796875,0.004774248693138361,0.009214270859956741,-0.004736165516078472
1717858105152719600,0.8577197265625,0.00498064374551177,0.009813481941819191,-0.006104497704654932
1717858105162759400,0.867759521484375,0.0032115059439092875,0.008859005756676197,-0.005591839086264372
1717858105172800500,0.877800537109375,0.00418276060372591,0.009342102333903313,-0.005923402961343527
1717858105182841600,0.887841552734375,0.004296744242310524,0.009827064350247383,-0.005812615156173706
1717858105192881700,0.897881591796875,0.0034346787724643946,0.009138104505836964,-0.006601177155971527
1717858105202922500,0.907922607421875,0.0034053840208798647,0.007843808270990849,-0.006066148169338703
1717858105212962600,0.917962646484375,0.0033507891930639744,0.008364723064005375,-0.0057007623836398125
1717858105223003600,0.928003662109375,0.002965429797768593,0.01028379611670971,-0.005175320897251368
1717858105233043500,0.93804345703125,0.0037795582320541143,0.01005023717880249,-0.004519384354352951
1717858105243084500,0.94808447265625,0.003707120195031166,0.008983640931546688,-0.005691441707313061
1717858105253125400,0.95812548828125,0.003066896228119731,0.00959883164614439,-0.005063734482973814
1717858105263165400,0.96816552734375,0.004477306269109249,0.010274475440382957,-0.00535348616540432
1717858105273206500,0.97820654296875,0.0037377465050667524,0.009500560350716114,-0.006028597708791494
1717858105283246600,0.98824658203125,0.003849599277600646,0.007322094868868589,-0.007210242096334696
1717858105293287400,0.998287353515625,0.0038011297583580017,0.007996140979230404,-0.00577959232032299
1717858105303327500,1.008327392578125,0.003967843484133482,0.009378587827086449,-0.004840561654418707
1717858105313368600,1.01836865234375,0.004582235123962164,0.009550894610583782,-0.0052296495996415615
1717858105323409700,1.02840966796875,0.004700479097664356,0.007448328658938408,-0.005938583053648472
1717858105333449700,1.03844970703125,0.0029031119775027037,0.00996075477451086,-0.006597981322556734
1717858105343490600,1.048490478515625,0.004062652122229338,0.008724781684577465,-0.007434746716171503
1717858105353530600,1.058530517578125,0.00580862071365118,0.008914931677281857,-0.005882656667381525
1717858105363571700,1.06857177734375,0.0035976641811430454,0.008796420879662037,-0.005518868565559387
1717858105373611500,1.078611572265625,0.0035084483679383993,0.009214270859956741,-0.005900765769183636
1717858105383652400,1.08865234375,0.005148422904312611,0.01019990723580122,-0.006697051227092743
1717858105393693400,1.098693359375,0.00440992834046483,0.00896792858839035,-0.004926847759634256
1717858105403733500,1.1087333984375,0.0036932716611772776,0.008492554537951946,-0.006567621603608131
1717858105413774600,1.118774658203125,0.0029883331153541803,0.009236108511686325,-0.005883455276489258
1717858105423814700,1.128814697265625,0.0034908715169876814,0.009580189362168312,-0.005375856999307871
1717858105433855500,1.13885546875,0.00529542937874794,0.0082089276984334,-0.006013683974742889
1717858105443895600,1.1488955078125,0.0030157635919749737,0.0084864292293787,-0.006913033314049244
1717858105453936600,1.1589365234375,0.003631486324593425,0.010060623288154602,-0.00729386555030942
1717858105463977500,1.1689775390625,0.004291151650249958,0.008670187555253506,-0.00544376764446497
1717858105474017500,1.179017578125,0.004077299498021603,0.00830613262951374,-0.005381449591368437
1717858105484058600,1.18905859375,0.0049617355689406395,0.008798818103969097,-0.006249906495213509
1717858105494098000,1.199097900390625,0.005146825220435858,0.008921589702367783,-0.005012335255742073
1717858105504139000,1.209138916015625,0.004570517223328352,0.008236624300479889,-0.005930859595537186
1717858105514179000,1.219178955078125,0.003921238239854574,0.00882038939744234,-0.004735899157822132
1717858105524220000,1.229219970703125,0.0033715618774294853,0.008586297743022442,-0.006914897821843624
1717858105534261000,1.239260986328125,0.004674113821238279,0.009846772067248821,-0.007541006896644831
1717858105544301000,1.249301025390625,0.002341983839869499,0.008866195566952229,-0.00634977500885725
1717858105554342100,1.259342041015625,0.004316984210163355,0.009415073320269585,-0.005188902840018272
1717858105564382000,1.2693818359375,0.005115399602800608,0.00885101594030857,-0.006156695540994406
1717858105574422800,1.2794228515625,0.0041550640016794205,0.008809470571577549,-0.006533799227327108
1717858105584462800,1.289462890625,0.0046813045628368855,0.008380435407161713,-0.0054520233534276485
1717858105594504000,1.29950390625,0.003936418332159519,0.009008408524096012,-0.004140949342399836
1717858105604544800,1.309544677734375,0.004326837603002787,0.009148224256932735,-0.006430202629417181
1717858105614584800,1.319584716796875,0.004480235744267702,0.00899722333997488,-0.006966829299926758
1717858105624626000,1.3296259765625,0.003066896228119731,0.009884588420391083,-0.005173456855118275
1717858105634666000,1.339666015625,0.004634965676814318,0.009763681329786777,-0.006761233322322369
1717858105644707000,1.34970703125,0.004178233444690704,0.008870989084243774,-0.0046450854279100895
1717858105654747100,1.3597470703125,0.0041337586008012295,0.00959563534706831,-0.006593986880034208
1717858105664788000,1.3697880859375,0.0027976506389677525,0.008204933255910873,-0.005338572897017002
1717858105674829000,1.3798291015625,0.004095142707228661,0.00902385450899601,-0.005566272884607315
1717858105684868900,1.389868896484375,0.004688494838774204,0.00932319462299347,-0.00580888707190752
1717858105694909700,1.39990966796875,0.0043718451634049416,0.009242500178515911,-0.005595034919679165
1717858105704949800,1.40994970703125,0.004089283756911755,0.009150355122983456,-0.007098922040313482
1717858105714990800,1.419990966796875,0.0031590417493134737,0.008831041865050793,-0.005372927524149418
1717858105725031000,1.430031005859375,0.0038453382439911366,0.010393252596259117,-0.006695453077554703
1717858105735072000,1.440072021484375,0.0038456046022474766,0.008717857301235199,-0.00663420045748353
1717858105745112800,1.45011279296875,0.003471696749329567,0.008353004232048988,-0.0031164311803877354
1717858105755153000,1.46015283203125,0.003861050819978118,0.009553557261824608,-0.007836084812879562
1717858105765194000,1.470194091796875,0.0037260286044329405,0.00956927053630352,-0.004824848845601082
1717858105775234000,1.480234130859375,0.00395719101652503,0.010675014927983284,-0.005402754992246628
1717858105785275000,1.49027490234375,0.0027744811959564686,0.012540026567876339,-0.005193696822971106
1717858105795315000,1.50031494140625,0.0031702269334346056,0.005615008994936943,-0.005618470720946789
1717858105805356000,1.51035595703125,0.004285026341676712,0.005663478281348944,-0.005652026738971472
1717858105815397000,1.520397216796875,0.002799248555675149,0.011698201298713684,-0.002713228575885296
1717858105825437000,1.53043701171875,0.005262406077235937,0.01098527293652296,-0.007455253042280674
1717858105835477800,1.540477783203125,0.0040796962566673756,0.005906624719500542,-0.0060267336666584015
1717858105845517800,1.550517822265625,0.004396879114210606,0.0064922538585960865,-0.007660316303372383
1717858105855559000,1.560558837890625,0.0033633061684668064,0.01167609728872776,-0.005857356358319521
1717858105865599000,1.570598876953125,0.0035273567773401737,0.010449977591633797,-0.0067846691235899925
1717858105875639800,1.580639892578125,0.003531351685523987,0.008520783856511116,-0.005923935677856207
1717858105885681000,1.590680908203125,0.004849882796406746,0.007282414007931948,-0.00544376764446497
1717858105895721000,1.600720947265625,0.002130528911948204,0.010359164327383041,-0.006489058490842581
1717858105905762000,1.610761962890625,0.002924949862062931,0.01152669358998537,-0.005038434639573097
1717858105915802000,1.620802001953125,0.003905259305611253,0.008410795591771603,-0.007382815238088369
1717858105925843000,1.630843017578125,0.0029047098942101,0.008919991552829742,-0.006715693045407534
1717858105935882800,1.6408828125,0.004486361052840948,0.009849434718489647,-0.007728759665042162
1717858105945923800,1.650923828125,0.003466370515525341,0.009609217755496502,-0.00663606496527791
1717858105955964000,1.6609638671875,0.00458622956648469,0.00965635571628809,-0.0049316417425870895
1717858105966004700,1.671004638671875,0.0028905950020998716,0.008432633243501186,-0.005561479367315769
1717858105976045800,1.6810458984375,0.0037388119380921125,0.009268066845834255,-0.002950516063719988
1717858105986086000,1.6910859375,0.0035979305393993855,0.009767409414052963,-0.005016330163925886
1717858105996127000,1.701126953125,0.004332962911576033,0.010381268337368965,-0.005029912106692791
1717858106006167000,1.7111669921875,0.004973985720425844,0.01082601584494114,-0.006057626102119684
1717858106016208000,1.721207763671875,0.003560912562534213,0.009135175496339798,-0.005125786177814007
1717858106026248000,1.731248046875,0.004559597931802273,0.009794307872653008,-0.005301288329064846
1717858106036289000,1.7412890625,0.0033718282356858253,0.009555954486131668,-0.006535663735121489
1717858106046329900,1.751329833984375,0.004052266012877226,0.00911360327154398,-0.007153517100960016
1717858106056370000,1.761369873046875,0.0036709012929350138,0.008669654838740826,-0.004122573416680098
1717858106066411000,1.771410888671875,0.0030655646696686745,0.009844641201198101,-0.005465073045343161
1717858106076450800,1.781450927734375,0.0051652006804943085,0.009291236288845539,-0.006789462640881538
1717858106086492000,1.791491943359375,0.0028911277186125517,0.009648632258176804,-0.006135656964033842
1717858106096532000,1.801531982421875,0.002801911672577262,0.008493886329233646,-0.006996124051511288
1717858106106572800,1.81157275390625,0.0022770026698708534,0.009563677944242954,-0.0065255435183644295
1717858106116614000,1.82161376953125,0.0036663739010691643,0.008510664105415344,-0.005832056514918804
1717858106126654000,1.831654052734375,0.004509264137595892,0.00848429836332798,-0.005973736755549908
1717858106136694800,1.84169482421875,0.0038312235847115517,0.008703743107616901,-0.00643845833837986
1717858106146734800,1.85173486328125,0.003852795111015439,0.009476326406002045,-0.005536711774766445
1717858106156776000,1.86177587890625,0.003885019337758422,0.009893643669784069,-0.004564924165606499
1717858106166816000,1.87181591796875,0.004013916477560997,0.007279484532773495,-0.005287972744554281
1717858106176857000,1.881857177734375,0.004056526813656092,0.007703726179897785,-0.005468268413096666
1717858106186898000,1.89189794921875,0.0044054011814296246,0.010094179771840572,-0.0057377805933356285
1717858106196938000,1.90193798828125,0.004288222175091505,0.010105098597705364,-0.005206213798373938
1717858106206979000,1.91197900390625,0.004203000571578741,0.008767658844590187,-0.00660597113892436
1717858106217019000,1.922018798828125,0.004503937903791666,0.008767658844590187,-0.005885586142539978
1717858106227060000,1.93206005859375,0.002752376953139901,0.01007820013910532,-0.006262689363211393
1717858106237100800,1.942100830078125,0.004326571244746447,0.01133947353810072,-0.006232063286006451
1717858106247140900,1.952140869140625,0.004777444526553154,0.008020109497010708,-0.005429120268672705
1717858106257182000,1.962181884765625,0.0023441144730895758,0.008975918404757977,-0.006621683482080698
1717858106267222000,1.972221923828125,0.004259726032614708,0.010500045493245125,-0.005195294506847858
1717858106277262800,1.982262939453125,0.004232561681419611,0.010684069246053696,-0.0049007488414645195
1717858106287303000,1.992302978515625,0.004580636974424124,0.007256581448018551,-0.005751362536102533
1717858106297344000,2.002343994140625,0.004098871257156134,0.0075426045805215836,-0.00768801337108016
1717858106307385000,2.012385009765625,0.0031912659760564566,0.009549829177558422,-0.004078631289303303
1717858106317425000,2.0224248046875,0.0038927425630390644,0.010220413096249104,-0.004798749927431345
1717858106327466000,2.032466064453125,0.0030370689928531647,0.007165767718106508,-0.005388373974710703
1717858106337505800,2.042505859375,0.0031529164407402277,0.006764162797480822,-0.005058408249169588
1717858106347547000,2.052546875,0.004035487771034241,0.009394566528499126,-0.0037446708884090185
1717858106357587000,2.0625869140625,0.0031433289404958487,0.009467803873121738,-0.007334079127758741
1717858106367627800,2.072627685546875,0.0046906257048249245,0.006967095658183098,-0.005649896338582039
1717858106377668900,2.0826689453125,0.004905010107904673,0.00932372733950615,-0.00686163455247879
1717858106387709000,2.092708984375,0.005126318894326687,0.010390056297183037,-0.006869623903185129
1717858106397750000,2.10275,0.003007774008437991,0.010344250127673149,-0.004911668132990599
1717858106407789800,2.112789794921875,0.0035870117135345936,0.009277121163904667,-0.005568137392401695
1717858106417831000,2.122830810546875,0.004631769843399525,0.008820123039186,-0.007993744686245918
1717858106427871000,2.13287109375,0.005901831202208996,0.009474195539951324,-0.0052179316990077496
1717858106437912000,2.142912109375,0.0054730623960494995,0.009706955403089523,-0.006617955397814512
1717858106447953000,2.152952880859375,0.003772634081542492,0.008500011637806892,-0.005031510256230831
1717858106457993000,2.162992919921875,0.005106078926473856,0.008976982906460762,-0.0070219566114246845
1717858106468034000,2.173033935546875,0.00484295841306448,0.008371113799512386,-0.0051966262981295586
1717858106478073900,2.183073974609375,0.003078347770497203,0.009167132899165154,-0.0062552327290177345
1717858106488115200,2.193115234375,0.0049561429768800735,0.008963934145867825,-0.0062608253210783005
1717858106498155000,2.203155029296875,0.003925233148038387,0.008415855467319489,-0.0073468624614179134
1717858106508196000,2.213196044921875,0.004832572303712368,0.009485913440585136,-0.0056980992667376995
1717858106518237200,2.2232373046875,0.003139334265142679,0.0084877610206604,-0.006238987669348717
1717858106528277200,2.23327734375,0.0029017801862210035,0.007750065065920353,-0.00686190091073513
1717858106538318000,2.243318115234375,0.004334294702857733,0.007760451175272465,-0.00549250328913331
1717858106548358000,2.25335791015625,0.002840527566149831,0.00954104121774435,-0.006724747829139233
1717858106558399000,2.26339892578125,0.002424275502562523,0.008983108215034008,-0.006120743229985237
1717858106568439000,2.27343896484375,0.0018905780743807554,0.007691475562751293,-0.00478383619338274
1717858106578480000,2.283480224609375,0.00424268189817667,0.010182064026594162,-0.005300489254295826
1717858106588521000,2.29352099609375,0.004590224474668503,0.008494684472680092,-0.005674397107213736
1717858106598561000,2.30356103515625,0.0026730147656053305,0.01008219551295042,-0.006114617921411991
1717858106608602000,2.31360205078125,0.0017845842521637678,0.009437710046768188,-0.006345513742417097
1717858106618642200,2.32364208984375,0.0029116340447217226,0.010686732828617096,-0.005369731690734625
1717858106628683000,2.33368310546875,0.005075452383607626,0.009431052021682262,-0.005873069167137146
1717858106638723000,2.34372314453125,0.005567338317632675,0.008340488187968731,-0.00561128044500947
1717858106648764200,2.35376416015625,0.004179564770311117,0.009329053573310375,-0.005573729984462261
1717858106658805200,2.36380517578125,0.004180630203336477,0.007792675402015448,-0.005617938470095396
1717858106668845000,2.373844970703125,0.003224821761250496,0.00845713447779417,-0.006216883193701506
1717858106678886000,2.383885986328125,0.005073321983218193,0.0095658078789711,-0.007435812149196863
1717858106688926000,2.393926025390625,0.004186489153653383,0.009222793392837048,-0.0050687943585217
1717858106698967000,2.403967041015625,0.00373028963804245,0.00938950665295124,-0.005614742636680603
1717858106709007000,2.414007080078125,0.004848551005125046,0.009698966518044472,-0.004985703621059656
1717858106719048000,2.4240478515625,0.0033859428949654102,0.008017712272703648,-0.006043511442840099
1717858106729089000,2.434089111328125,0.002523078816011548,0.007905327714979649,-0.005293565336614847
1717858106739129000,2.444129150390625,0.004828843753784895,0.00878949649631977,-0.006725014187395573
1717858106749170200,2.454170166015625,0.005349225364625454,0.008617457002401352,-0.006163886282593012
1717858106759210000,2.4642099609375,0.00566986994817853,0.00962519645690918,-0.003596598980948329
1717858106769251000,2.4742509765625,0.0027505126781761646,0.011659053154289722,-0.004246410448104143
1717858106779291100,2.484291015625,0.004891161806881428,0.011961321346461773,-0.005021390039473772
1717858106789332200,2.494332275390625,0.005245095584541559,0.008795355446636677,-0.0067777447402477264
1717858106799373000,2.504373046875,0.003765443339943886,0.0032381375785917044,-0.007927431724965572
1717858106809412900,2.514412841796875,0.003413107246160507,0.008742891252040863,-0.0054765245877206326
1717858106819454000,2.524453857421875,0.00376064982265234,0.013250824064016342,-0.00404587434604764
1717858106829494000,2.534493896484375,0.003029345767572522,0.010407899506390095,-0.005028580781072378
1717858106839535000,2.54453515625,0.0023409186396747828,0.005923402961343527,-0.008170577697455883
1717858106849575200,2.5545751953125,0.0037553233560174704,0.0043952809646725655,-0.006854710169136524
1717858106859616000,2.564615966796875,0.0035156388767063618,0.010492854751646519,-0.005474926438182592
1717858106869657000,2.574656982421875,0.005095159634947777,0.014059892855584621,-0.003747866488993168
1717858106879697200,2.584697265625,0.0036754286848008633,0.010571950115263462,-0.005357747431844473
1717858106889738000,2.594738037109375,0.002365685999393463,0.005021390039473772,-0.007194796111434698
1717858106899778000,2.604778076171875,0.004283960908651352,0.007275755982846022,-0.005568669643253088
1717858106909819100,2.614819091796875,0.002335592173039913,0.01272937748581171,-0.00529596209526062
1717858106919859000,2.62485888671875,0.005440571811050177,0.010556770488619804,-0.005386243108659983
1717858106929900000,2.634900146484375,0.005783853121101856,0.0070733558386564255,-0.006079730577766895
1717858106939940900,2.64494091796875,0.0031707596499472857,0.008297344669699669,-0.0061535001732409
1717858106949981000,2.65498095703125,0.0021084246691316366,0.009853430092334747,-0.00669385539367795
1717858106960022000,2.66502197265625,0.003999801818281412,0.010402040556073189,-0.005820338614284992
1717858106970062000,2.67506201171875,0.003582484321668744,0.010280867107212543,-0.005245095584541559
1717858106980103000,2.68510302734375,0.005520200356841087,0.00806405209004879,-0.00577746145427227
1717858106990144000,2.69514404296875,0.0036064526066184044,0.008830242790281773,-0.00418276060372591
1717858107000184000,2.70518408203125,0.00324852392077446,0.01107315719127655,-0.005342833697795868
1717858107010225200,2.71522509765625,0.003222425002604723,0.00887977797538042,-0.0051750545389950275
1717858107020265200,2.72526513671875,0.003471430391073227,0.008171376772224903,-0.004424575716257095
1717858107030306000,2.73530615234375,0.004531368613243103,0.01034691371023655,-0.004412591457366943
1717858107040346000,2.74534619140625,0.003816842334344983,0.00908803753554821,-0.006087986286729574
1717858107050387200,2.75538720703125,0.004238953348249197,0.008627843111753464,-0.006776679772883654
1717858107060428000,2.765427978515625,0.002930276095867157,0.00923531036823988,-0.005701827816665173
1717858107070467800,2.7754677734375,0.00555109279230237,0.010369017720222473,-0.004679972771555185
1717858107080509000,2.785509033203125,0.002537193475291133,0.009350891225039959,-0.006188920233398676
1717858107090549000,2.795549072265625,0.003907123580574989,0.007995341904461384,-0.005932724103331566
1717858107100590000,2.805590087890625,0.003823500359430909,0.008592156693339348,-0.005502090789377689
1717858107110630100,2.815630126953125,0.0035049861762672663,0.009328787215054035,-0.00598492193967104
1717858107120671000,2.8256708984375,0.0037505298387259245,0.007952465675771236,-0.00589703768491745
1717858107130712000,2.835712158203125,0.005270928610116243,0.009101352654397488,-0.006561229936778545
1717858107140752100,2.845752197265625,0.003923369105905294,0.008227569982409477,-0.006057626102119684
1717858107150793000,2.85579296875,0.0046211169101297855,0.010303237475454807,-0.006158560048788786
1717858107160833000,2.8658330078125,0.003707386553287506,0.010356500744819641,-0.006284527480602264
1717858107170874000,2.8758740234375,0.004559597931802273,0.009704026393592358,-0.005693838465958834
1717858107180914200,2.8859140625,0.004055461846292019,0.00711809704080224,-0.00635057408362627
1717858107190955300,2.895955322265625,0.003334543900564313,0.009576993063092232,-0.005244829226285219
1717858107200996000,2.90599609375,0.004030694253742695,0.008162588812410831,-0.006579872220754623
1717858107211036000,2.916035888671875,0.0033246902748942375,0.008795355446636677,-0.006660832092165947
1717858107221077000,2.926076904296875,0.0030338731594383717,0.00872025452554226,-0.004820321686565876
1717858107231117000,2.936116943359375,0.0049617355689406395,0.008823319338262081,-0.006624612957239151
1717858107241158000,2.946157958984375,0.004032558295875788,0.010578874498605728,-0.0046120621263980865
1717858107251199000,2.956198974609375,0.0027651600539684296,0.008184160105884075,-0.005849633365869522
1717858107261239000,2.966239013671875,0.003765976056456566,0.007872836664319038,-0.0055028898641467094
1717858107271280000,2.976280029296875,0.004028297495096922,0.009347961284220219,-0.0052200620993971825
1717858107281320200,2.9863203125,0.0023816649336367846,0.010598049499094486,-0.0049068741500377655
1717858107291361000,2.996361083984375,0.005591306835412979,0.007932757958769798,-0.0049063414335250854
1717858107301401000,3.006401123046875,0.003448793664574623,0.008707737550139427,-0.006217948626726866
1717858107311442200,3.016442138671875,0.0033396040089428425,0.00945182517170906,-0.006119677796959877
1717858107321483000,3.02648291015625,0.003224821761250496,0.008817460387945175,-0.005556685384362936
1717858107331522800,3.036522705078125,0.0029353362042456865,0.009324259124696255,-0.005471730604767799
1717858107341564000,3.04656396484375,0.004800613969564438,0.009398295544087887,-0.005891977343708277
1717858107351604000,3.05660400390625,0.004218979738652706,0.009070992469787598,-0.005241899751126766
1717858107361645000,3.06664501953125,0.00436065997928381,0.009387909434735775,-0.006324208807200193
1717858107371685000,3.07668505859375,0.0033635725267231464,0.008541024290025234,-0.005883721634745598
1717858107381726000,3.086725830078125,0.00430073868483305,0.009458749555051327,-0.005904494319111109
1717858107391767000,3.09676708984375,0.0046568033285439014,0.010248109698295593,-0.005377987399697304
1717858107401807000,3.10680712890625,0.004874649923294783,0.008851282298564911,-0.0054938350804150105
1717858107411848200,3.11684814453125,0.0037175065372139215,0.010010822676122189,-0.004443218000233173
1717858107421888000,3.126887939453125,0.0046541402116417885,0.008531969040632248,-0.004576376173645258
1717858107431929000,3.13692919921875,0.004849350079894066,0.009809753857553005,-0.003938282374292612
1717858107441970200,3.14697021484375,0.0028748824261128902,0.008619054220616817,-0.005568137392401695
1717858107452010200,3.15701025390625,0.003615241264924407,0.008842759765684605,-0.006990265101194382
1717858107462051000,3.167051025390625,0.002596848411485553,0.009337575174868107,-0.006237389519810677
1717858107472091000,3.1770908203125,0.0038725025951862335,0.009135973639786243,-0.005562012083828449
1717858107482132000,3.187132080078125,0.004206995479762554,0.009792709723114967,-0.004965996369719505
1717858107492172500,3.197172607421875,0.004304200876504183,0.008185225538909435,-0.006621417589485645
1717858107502213400,3.20721337890625,0.004297542851418257,0.008666458539664745,-0.005979595705866814
1717858107512254500,3.21725439453125,0.0030839405953884125,0.010277670808136463,-0.0044176517985761166
1717858107522294500,3.22729443359375,0.003070358419790864,0.010372479446232319,-0.00541260838508606
1717858107532335600,3.237335693359375,0.003727892879396677,0.009412942454218864,-0.0054123420268297195
1717858107542375400,3.24737548828125,0.0026589001063257456,0.008134625852108002,-0.006509298458695412
1717858107552416300,3.257416259765625,0.002062085550278425,0.008799350820481777,-0.0062762717716395855
1717858107562456300,3.267456298828125,0.0034120420459657907,0.008048338815569878,-0.0049074068665504456
1717858107572497400,3.277497314453125,0.004037352278828621,0.009413741528987885,-0.006858971435576677
1717858107582538200,3.287538330078125,0.004565723240375519,0.009767409414052963,-0.005905027035623789
1717858107592578300,3.297578369140625,0.0037670412566512823,0.008839830756187439,-0.005608617328107357
1717858107602619400,3.307619384765625,0.00467651104554534,0.010172476060688496,-0.005126585252583027
1717858107612659500,3.317659423828125,0.0043649207800626755,0.008821188472211361,-0.00478383619338274
1717858107622700500,3.327700439453125,0.004005660768598318,0.00827683787792921,-0.005169994663447142
1717858107632741400,3.337741455078125,0.003457582090049982,0.008507467806339264,-0.005736715160310268
1717858107642781400,3.347781494140625,0.002642122097313404,0.009367669001221657,-0.006640592124313116
1717858107652822500,3.357822509765625,0.003799265483394265,0.006886135786771774,-0.005344964098185301
1717858107662862600,3.367862548828125,0.002984072081744671,0.00791704561561346,-0.005251487251371145
1717858107672903400,3.3779033203125,0.004011785611510277,0.008958607912063599,-0.006579073145985603
1717858107682943200,3.387943115234375,0.004991828929632902,0.009018794633448124,-0.007413707673549652
1717858107692984300,3.397984375,0.005507417023181915,0.00881852488964796,-0.004683168604969978
1717858107703025400,3.408025390625,0.005532983224838972,0.007900266908109188,-0.005255748517811298
1717858107713065500,3.4180654296875,0.0038895467296242714,0.010102967731654644,-0.006624347064644098
1717858107723106300,3.428106201171875,0.004454403184354305,0.009403888136148453,-0.004141747951507568
1717858107733146400,3.438146484375,0.0026844663079828024,0.009790578857064247,-0.0065103634260594845
1717858107743187500,3.4481875,0.004713262431323528,0.00953997578471899,-0.006178267300128937
1717858107753227500,3.4582275390625,0.003457049373537302,0.009260609745979309,-0.004071706905961037
1717858107763268400,3.468268310546875,0.0043990095146000385,0.009128517471253872,-0.005285043269395828
1717858107773309400,3.478309326171875,0.004947886802256107,0.0076299565844237804,-0.0054213968105614185
1717858107783349500,3.488349609375,0.0026674221735447645,0.008685633540153503,-0.006512494292110205
1717858107793390600,3.498390625,0.0035694348625838757,0.00951041467487812,-0.005789978429675102
1717858107803430400,3.508430419921875,0.0040823593735694885,0.00923264678567648,-0.0067716194316744804
1717858107813471200,3.51847119140625,0.003649862250313163,0.01218715775758028,-0.004070641472935677
1717858107823512300,3.52851220703125,0.003965713083744049,0.012085957452654839,-0.004254666157066822
1717858107833552400,3.538552490234375,0.003687146585434675,0.005993976723402739,-0.007069627288728952
1717858107843593500,3.548593505859375,0.00376011710613966,0.0031015174463391304,-0.007552991155534983
1717858107853633300,3.55863330078125,0.0031587753910571337,0.012887036427855492,-0.00321869645267725
1717858107863674400,3.56867431640625,0.00401711231097579,0.012943228706717491,-0.003626692807301879
1717858107873714400,3.57871435546875,0.00401551416143775,0.006340720225125551,-0.0056994310580194
1717858107883755500,3.588755615234375,0.003293264890089631,0.003683684393763542,-0.007956992834806442
1717858107893796400,3.59879638671875,0.001618136651813984,0.009413741528987885,-0.0073500582948327065
1717858107903836400,3.60883642578125,0.0048424256965518,0.011465175077319145,-0.006023005116730928
1717858107913877500,3.61887744140625,0.003763312939554453,0.010868893004953861,-0.007534082513302565
1717858107923917600,3.62891748046875,0.0043928842060267925,0.004996090196073055,-0.0065503111109137535
1717858107933958700,3.638958740234375,0.0037590519059449434,0.008076568134129047,-0.007195861078798771
1717858107943999500,3.64899951171875,0.0038509308360517025,0.011128817684948444,-0.005230714567005634
1717858107954039300,3.659039306640625,0.0028847360517829657,0.009709086269140244,-0.006137521006166935
1717858107964080400,3.669080322265625,0.004067179746925831,0.005815278738737106,-0.0073228939436376095
1717858107974120400,3.679120361328125,0.0029313412960618734,0.009220129810273647,-0.00538571085780859
1717858107984161300,3.689161376953125,0.003870105603709817,0.010995392687618732,-0.005812349263578653
1717858107994201300,3.699201416015625,0.003623763332143426,0.009823069907724857,-0.006868558935821056
1717858108004242400,3.709242431640625,0.005113269202411175,0.009032110683619976,-0.0073356772772967815
1717858108014283500,3.719283447265625,0.004667722620069981,0.009081113152205944,-0.005089300684630871
1717858108024323600,3.729323486328125,0.004430168308317661,0.011664912104606628,-0.007069094572216272
1717858108034364400,3.739364501953125,0.003942543640732765,0.010162889026105404,-0.005105279851704836
1717858108044404500,3.749404541015625,0.004034156445413828,0.008445150218904018,-0.005654689855873585
1717858108054445600,3.759445556640625,0.0032661007717251778,0.008971923030912876,-0.0057708038948476315
1717858108064486400,3.769486328125,0.003440005239099264,0.008788431994616985,-0.0067726848646998405
1717858108074526200,3.779526123046875,0.0017680726014077663,0.00800040178000927,-0.005987851414829493
1717858108084567300,3.7895673828125,0.0030514500103890896,0.010351174511015415,-0.005400890484452248
1717858108094607400,3.799607421875,0.004395014606416225,0.00842570886015892,-0.005215268116444349
1717858108104648400,3.8096484375,0.004173972178250551,0.009381251409649849,-0.005397961009293795
1717858108114688500,3.8196884765625,0.0046607982367277145,0.008971123956143856,-0.006028597708791494
1717858108124729300,3.829729248046875,0.0040946099907159805,0.009179383516311646,-0.005020591430366039
1717858108134770400,3.8397705078125,0.004706604406237602,0.009581254795193672,-0.0073532541282474995
1717858108144810500,3.849810546875,0.004013117402791977,0.008297344669699669,-0.006758037488907576
1717858108154851300,3.859851318359375,0.004157727118581533,0.00780439330264926,-0.0065409899689257145
1717858108164891400,3.869891357421875,0.004001399502158165,0.009271794930100441,-0.005997971165925264
1717858108174932500,3.879932373046875,0.003944940399378538,0.008290420286357403,-0.005554022267460823
1717858108184973600,3.8899736328125,0.005029379855841398,0.008161523379385471,-0.005558283533900976
1717858108195013600,3.900013671875,0.003992611076682806,0.0075905416160821915,-0.006030728109180927
1717858108205054500,3.910054443359375,0.0029084382113069296,0.00899908784776926,-0.00666535971686244
1717858108215094300,3.92009423828125,0.003425091505050659,0.009522398933768272,-0.006265352945774794
1717858108225135400,3.93013525390625,0.004740959499031305,0.008824916556477547,-0.006493585649877787
1717858108235175400,3.940175537109375,0.0031196267809718847,0.00830746442079544,-0.007517837453633547
1717858108245216300,3.95021630859375,0.0035776905715465546,0.009612147696316242,-0.005744970869272947
1717858108255257300,3.96025732421875,0.004628574009984732,0.007868043147027493,-0.006202502176165581
1717858108265297400,3.97029736328125,0.002764893928542733,0.008957009762525558,-0.007143663242459297
1717858108275338500,3.98033837890625,0.0033939324785023928,0.008872853592038155,-0.005023520905524492
1717858108285378600,3.990378662109375,0.003953196108341217,0.008782838471233845,-0.005841909907758236
1717858108295419400,4.00041943359375,0.0036184368655085564,0.010656372644007206,-0.00512951472774148
1717858108305460500,4.01046044921875,0.004033357370644808,0.008655006997287273,-0.004513791762292385
1717858108315500500,4.02050048828125,0.005631786771118641,0.006455236114561558,-0.0064957160502672195
1717858108325541400,4.030541259765625,0.003969707991927862,0.008645952679216862,-0.007049920037388802
1717858108335581400,4.04058154296875,0.0012357067316770554,0.010467820800840855,-0.005813147872686386
1717858108345622500,4.05062255859375,0.004577174782752991,0.00939270295202732,-0.005495699122548103
1717858108355662300,4.060662353515625,0.002865294925868511,0.008076036348938942,-0.007225688546895981
1717858108365703400,4.070703369140625,0.0037063213530927896,0.008831308223307133,-0.005672266706824303
1717858108375744300,4.080744140625,0.0036493295338004827,0.009829727932810783,-0.00475507415831089
1717858108385784300,4.090784423828125,0.004026433452963829,0.01104546058923006,-0.005802495405077934
1717858108395825400,4.100825439453125,0.0029997846577316523,0.009436378255486488,-0.00541260838508606
1717858108405865500,4.110865478515625,0.005063468124717474,0.008085090667009354,-0.0065162223763763905
1717858108415906300,4.12090625,0.0032951291650533676,0.009374060668051243,-0.00574896577745676
1717858108425947400,4.130947509765625,0.0046935551799833775,0.010114419274032116,-0.0052179316990077496
1717858108435987500,4.140987548828125,0.0031201594974845648,0.009443835355341434,-0.0055228634737432
1717858108446028500,4.151028564453125,0.005323126446455717,0.008590558543801308,-0.005620601586997509
1717858108456068600,4.161068603515625,0.004512992687523365,0.008685633540153503,-0.006219279952347279
1717858108466109400,4.171109375,0.0030948594212532043,0.008988169021904469,-0.00612340634688735
1717858108476150500,4.181150634765625,0.0038754320703446865,0.008627576753497124,-0.005940447095781565
1717858108486190300,4.1911904296875,0.003123355330899358,0.009241169318556786,-0.007905594073235989
1717858108496231200,4.201231201171875,0.005278385244309902,0.00811864621937275,-0.006311159115284681
1717858108506271200,4.211271240234375,0.004199006129056215,0.009485380724072456,-0.007394799496978521
1717858108516312000,4.22131201171875,0.004266916774213314,0.009912019595503807,-0.005226986017078161
1717858108526352100,4.23135205078125,0.0032237565610557795,0.009586048312485218,-0.00566827179864049
1717858108536393200,4.241393310546875,0.003626426449045539,0.00962972454726696,-0.005568936001509428
1717858108546434000,4.25143408203125,0.002360359765589237,0.008688828907907009,-0.006429936271160841
1717858108556474000,4.26147412109375,0.004763862583786249,0.009633985348045826,-0.0070611052215099335
1717858108566515200,4.27151513671875,0.0046173888258636,0.009362342767417431,-0.006964432541280985
1717858108576555300,4.28155517578125,0.003907123580574989,0.008951683528721333,-0.005615541245788336
1717858108586596400,4.291596435546875,0.003968109842389822,0.009287508204579353,-0.006056561134755611
1717858108596637200,4.30163720703125,0.004226702731102705,0.009170595556497574,-0.004792890977114439
1717858108606677000,4.311677001953125,0.00606481684371829,0.009385778568685055,-0.004567853640764952
1717858108616718300,4.32171826171875,0.0035422705113887787,0.008963401429355145,-0.006803844124078751
1717858108626758100,4.331758056640625,0.0034610440488904715,0.007622499484568834,-0.00632074661552906
1717858108636799000,4.341799072265625,0.002892459277063608,0.009240370243787766,-0.005966546013951302
1717858108646839000,4.351839111328125,0.0043808999471366405,0.009650763124227524,-0.005845638457685709
1717858108656880000,4.361880126953125,0.0030069751664996147,0.008110390976071358,-0.006566289812326431
1717858108666921200,4.371921142578125,0.005494900047779083,0.009578591212630272,-0.006795321591198444
1717858108676961300,4.381961181640625,0.004190217703580856,0.008684301748871803,-0.005606486462056637
1717858108687002000,4.392002197265625,0.0027174896094948053,0.007385478354990482,-0.007250722497701645
1717858108697042200,4.402042236328125,0.005323126446455717,0.00875088106840849,-0.005359611473977566
1717858108707083300,4.412083251953125,0.0029553098138421774,0.008567389100790024,-0.005877596326172352
1717858108717124000,4.4221240234375,0.004540689755231142,0.008067247457802296,-0.0056980992667376995
1717858108727164200,4.4321640625,0.0034764904994517565,0.0091130705550313,-0.006234992761164904
1717858108737205200,4.442205322265625,0.004128698725253344,0.00902545265853405,-0.006972954608500004
1717858108747245000,4.4522451171875,0.003732952754944563,0.009167399257421494,-0.006714894436299801
1717858108757286100,4.4622861328125,0.0044115264900028706,0.010088054463267326,-0.0057593523524701595
1717858108767327000,4.472326904296875,0.0055031562224030495,0.010319748893380165,-0.007245129905641079
1717858108777367000,4.482366943359375,0.004768123384565115,0.010526410304009914,-0.0051596080884337425
1717858108787408100,4.492408203125,0.003981159534305334,0.009751963429152966,-0.005644037388265133
1717858108797448200,4.5024482421875,0.006126335822045803,0.008716792799532413,-0.006703176535665989
1717858108807489300,4.5124892578125,0.004891161806881428,0.009905095212161541,-0.005864547099918127
1717858108817530000,4.522530029296875,0.004998486954718828,0.009080580435693264,-0.005596633069217205
1717858108827570200,4.532570068359375,0.0046842340379953384,0.009150887839496136,-0.007267233915627003
1717858108837611300,4.542611328125,0.0022772690281271935,0.00791358295828104,-0.004216849338263273
1717858108847651300,4.5526513671875,0.0054855793714523315,0.010655040852725506,-0.0037143107037991285
1717858108857692200,4.562692138671875,0.004034689161926508,0.011831891722977161,-0.003805390791967511
1717858108867732200,4.572732177734375,0.0032980586402118206,0.00866246409714222,-0.005576393101364374
1717858108877773300,4.582773193359375,0.004561728797852993,0.0032706281635910273,-0.007697068154811859
1717858108887814400,4.592814453125,0.004324707202613354,0.009161540307104588,-0.005209941882640123
1717858108897854200,4.602854248046875,0.003057841444388032,0.014031130820512772,-0.004698082339018583
1717858108907895000,4.61289501953125,0.005287173669785261,0.01116556953638792,-0.004022971261292696
1717858108917935000,4.62293505859375,0.004138552118092775,0.008153000846505165,-0.005653358530253172
1717858108927976200,4.63297607421875,0.003922570031136274,0.005929528269916773,-0.006932741031050682
1717858108938017000,4.64301708984375,0.0030538467690348625,0.008113319985568523,-0.0070078419521451
1717858108948057000,4.65305712890625,0.003245594445616007,0.013858024962246418,-0.0050701261498034
1717858108958098200,4.66309814453125,0.005739111918956041,0.012177304364740849,-0.0057404437102377415
1717858108968138200,4.67313818359375,0.003972104750573635,0.005714078433811665,-0.0070616379380226135
1717858108978179300,4.683179443359375,0.004844556096941233,0.006478938274085522,-0.006996390409767628
1717858108988220200,4.69322021484375,0.0034373418893665075,0.010218016803264618,-0.004821386653929949
1717858108998260200,4.70326025390625,0.004172374494373798,0.013336578384041786,-0.005364405456930399
1717858109008301300,4.71330126953125,0.004612328484654427,0.007847003638744354,-0.005652293097227812
1717858109018341000,4.723341064453125,0.003931092098355293,0.007509315386414528,-0.006000102031975985
1717858109028382000,4.7333818359375,0.004431233741343021,0.008948220871388912,-0.007796936668455601
1717858109038422000,4.743422119140625,0.003994741477072239,0.009806823916733265,-0.005273858085274696
1717858109048463000,4.753463134765625,0.004384628497064114,0.011650530621409416,-0.005166798830032349
1717858109058504200,4.763504150390625,0.0027718180790543556,0.008678975515067577,-0.004543352872133255
1717858109068544300,4.773544189453125,0.0033041839487850666,0.008123706094920635,-0.007083741948008537
1717858109078585000,4.783585205078125,0.0024258734192699194,0.009151420556008816,-0.006041114684194326
1717858109088625200,4.793625244140625,0.004011785611510277,0.009913350455462933,-0.004502073861658573
1717858109098666200,4.803666259765625,0.004495682194828987,0.010070743970572948,-0.007227020338177681
1717858109108707000,4.81370703125,0.002898051869124174,0.009275523945689201,-0.006773750297725201
1717858109118747100,4.8237470703125,0.003635747591033578,0.009501093067228794,-0.0051681301556527615
1717858109128788200,4.833788330078125,0.004194212146103382,0.008126369677484035,-0.00564004248008132
1717858109138828300,4.843828369140625,0.004916728008538485,0.010384730063378811,-0.006439789664000273
1717858109148869400,4.853869384765625,0.003876230912283063,0.009560748003423214,-0.006109025329351425
1717858109158910200,4.86391015625,0.004544684197753668,0.007327421568334103,-0.006691991351544857
1717858109168950000,4.873949951171875,0.005014466121792793,0.008805476129055023,-0.005021123681217432
1717858109178991000,4.8839912109375,0.003722033929079771,0.008137288503348827,-0.005316468421369791
1717858109189031200,4.89403125,0.004376372788101435,0.009366070851683617,-0.005073854699730873
1717858109199072000,4.904072021484375,0.0037233654875308275,0.009906427003443241,-0.005811816547065973
1717858109209113000,4.914113037109375,0.004312989301979542,0.0092347776517272,-0.006914631463587284
1717858109219153200,4.924153076171875,0.00358860963024199,0.008452607318758965,-0.007832889445126057
1717858109229194200,4.9341943359375,0.004034422803670168,0.00954050850123167,-0.006219546310603619
1717858109239234300,4.944234375,0.0038360171020030975,0.01070723868906498,-0.006327936891466379
1717858109249275100,4.954275146484375,0.004066913388669491,0.00977273564785719,-0.0046791741624474525
1717858109259316200,4.964316162109375,0.004548146389424801,0.00666269613429904,-0.00600462919101119
1717858109269356300,4.974356201171875,0.0037143107037991285,0.010014284402132034,-0.005459746345877647
1717858109279397400,4.9843974609375,0.0034088462125509977,0.010791128501296043,-0.005829926114529371
1717858109289437000,4.99443701171875,0.003934021573513746,0.008101335726678371,-0.0051835766062140465
1717858109299478000,5.00447802734375,0.0049156625755131245,0.007309312000870705,-0.006933805998414755
1717858109309518000,5.01451806640625,0.0038626487366855145,0.00902625173330307,-0.007547398563474417
1717858109319559200,5.02455908203125,0.0047835698351264,0.009920807555317879,-0.004310326185077429
1717858109329600000,5.03460009765625,0.006395847536623478,0.009814014658331871,-0.005294098053127527
1717858109339640000,5.04464013671875,0.00410419749096036,0.007751662749797106,-0.006887733470648527
1717858109349681200,5.05468115234375,0.0033923345617949963,0.007111439015716314,-0.005060538649559021
1717858109359721200,5.06472119140625,0.003338006092235446,0.010526676662266254,-0.007272027432918549
1717858109369762300,5.07476220703125,0.0021845910232514143,0.009707221761345863,-0.0054693338461220264
1717858109379803100,5.08480322265625,0.005116465035825968,0.009199091233313084,-0.006231264211237431
1717858109389843200,5.09484326171875,0.00381444557569921,0.008256332017481327,-0.005343632772564888
1717858109399884300,5.10488427734375,0.0033047166652977467,0.009439308196306229,-0.0070192934945225716
1717858109409924400,5.11492431640625,0.004652542527765036,0.009069395251572132,-0.006624879315495491
1717858109419965200,5.124965087890625,0.00493217445909977,0.008790828287601471,-0.005344431847333908
1717858109430006300,5.13500634765625,0.0026439863722771406,0.008801214396953583,-0.006687730085104704
1717858109440046000,5.145046142578125,0.004497013986110687,0.009435313753783703,-0.005542038008570671
1717858109450087200,5.155087158203125,0.0030088394414633512,0.009545834735035896,-0.005358812864869833
1717858109460127200,5.165127197265625,0.004024302586913109,0.007809453643858433,-0.006713296286761761
1717858109470168000,5.17516796875,0.0046211169101297855,0.009736782871186733,-0.006343383342027664
1717858109480209200,5.185209228515625,0.0038373488932847977,0.009038768708705902,-0.004571315832436085
1717858109490250000,5.19525,0.00461552431806922,0.007960720919072628,-0.004240551497787237
1717858109500290800,5.205290771484375,0.0033872744534164667,0.007752461824566126,-0.006054163910448551
1717858109510331000,5.215330810546875,0.003441869281232357,0.009280583821237087,-0.004627774935215712
1717858109520372000,5.2253720703125,0.003790477057918906,0.010819890536367893,-0.005135373678058386
1717858109530412000,5.235412109375,0.0048797097988426685,0.010113886557519436,-0.006198240909725428
1717858109540452900,5.245452880859375,0.003266633255407214,0.007488542702049017,-0.005209941882640123
1717858109550494000,5.255493896484375,0.004454136826097965,0.008227037265896797,-0.006850981619209051
1717858109560534000,5.265533935546875,0.003353186184540391,0.009289638139307499,-0.004480235744267702
1717858109570575000,5.2755751953125,0.004168113227933645,0.009557286277413368,-0.006047506351023912
1717858109580615200,5.285615234375,0.003955060616135597,0.006917560938745737,-0.0073348782025277615
1717858109590656000,5.295656005859375,0.002925216220319271,0.007791610434651375,-0.004290885291993618
1717858109600697000,5.305697021484375,0.004191549029201269,0.010517622344195843,-0.005129780620336533
1717858109610737000,5.31573681640625,0.004620051942765713,0.009938917122781277,-0.004975317511707544
1717858109620778000,5.325778076171875,0.004126567859202623,0.007981227710843086,-0.005721535068005323
1717858109630817800,5.33581787109375,0.0028839372098445892,0.008098673075437546,-0.007545800413936377
1717858109640859000,5.34585888671875,0.0034077810123562813,0.009806557558476925,-0.005374791566282511
1717858109650900000,5.35589990234375,0.002627741079777479,0.010362359695136547,-0.006253368686884642
1717858109660940000,5.36593994140625,0.00433029979467392,0.009534116834402084,-0.004761998075991869
1717858109670980900,5.37598095703125,0.003692206460982561,0.0093317162245512,-0.006590791046619415
1717858109681021000,5.38602099609375,0.00469568558037281,0.009335178881883621,-0.006454969756305218
1717858109691062000,5.39606201171875,0.0049553439021110535,0.009211874566972256,-0.006418218370527029
1717858109701102800,5.406102783203125,0.003459712490439415,0.008813997730612755,-0.006631537340581417
1717858109711143000,5.416142822265625,0.004896221682429314,0.009548497386276722,-0.005544967483729124
1717858109721184000,5.42618408203125,0.003988349810242653,0.008082161657512188,-0.005078381858766079
1717858109731224000,5.43622412109375,0.0029965888243168592,0.009535448625683784,-0.0056890444830060005
1717858109741265200,5.44626513671875,0.005596899427473545,0.009442769922316074,-0.005317800212651491
1717858109751305000,5.456304931640625,0.003855724586173892,0.010129067115485668,-0.007279218174517155
1717858109761345800,5.466345703125,0.003958788700401783,0.00863183755427599,-0.0059841228649020195
1717858109771387000,5.476386962890625,0.004444815684109926,0.009183910675346851,-0.006307963281869888
1717858109781427000,5.486427001953125,0.004775314126163721,0.008124238811433315,-0.005161738954484463
1717858109791468000,5.496468017578125,0.0046538738533854485,0.008991630747914314,-0.006792126223444939
1717858109801507800,5.5065078125,0.004128698725253344,0.009757556021213531,-0.007223558146506548
1717858109811549000,5.516548828125,0.003834685543552041,0.008773251436650753,-0.0059897154569625854
1717858109821590000,5.526590087890625,0.0054605454206466675,0.007458182517439127,-0.004662662278860807
1717858109831630000,5.536630126953125,0.0032173648942261934,0.011088604107499123,-0.004073305055499077
1717858109841671000,5.5466708984375,0.0025989788118749857,0.012209261767566204,-0.004545483272522688
1717858109851711000,5.5567109375,0.004079164005815983,0.008759935386478901,-0.006840595509856939
1717858109861752000,5.566751953125,0.005164135713130236,0.0014450311427935958,-0.008405202999711037
1717858109871793200,5.576793212890625,0.00466505903750658,0.011224957183003426,-0.005507683381438255
1717858109881833000,5.5868330078125,0.002547047333791852,0.015857527032494545,-0.004202201962471008
1717858109891874000,5.5968740234375,0.005337241105735302,0.006085056811571121,-0.007546333130449057
1717858109901913900,5.606913818359375,0.0035302862524986267,0.0046762446872889996,-0.006570284720510244
1717858109911955000,5.616954833984375,0.0026999127585440874,0.0109474565833807,-0.005537510849535465
1717858109921995800,5.626995849609375,0.004255465231835842,0.013067332096397877,-0.00637960247695446
1717858109932035800,5.637035888671875,0.004715659189969301,0.008929046802222729,-0.006933539640158415
1717858109942077000,5.647076904296875,0.0035952674224972725,0.0057162088342010975,-0.006630206014961004
1717858109952117000,5.657116943359375,0.003724164329469204,0.009040100499987602,-0.006741259712725878
1717858109962158000,5.667157958984375,0.0035052525345236063,0.014460432343184948,-0.00373108871281147
1717858109972198000,5.677197998046875,0.0037920749746263027,0.010243848897516727,-0.005520466715097427
1717858109982239000,5.687239013671875,0.004540157038718462,0.003620034782215953,-0.006989732384681702
1717858109992280000,5.697280029296875,0.0031491878908127546,0.008941829204559326,-0.005425658077001572
1717858110002320100,5.707320068359375,0.003989415243268013,0.012503008358180523,-0.004875182639807463
1717858110012361000,5.71736083984375,0.004009921569377184,0.010469685308635235,-0.005829659756273031
1717858110022400800,5.72740087890625,0.0046394928358495235,0.006244846619665623,-0.006262423470616341
1717858110032441900,5.73744189453125,0.0033846113365143538,0.007340204436331987,-0.00436145905405283
1717858110042483000,5.74748291015625,0.0028458540327847004,0.011945875361561775,-0.00529729388654232
1717858110052523000,5.75752294921875,0.003613909473642707,0.011276889592409134,-0.005504753906279802
1717858110062563800,5.767563720703125,0.002974484581500292,0.0044016726315021515,-0.006439789664000273
1717858110072604000,5.77760400390625,0.005107143893837929,0.009107744321227074,-0.00621155695989728
1717858110082645000,5.78764501953125,0.003968642558902502,0.012271047569811344,-0.004505269695073366
1717858110092685800,5.797685791015625,0.004532167688012123,0.01037647482007742,-0.004081827122718096
1717858110102726000,5.807725830078125,0.0034256239887326956,0.007013967260718346,-0.0067630973644554615
1717858110112767000,5.81776708984375,0.004334561061114073,0.009248891845345497,-0.0059721386060118675
1717858110122807000,5.82780712890625,0.003376888344064355,0.011316037736833096,-0.005114600993692875
1717858110132848000,5.83784814453125,0.0039278962649405,0.010385795496404171,-0.0046663908287882805
1717858110142889000,5.847888916015625,0.004049602895975113,0.0073596457950770855,-0.0070520504377782345
1717858110152929000,5.857928955078125,0.0034461303148418665,0.008898952975869179,-0.0062768044881522655
1717858110162970000,5.86797021484375,0.004776645917445421,0.011108843609690666,-0.00475454144179821
1717858110173010000,5.878010009765625,0.0032655680552124977,0.009770072996616364,-0.004914331249892712
1717858110183050800,5.88805078125,0.0031129689887166023,0.00697907991707325,-0.005667206831276417
1717858110193090800,5.8980908203125,0.0036770266015082598,0.007439007982611656,-0.006720487028360367
1717858110203132000,5.9081318359375,0.002239984693005681,0.011319233104586601,-0.005298092495650053
1717858110213173000,5.918173095703125,0.005567338317632675,0.009188172407448292,-0.0057071540504693985
1717858110223213000,5.928213134765625,0.004877845756709576,0.008712264709174633,-0.004822718445211649
1717858110233254000,5.93825390625,0.0049196574836969376,0.008638761937618256,-0.007187605369836092
1717858110243294000,5.9482939453125,0.0031055121216923,0.010549313388764858,-0.006875749211758375
1717858110253335000,5.9583349609375,0.003775297198444605,0.007580687757581472,-0.007999070920050144
1717858110263376000,5.9683759765625,0.0021766014397144318,0.00875913631170988,-0.006156163290143013
1717858110273416000,5.978416015625,0.003314303932711482,0.010515757836401463,-0.004881307948380709
1717858110283457000,5.98845703125,0.003835750976577401,0.009401224553585052,-0.005465605296194553
1717858110293496800,5.998496826171875,0.0046416232362389565,0.00791571382433176,-0.005917810369282961
1717858110303538200,6.0085380859375,0.004190750420093536,0.007387608755379915,-0.006696784868836403
1717858110313579000,6.0185791015625,0.0030594393610954285,0.009259544312953949,-0.004157460760325193
1717858110323618800,6.028618896484375,0.0037084517534822226,0.010364490561187267,-0.0062855929136276245
1717858110333660000,6.038659912109375,0.00424241553992033,0.008901082910597324,-0.005904227960854769
1717858110343700000,6.048699951171875,0.004178233444690704,0.007442469708621502,-0.007158843334764242
1717858110353741000,6.058740966796875,0.004792890977114439,0.010133327916264534,-0.006083725020289421
1717858110363782000,6.068781982421875,0.0034232272300869226,0.009380985051393509,-0.005277319811284542
1717858110373822000,6.078822021484375,0.0032650355715304613,0.0070611052215099335,-0.0051508196629583836
1717858110383863000,6.088863037109375,0.004867193289101124,0.006235525477677584,-0.006725280545651913
1717858110393903000,6.098903076171875,0.0038032603915780783,0.008653675206005573,-0.006984406150877476
1717858110403944000,6.10894384765625,0.0033007217571139336,0.01020017359405756,-0.005456284619867802
1717858110413984000,6.11898388671875,0.002861566608771682,0.008446748368442059,-0.005331914871931076
1717858110424025000,6.129025146484375,0.0027888622134923935,0.009333847090601921,-0.005621932912617922
1717858110434066200,6.139066162109375,0.005849633365869522,0.010083260014653206,-0.0067995828576385975
1717858110444106000,6.14910595703125,0.004627774935215712,0.008027033880352974,-0.00526720006018877
1717858110454146800,6.159146728515625,0.003799265483394265,0.008725048042833805,-0.005018194206058979
1717858110464187000,6.169186767578125,0.0025129588320851326,0.008986837230622768,-0.004830974154174328
1717858110474228000,6.17922802734375,0.0032890038564801216,0.008963135071098804,-0.00583844818174839
1717858110484268800,6.189268798828125,0.004347078036516905,0.0087205208837986,-0.005242166109383106
1717858110494308400,6.199308349609375,0.004066114313900471,0.009880327619612217,-0.006582268979400396
1717858110504349400,6.209349365234375,0.0031039142049849033,0.011037470772862434,-0.005357481073588133
1717858110514389500,6.219389404296875,0.004670917987823486,0.011097392067313194,-0.0054544201120734215
1717858110524430600,6.2294306640625,0.004144411068409681,0.009701895527541637,-0.004576642066240311
1717858110534471400,6.239471435546875,0.0034844798501580954,0.009251289069652557,-0.005033907014876604
1717858110544511200,6.24951123046875,0.0038104509003460407,0.009771137498319149,-0.005656553898006678
1717858110554552300,6.25955224609375,0.0036732980515807867,0.008829976432025433,-0.004998220596462488
1717858110564592400,6.26959228515625,0.0028969866689294577,0.008825182914733887,-0.005780657287687063
1717858110574633500,6.279633544921875,0.0032237565610557795,0.009344499558210373,-0.006076002027839422
1717858110584673300,6.28967333984375,0.0035950010642409325,0.009369000792503357,-0.005766009911894798
1717858110594714400,6.29971435546875,0.00330311874859035,0.010053698904812336,-0.004866926930844784
1717858110604755500,6.30975537109375,0.004857605788856745,0.009255549870431423,-0.006450708955526352
1717858110614795500,6.31979541015625,0.005078914575278759,0.009198025800287724,-0.00669358903542161
1717858110624836400,6.32983642578125,0.003640807466581464,0.007976965978741646,-0.0059811933897435665
1717858110634876400,6.33987646484375,0.0024924525059759617,0.009915214963257313,-0.005366003140807152
1717858110644917500,6.34991748046875,0.0043308325111866,0.008535697124898434,-0.005847502965480089
1717858110654958600,6.35995849609375,0.002924150787293911,0.00791384931653738,-0.005771602503955364
1717858110664998700,6.36999853515625,0.005132710561156273,0.009255283512175083,-0.005057076457887888
1717858110675039500,6.38003955078125,0.003687146585434675,0.008769256994128227,-0.006043511442840099
1717858110685079300,6.390079345703125,0.003914047963917255,0.00894103106111288,-0.004737230949103832
1717858110695120400,6.400120361328125,0.004731638357043266,0.00917565543204546,-0.005471996963024139
1717858110705161200,6.4101611328125,0.004569185432046652,0.008485097438097,-0.00782463327050209
1717858110715201300,6.420201171875,0.004042944870889187,0.010516556911170483,-0.006086654495447874
1717858110725242400,6.430242431640625,0.004029096569865942,0.009052883833646774,-0.005910885985940695
1717858110735282400,6.440282470703125,0.0036482643336057663,0.007860053330659866,-0.004973187111318111
1717858110745323500,6.450323486328125,0.002311357529833913,0.009729593060910702,-0.0054304515942931175
1717858110755364400,6.4603642578125,0.0031731564085930586,0.007761516608297825,-0.005051217507570982
1717858110765404400,6.470404296875,0.004200071096420288,0.009952233172953129,-0.0062336609698832035
1717858110775445500,6.480445556640625,0.004459729418158531,0.009980728849768639,-0.006325806491076946
1717858110785485600,6.490485595703125,0.003614442190155387,0.0100212087854743,-0.004601942375302315
1717858110795526400,6.5005263671875,0.004290885291993618,0.009042496792972088,-0.005035238806158304
1717858110805567500,6.5105673828125,0.003979029133915901,0.010042780078947544,-0.006442719139158726
1717858110815607300,6.520607177734375,0.0037915424909442663,0.008983907289803028,-0.005539641249924898
1717858110825648400,6.5306484375,0.0036578518338501453,0.009486712515354156,-0.005617405753582716
1717858110835688400,6.5406884765625,0.003436543047428131,0.009008408524096012,-0.004987834487110376
1717858110845729300,6.550729248046875,0.003754258155822754,0.008933840319514275,-0.006327936891466379
1717858110855769300,6.560769287109375,0.004162254277616739,0.009349026717245579,-0.004733502399176359
1717858110865810400,6.570810546875,0.003367567202076316,0.011782623827457428,-0.0034786208998411894
1717858110875851500,6.5808515625,0.006112221162766218,0.01218689139932394,-0.004237888380885124
1717858110885891300,6.590891357421875,0.004771851934492588,0.010756773874163628,-0.005339105147868395
1717858110895932400,6.600932373046875,0.005735383834689856,0.0029696908313781023,-0.007547664921730757
1717858110905972500,6.610972412109375,0.002772616920992732,0.008842759765684605,-0.0065170214511454105
1717858110916013600,6.621013671875,0.004430168308317661,0.016980580985546112,-0.003489273600280285
1717858110926054400,6.631054443359375,0.0035278894938528538,0.008138087578117847,-0.005224589258432388
1717858110936094500,6.641094482421875,0.004522047471255064,0.0033928672783076763,-0.006997189484536648
1717858110946135600,6.651135498046875,0.005041896365582943,0.010923221707344055,-0.005869606975466013
1717858110956175400,6.66117529296875,0.0057532270438969135,0.014817561954259872,-0.00446825148537755
1717858110966216400,6.671216552734375,0.004516987595707178,0.008681905455887318,-0.00598545465618372
1717858110976257300,6.68125732421875,0.0032679650466889143,0.007029680069535971,-0.006819290108978748
1717858110986297300,6.69129736328125,0.003897003596648574,0.0079721724614501,-0.0062823970802128315
1717858110996338400,6.70133837890625,0.005885586142539978,0.011578092351555824,-0.004841360729187727
1717858111006378500,6.71137841796875,0.003829892026260495,0.009346364066004753,-0.005438441410660744
1717858111016419300,6.72141943359375,0.003899666713550687,0.005411010701209307,-0.007020092569291592
1717858111026459400,6.73145947265625,0.004492220003157854,0.005529787857085466,-0.006403836887329817
1717858111036500500,6.74150048828125,0.00367116741836071,0.012761068530380726,-0.003438939806073904
1717858111046541600,6.75154150390625,0.004914863966405392,0.009162605740129948,-0.0054424358531832695
1717858111056581400,6.761581298828125,0.004354801028966904,0.00589570589363575,-0.007411577273160219
1717858111066622500,6.77162255859375,0.002290318487212062,0.010500578209757805,-0.00549170421436429
1717858111076662500,6.78166259765625,0.004219512455165386,0.012382101267576218,-0.005464540328830481
1717858111086703600,6.79170361328125,0.004199538845568895,0.009787117131054401,-0.005303951445966959
1717858111096744400,6.801744384765625,0.0027827369049191475,0.0076097166165709496,-0.005419532768428326
1717858111106784300,6.8117841796875,0.002959570847451687,0.009002283215522766,-0.005932191386818886
1717858111116825300,6.821825439453125,0.003882888937368989,0.010446782223880291,-0.005419000051915646
1717858111126865400,6.831865478515625,0.003692739177495241,0.008565524592995644,-0.006131928414106369
1717858111136906500,6.841906494140625,0.004352670628577471,0.006295446306467056,-0.00552206439897418
1717858111146947300,6.851947265625,0.0030897995457053185,0.006742857396602631,-0.006393450777977705
1717858111156987400,6.8619873046875,0.003183809109032154,0.01230726670473814,-0.004249872639775276
1717858111167028500,6.872028564453125,0.0031273500062525272,0.010074738413095474,-0.004652808886021376
1717858111177068500,6.882068603515625,0.00455693481490016,0.006687730085104704,-0.005257612559944391
1717858111187109400,6.892109375,0.0025214808993041515,0.00971308071166277,-0.006512494292110205
1717858111197150500,6.902150390625,0.004626443609595299,0.010916297324001789,-0.00624111806973815
1717858111207190500,6.9121904296875,0.003906590864062309,0.010120810940861702,-0.004948419518768787
1717858111217231600,6.922231689453125,0.003608583239838481,0.008564726449549198,-0.005057609174400568
1717858111227271400,6.932271484375,0.003078347770497203,0.00911679957062006,-0.00552392890676856
1717858111237312300,6.942312255859375,0.003114300547167659,0.008739163167774677,-0.0070280819199979305
1717858111247352300,6.952352294921875,0.00376011710613966,0.009458749555051327,-0.006628607865422964
1717858111257393400,6.962393310546875,0.0035505264531821012,0.008018511347472668,-0.006454703398048878
1717858111267434200,6.972434326171875,0.003608849598094821,0.00860440731048584,-0.007301056291908026
1717858111277474300,6.982474365234375,0.004522047471255064,0.009469135664403439,-0.005461877211928368
1717858111287515400,6.992515380859375,0.003485811408609152,0.010407633148133755,-0.006740726996213198
1717858111297555500,7.002555419921875,0.0046852994710206985,0.009522132575511932,-0.007463242392987013
1717858111307596500,7.012596435546875,0.004606203176081181,0.007586546707898378,-0.008330367505550385
1717858111317637400,7.022637451171875,0.004625644534826279,0.010775682516396046,-0.006880010478198528
1717858111327677400,7.032677490234375,0.003879426745697856,0.009071791544556618,-0.0060059609822928905
1717858111337718500,7.042718505859375,0.003775563556700945,0.0095069520175457,-0.005239769350737333
1717858111347758600,7.052758544921875,0.0032261533197015524,0.00960016343742609,-0.006641391199082136
1717858111357799400,7.06279931640625,0.00455773388966918,0.008775648660957813,-0.006431267596781254
1717858111367840500,7.072840576171875,0.0049582733772695065,0.009821205399930477,-0.0054818508215248585
1717858111377880300,7.08288037109375,0.005030178464949131,0.008776979520916939,-0.00532445777207613
1717858111387921400,7.09292138671875,0.002320678671821952,0.008077899925410748,-0.006016080733388662
1717858111397961500,7.10296142578125,0.0035028557758778334,0.007227818947285414,-0.007967112585902214
1717858111408002300,7.113002197265625,0.0032495891209691763,0.008615592494606972,-0.005342833697795868
1717858111418043400,7.12304345703125,0.004355600103735924,0.009528257884085178,-0.00541473925113678
1717858111428083500,7.13308349609375,0.0022679478861391544,0.008072840049862862,-0.006446447689086199
1717858111438124500,7.14312451171875,0.00504029868170619,0.008175904862582684,-0.00615296745672822
1717858111448164400,7.153164306640625,0.0037358824629336596,0.008048338815569878,-0.005062669049948454
1717858111458205400,7.163205322265625,0.00404587434604764,0.009727728553116322,-0.005735916085541248
1717858111468246500,7.17324658203125,0.004079962614923716,0.008860070258378983,-0.005708752200007439
1717858111478286600,7.18328662109375,0.004542287439107895,0.009099755436182022,-0.00392842898145318
1717858111488327400,7.193327392578125,0.004575044382363558,0.008700280450284481,-0.0070581757463514805
1717858111498367200,7.2033671875,0.004571049474179745,0.008432633243501186,-0.004252003040164709
1717858111508408300,7.213408203125,0.003890611929818988,0.009196694009006023,-0.005404619034379721
1717858111518449400,7.223449462890625,0.003932689782232046,0.00872211903333664,-0.005318865180015564
1717858111528489500,7.233489501953125,0.004224572330713272,0.009238505735993385,-0.004796086810529232
1717858111538530300,7.2435302734375,0.0049737198278307915,0.007961519993841648,-0.0073074474930763245
1717858111548570400,7.2535703125,0.0024703482631593943,0.008363657630980015,-0.005116997752338648
1717858111558611500,7.263611572265625,0.0026109630707651377,0.009220129810273647,-0.005937517620623112
1717858111568651500,7.273651611328125,0.004293015692383051,0.00953837763518095,-0.00558198569342494
1717858111578692400,7.2836923828125,0.0041465419344604015,0.00803182739764452,-0.00606375141069293
1717858111588733400,7.2937333984375,0.002924683503806591,0.00854555144906044,-0.005287706386297941
1717858111598773500,7.3037734375,0.003168895374983549,0.009111473336815834,-0.0054941014386713505
1717858111608814600,7.313814697265625,0.0038693067617714405,0.010277404449880123,-0.0056986319832503796
1717858111618854400,7.3238544921875,0.0034735610242933035,0.00809041690081358,-0.005812349263578653
1717858111628895500,7.3338955078125,0.0036767602432519197,0.008912268094718456,-0.005855225957930088
1717858111638936600,7.3439365234375,0.00415346585214138,0.008863799273967743,-0.007261108607053757
1717858111648976400,7.353976318359375,0.0020003002136945724,0.009040633216500282,-0.005945506971329451
1717858111659017200,7.364017333984375,0.004165450111031532,0.009629989974200726,-0.008053931407630444
1717858111669057300,7.374057373046875,0.002377936616539955,0.009161007590591908,-0.005308212712407112
1717858111679098400,7.384098388671875,0.003010703483596444,0.008194812573492527,-0.005829393398016691
1717858111689139500,7.394139404296875,0.0033188313245773315,0.009344765916466713,-0.005084773525595665
1717858111699179500,7.404179443359375,0.004350806120783091,0.008550877682864666,-0.006608101539313793
1717858111709220400,7.414220458984375,0.0032783513888716698,0.008527974598109722,-0.005359611473977566
1717858111719260400,7.424260498046875,0.005911152344197035,0.00971707608550787,-0.0057646785862743855
1717858111729301500,7.434301513671875,0.004571315832436085,0.010308563709259033,-0.005389438942074776
1717858111739342300,7.44434228515625,0.0046416232362389565,0.00968778133392334,-0.005558816250413656
1717858111749382400,7.45438232421875,0.0031348068732768297,0.008903480134904385,-0.005655222572386265
1717858111759423500,7.464423583984375,0.003481017891317606,0.008949819020926952,-0.006332997232675552
1717858111769463600,7.474463623046875,0.004055461846292019,0.010060356929898262,-0.006196909584105015
1717858111779504600,7.484504638671875,0.003430417738854885,0.009747968055307865,-0.004427505191415548
1717858111789545500,7.49454541015625,0.0041497377678751945,0.00869175884872675,-0.0051593417301774025
1717858111799585300,7.504585205078125,0.005446164403110743,0.010016681626439095,-0.00495188171043992
1717858111809626400,7.51462646484375,0.004730572924017906,0.007421697489917278,-0.005372394807636738
1717858111819666400,7.52466650390625,0.0035582494456321,0.008281898684799671,-0.00740278884768486
1717858111829707300,7.534707275390625,0.002630670554935932,0.007998005487024784,-0.007245129905641079
1717858111839747300,7.544747314453125,0.003919374197721481,0.009039301425218582,-0.005648564547300339
1717858111849788400,7.554788330078125,0.004978779703378677,0.01065104641020298,-0.005024852231144905
1717858111859829500,7.56482958984375,0.00387356779538095,0.009383114986121655,-0.005788647104054689
1717858111869869600,7.57486962890625,0.0049255164340138435,0.011520834639668465,-0.005565740168094635
1717858111879910400,7.584910400390625,0.003055444685742259,0.012092881835997105,-0.006384662352502346
1717858111889950500,7.594950439453125,0.0030866037122905254,0.012596218846738338,-0.004251470323652029
1717858111899991600,7.604991455078125,0.004679440520703793,0.003977697342634201,-0.00731304008513689
1717858111910032400,7.615032470703125,0.0051801144145429134,0.00663526589050889,-0.006134857889264822
1717858111920072200,7.625072265625,0.004340952727943659,0.01571371592581272,-0.0035926043055951595
1717858111930113300,7.63511328125,0.0024256070610135794,0.012286759912967682,-0.005024053156375885
1717858111940153300,7.6451533203125,0.004226969089359045,0.002787264296784997,-0.007144728675484657
1717858111950194400,7.6551943359375,0.0035023230593651533,0.006631803698837757,-0.006415288895368576
1717858111960235300,7.6652353515625,0.004203266929835081,0.01372353546321392,-0.0055180699564516544
1717858111970275300,7.675275390625,0.0030631679110229015,0.012262258678674698,-0.004978779703378677
1717858111980316400,7.68531640625,0.0036820864770561457,0.008019576780498028,-0.007406251039355993
1717858111990356500,7.6953564453125,0.003888747887685895,0.006838465109467506,-0.006499710958451033
1717858112000397600,7.7053974609375,0.003011236200109124,0.009501359425485134,-0.007230216171592474
1717858112010438400,7.7154384765625,0.004210990387946367,0.011197526939213276,-0.005160673521459103
1717858112020478500,7.725478515625,0.00487145408987999,0.00737429317086935,-0.006452839355915785
1717858112030519600,7.73551953125,0.004063184838742018,0.005720203742384911,-0.0059774648398160934
1717858112040559600,7.7455595703125,0.0038003309164196253,0.01034584827721119,-0.004481301177293062
1717858112050600400,7.755600341796875,0.004290086217224598,0.01245400682091713,-0.004848284646868706
1717858112060641500,7.7656416015625,0.003201652318239212,0.009732255712151527,-0.005723133217543364
1717858112070681300,7.775681396484375,0.002901514060795307,0.005766009911894798,-0.006163353566080332
1717858112080722400,7.785722412109375,0.0037268276792019606,0.008587363176047802,-0.005268797744065523
1717858112090762500,7.795762451171875,0.0029470541048794985,0.010814031586050987,-0.005542570725083351
1717858112100803300,7.80580322265625,0.003317499766126275,0.010039584711194038,-0.005429120268672705
1717858112110843400,7.815843505859375,0.0048890309408307076,0.008329303003847599,-0.004898618441075087
1717858112120884500,7.825884521484375,0.004525509662926197,0.007751396391540766,-0.006434463430196047
1717858112130925300,7.83592529296875,0.004421912599354982,0.007497597485780716,-0.005141764879226685
1717858112140965400,7.84596533203125,0.005366003140807152,0.008894424885511398,-0.006057626102119684
1717858112151006500,7.85600634765625,0.005547098349779844,0.009346630424261093,-0.005083974450826645
1717858112161046500,7.866046630859375,0.0064895907416939735,0.00959696713835001,-0.006158826407045126
1717858112171087600,7.876087646484375,0.004089816473424435,0.008942628279328346,-0.006909837480634451
1717858112181128400,7.88612841796875,0.003491936717182398,0.010670221410691738,-0.006266151554882526
1717858112191168300,7.896168212890625,0.003619768423959613,0.008299741894006729,-0.006672283634543419
1717858112201209300,7.906209228515625,0.004619785584509373,0.008776713162660599,-0.005377987399697304
1717858112211249400,7.91624951171875,0.004348409362137318,0.00968511775135994,-0.004852812271565199
1717858112221290200,7.926290283203125,0.003492469433695078,0.009393768385052681,-0.004698615055531263
1717858112231331300,7.936331298828125,0.0032730249222368,0.009151686914265156,-0.006057626102119684
1717858112241371400,7.946371337890625,0.002888997085392475,0.008889098651707172,-0.005559082608669996
1717858112251412500,7.95641259765625,0.004576908424496651,0.010393252596259117,-0.004508731886744499
1717858112261452500,7.96645263671875,0.0027624969370663166,0.009853163734078407,-0.0065503111109137535
1717858112271493400,7.976493408203125,0.004403270315378904,0.009838249534368515,-0.00714685907587409
1717858112281534500,7.986534423828125,0.0051833102479577065,0.00899722333997488,-0.006857373286038637
1717858112291574500,7.996574462890625,0.0029441246297210455,0.009591374546289444,-0.005811816547065973
1717858112301615400,8.006615478515625,0.002192846732214093,0.008684035390615463,-0.0054456316865980625
1717858112311655400,8.016655517578124,0.0036514601670205593,0.007640342693775892,-0.005278651602566242
1717858112321696500,8.026696533203125,0.003591539105400443,0.008340221829712391,-0.007251254748553038
1717858112331737600,8.036737548828125,0.0037771612405776978,0.007927964441478252,-0.006499444600194693
1717858112341777400,8.04677734375,0.00447064870968461,0.011394334957003593,-0.006737797521054745
1717858112351818200,8.056818359375,0.004461860284209251,0.010477674193680286,-0.004941229242831469
1717858112361858300,8.0668583984375,0.0036780918017029762,0.00971308071166277,-0.005802761763334274
1717858112371899400,8.0768994140625,0.0020421119406819344,0.008682703599333763,-0.005392368417233229
1717858112381940500,8.0869404296875,0.003875964554026723,0.008523447439074516,-0.004817392211407423
1717858112391980300,8.096980224609375,0.003938282374292612,0.009128783829510212,-0.006381200160831213
1717858112402021400,8.107021484375,0.003195527009665966,0.009225988760590553,-0.004904743749648333
1717858112412061400,8.1170615234375,0.0030394657514989376,0.009079781360924244,-0.006399576086550951
1717858112422102500,8.1271025390625,0.002008023438975215,0.007535947021096945,-0.006088252644985914
1717858112432143400,8.137143310546875,0.0046725161373615265,0.008317318744957447,-0.0051894355565309525
1717858112442183400,8.147183349609374,0.005194229539483786,0.009411345236003399,-0.005465073045343161
1717858112452224500,8.157224609375,0.004203000571578741,0.009270730428397655,-0.005724198184907436
1717858112462264600,8.1672646484375,0.003772101365029812,0.009682188741862774,-0.00561181316152215
1717858112472305700,8.1773056640625,0.002299373270943761,0.009239571169018745,-0.006208361126482487
1717858112482346500,8.187346435546875,0.004975583869963884,0.008323444053530693,-0.006600644905120134
1717858112492385800,8.1973857421875,0.004009921569377184,0.00839668046683073,-0.004911668132990599
1717858112502427000,8.207427001953125,0.0027840686962008476,0.009468869306147099,-0.005991313606500626
1717858112512467000,8.217467041015626,0.0031515848822891712,0.009666475467383862,-0.005029912106692791
1717858112522508000,8.227508056640625,0.004559331573545933,0.008073639124631882,-0.006845389027148485
1717858112532547800,8.2375478515625,0.005246427375823259,0.008132228627800941,-0.0060150157660245895
1717858112542588700,8.247588623046875,0.0011803129455074668,0.01011042483150959,-0.004653075244277716
1717858112552629800,8.257629638671874,0.004821653012186289,0.008771386928856373,-0.004984905011951923
1717858112562669800,8.267669921875,0.0046482812613248825,0.008762332610785961,-0.005712214391678572
1717858112572710700,8.277710693359374,0.004324707202613354,0.008293616585433483,-0.00606375141069293
1717858112582750700,8.287750732421875,0.003894340479746461,0.008706938475370407,-0.005643238313496113
1717858112592791800,8.297791748046874,0.0032631712965667248,0.008978847414255142,-0.005941778887063265
1717858112602833000,8.3078330078125,0.002520415699109435,0.009767143055796623,-0.005422994960099459
1717858112612873000,8.317873046875,0.003099386813119054,0.008957808837294579,-0.005163869354873896
1717858112622913800,8.327913818359375,0.00430073868483305,0.009432383812963963,-0.006249640136957169
1717858112632953900,8.337953857421875,0.00504083139821887,0.009514142759144306,-0.004445881117135286
1717858112642995000,8.347994873046876,0.0036663739010691643,0.010100305080413818,-0.005351622123271227
1717858112653035800,8.358035888671875,0.0034088462125509977,0.010273143649101257,-0.0052381716668605804
1717858112663075600,8.36807568359375,0.005578257143497467,0.007829161360859871,-0.00714792450889945
1717858112673116700,8.37811669921875,0.002889529801905155,0.008952216245234013,-0.005139368120580912
1717858112683156700,8.38815673828125,0.00415453128516674,0.009630789048969746,-0.006330866366624832
1717858112693197800,8.39819775390625,0.005437375977635384,0.008479504846036434,-0.0051811798475682735
1717858112703238700,8.40823876953125,0.0023904533591121435,0.009126652963459492,-0.006457899231463671
1717858112713278700,8.41827880859375,0.004328435752540827,0.008438758552074432,-0.006298109423369169
1717858112723319800,8.42831982421875,0.004209392238408327,0.007242466323077679,-0.00461765518411994
1717858112733359900,8.43835986328125,0.00430233683437109,0.00902864895761013,-0.004456001333892345
1717858112743400700,8.448400634765624,0.005179848056286573,0.00905581284314394,-0.007031544111669064
1717858112753441800,8.45844189453125,0.002177400514483452,0.008302404545247555,-0.005025917664170265
1717858112763481900,8.46848193359375,0.004340686369687319,0.008697617799043655,-0.006058425176888704
1717858112773523000,8.47852294921875,0.0013190637109801173,0.008217450231313705,-0.005702360533177853
1717858112783563000,8.48856298828125,0.0030221552588045597,0.010085124522447586,-0.005887183826416731
1717858112793603800,8.498603759765626,0.0036690370179712772,0.009445966221392155,-0.005865079816430807
1717858112803645000,8.50864501953125,0.001966744428500533,0.00830932892858982,-0.004050667863339186
1717858112813684700,8.518684814453126,0.003403519745916128,0.008143946528434753,-0.005499694030731916
1717858112823725800,8.528725830078125,0.00509862182661891,0.00899908784776926,-0.005228051450103521
1717858112833765600,8.538765625,0.004279966000467539,0.008746087551116943,-0.005561479367315769
1717858112843806700,8.548806640625,0.0035742283798754215,0.008293083868920803,-0.004996356554329395
1717858112853847800,8.558847900390624,0.004254399798810482,0.009778328239917755,-0.005625395104289055
1717858112863888000,8.568887939453125,0.003447728231549263,0.008608401753008366,-0.006323143374174833
1717858112873928700,8.5789287109375,0.003937217406928539,0.008654207922518253,-0.0060208747163414955
1717858112883968800,8.58896875,0.0043745082803070545,0.008533034473657608,-0.0059899818152189255
1717858112894009900,8.599009765625,0.003994475118815899,0.011695005930960178,-0.005363073665648699
1717858112904051000,8.609051025390626,0.004117779433727264,0.011254518292844296,-0.004561994690448046
1717858112914090800,8.6190908203125,0.004686630796641111,0.009485380724072456,-0.005307679995894432
1717858112924131800,8.6291318359375,0.005291168577969074,0.006114351563155651,-0.006370281334966421
1717858112934172000,8.639171875,0.0038695731200277805,0.006680007092654705,-0.006558566819876432
1717858112944213000,8.649212890625,0.003103115363046527,0.014360031113028526,-0.004278368316590786
1717858112954253800,8.65925390625,0.00384427304379642,0.012224175967276096,-0.005816077347844839
1717858112964293600,8.669293701171876,0.0044261738657951355,0.005835252348333597,-0.0059601543471217155
1717858112974334700,8.679334716796875,0.002734267385676503,0.008584166876971722,-0.007929828017950058
1717858112984374800,8.689374755859374,0.003855191869661212,0.010821222327649593,-0.0076091839000582695
1717858112994415900,8.699415771484375,0.003977697342634201,0.009367136284708977,-0.00487145408987999
1717858113004456700,8.709456787109374,0.004763596225529909,0.010041981004178524,-0.004993693437427282
1717858113014496800,8.719496826171875,0.0042144525796175,0.010303503833711147,-0.006189985200762749
1717858113024537900,8.729537841796875,0.0033390712924301624,0.0073013221845030785,-0.006020075641572475
1717858113034578000,8.739577880859375,0.00430233683437109,0.007966579869389534,-0.006191316992044449
1717858113044618800,8.74961865234375,0.00535508431494236,0.008441953919827938,-0.005570800509303808
1717858113054659800,8.759659912109376,0.003198456484824419,0.00974450632929802,-0.0046392264775931835
1717858113064700000,8.769699951171875,0.003197923768311739,0.010463027283549309,-0.00541447289288044
1717858113074741000,8.779740966796876,0.005116997752338648,0.007774832658469677,-0.006744721904397011
1717858113084780800,8.78978076171875,0.004221909213811159,0.008186823688447475,-0.0062762717716395855
1717858113094821600,8.799821533203126,0.003328418591991067,0.00939217023551464,-0.0059654805809259415
1717858113104861700,8.80986181640625,0.003867975203320384,0.01025769766420126,-0.005360676907002926
1717858113114902800,8.81990283203125,0.003938548732548952,0.009980196133255959,-0.008311726152896881
1717858113124943600,8.829943603515625,0.005218463949859142,0.009670737199485302,-0.005793440621346235
1717858113134983700,8.839983642578124,0.0029137644451111555,0.00902518630027771,-0.007522364612668753
1717858113145024800,8.850024658203125,0.003602990647777915,0.010512296110391617,-0.0036855486687272787
1717858113155064800,8.86006494140625,0.002071140334010124,0.009704026393592358,-0.004832572303712368
1717858113165106000,8.87010595703125,0.004022704903036356,0.008766593411564827,-0.006327936891466379
1717858113175146800,8.880146728515625,0.0031646343413740396,0.008978314697742462,-0.006843258626759052
1717858113185186800,8.890186767578125,0.004986502695828676,0.010298976674675941,-0.006329535041004419
1717858113195228000,8.900227783203125,0.004865861497819424,0.009904029779136181,-0.004396612755954266
1717858113205268000,8.91026806640625,0.004759068600833416,0.009046225808560848,-0.007201453670859337
1717858113215308800,8.920308837890625,0.004820588044822216,0.008758071810007095,-0.006157228257507086
1717858113225350000,8.930349853515626,0.005802761763334274,0.007896272465586662,-0.006431001238524914
1717858113235389700,8.9403896484375,0.00315930787473917,0.009383114986121655,-0.006333529483526945
1717858113245430800,8.9504306640625,0.0035113778430968523,0.010668889619410038,-0.004774781409651041
1717858113255470800,8.960470947265625,0.004318049177527428,0.009429986588656902,-0.005105279851704836
1717858113265511700,8.97051171875,0.003846936160698533,0.008143680170178413,-0.006762298755347729
1717858113275552800,8.980552734375,0.004831506870687008,0.007721036672592163,-0.005144960712641478
1717858113285592800,8.9905927734375,0.004742823541164398,0.008723982609808445,-0.00572925852611661
1717858113295634000,9.000634033203125,0.003733219113200903,0.00999351218342781,-0.005701827816665173
1717858113305673700,9.010673828125,0.003528422210365534,0.00905741099268198,-0.005627525504678488
1717858113315714800,9.02071484375,0.004756938200443983,0.009365271776914597,-0.004731371998786926
1717858113325756000,9.030755859375,0.004486893769353628,0.008636098355054855,-0.007045126520097256
1717858113335796000,9.0407958984375,0.0026551715563982725,0.008876582607626915,-0.006256830412894487
1717858113345836800,9.0508369140625,0.003954261541366577,0.00933118350803852,-0.005831790156662464
1717858113355876600,9.060876708984376,0.0027350664604455233,0.010181797668337822,-0.006935936864465475
1717858113365917700,9.070917724609375,0.004281830508261919,0.008583900518715382,-0.005604356061667204
1717858113375958800,9.080958740234376,0.00401631323620677,0.008262990042567253,-0.006987868342548609
1717858113385998800,9.090998779296875,0.004549211822450161,0.008527441881597042,-0.0062464443035423756
1717858113396039700,9.101039794921874,0.003719637170433998,0.010334396734833717,-0.005423794034868479
1717858113406079700,9.111079833984375,0.004781972151249647,0.009913350455462933,-0.005085838492959738
1717858113416120800,9.121120849609374,0.002669020090252161,0.008757805451750755,-0.005531119182705879
1717858113426161700,9.13116162109375,0.004261057823896408,0.008594021201133728,-0.004547347314655781
1717858113436201700,9.14120166015625,0.0049161952920258045,0.010854777880012989,-0.004551874939352274
1717858113446242800,9.151242919921875,0.005136438645422459,0.009771403856575489,-0.005219263024628162
1717858113456283000,9.161282958984375,0.004549478180706501,0.009470467455685139,-0.005575594026595354
1717858113466324000,9.171323974609376,0.004260258749127388,0.008305068127810955,-0.006067479960620403
1717858113476364800,9.18136474609375,0.003829359309747815,0.008779110386967659,-0.006274141371250153
1717858113486404900,9.19140478515625,0.0035832831636071205,0.00977513287216425,-0.0054885088466107845
1717858113496446700,9.20144677734375,0.0035481294617056847,0.008815595880150795,-0.006800648290663958
1717858113506486500,9.211486572265626,0.0038663772866129875,0.008701612241566181,-0.005131645128130913
1717858113516527600,9.221527587890625,0.0028101676143705845,0.009105614386498928,-0.005689843557775021
1717858113526568700,9.231568603515624,0.0029502499382942915,0.00968298688530922,-0.0065508438274264336
1717858113536608800,9.24160888671875,0.004273840691894293,0.009877397678792477,-0.00660517206415534
1717858113546649600,9.251649658203124,0.0051659997552633286,0.010190319269895554,-0.005566272884607315
1717858113556689700,9.261689697265625,0.0049223206005990505,0.008614260703325272,-0.005064000841230154
1717858113566730800,9.271730712890625,0.0036280243657529354,0.009946640580892563,-0.006327138282358646
1717858113576771800,9.281771728515626,0.004195810295641422,0.008733836933970451,-0.007781756576150656
1717858113586812000,9.29181201171875,0.004740426782518625,0.009563411585986614,-0.006340187508612871
1717858113596852700,9.301852783203126,0.003826962551102042,0.008532768115401268,-0.006512760184705257
1717858113606892800,9.311892822265625,0.005021922755986452,0.00959856528788805,-0.006268282420933247
1717858113616934000,9.321933837890626,0.004388622939586639,0.0100800646468997,-0.0059713395312428474
1717858113626974700,9.331974609375,0.004007524810731411,0.00865980051457882,-0.006080262828618288
1717858113637014500,9.3420146484375,0.0043563987128436565,0.010429738089442253,-0.005242166109383106
1717858113647055600,9.3520556640625,0.0036045885644853115,0.009615343064069748,-0.006100769154727459
1717858113657095700,9.362095703125,0.00549197057262063,0.010411362163722515,-0.006007558666169643
1717858113667136800,9.37213671875,0.0035366779193282127,0.009929596446454525,-0.00612260727211833
1717858113677177600,9.382177490234374,0.003721234854310751,0.008450742810964584,-0.0054485611617565155
1717858113687217700,9.3922177734375,0.00439048744738102,0.008282963186502457,-0.006337790749967098
1717858113697258800,9.4022587890625,0.003971305675804615,0.010234794579446316,-0.004418716765940189
1717858113707298800,9.412298828125,0.004622182343155146,0.00908830389380455,-0.004551874939352274
1717858113717339600,9.422339599609375,0.004351871553808451,0.010281399823725224,-0.005430984310805798
1717858113727380700,9.432380615234376,0.003995007835328579,0.008749282918870449,-0.006365753710269928
1717858113737420800,9.4424208984375,0.0036274916492402554,0.00959536898881197,-0.00515854312106967
1717858113747462000,9.4524619140625,0.003643736941739917,0.009434514679014683,-0.006336192600429058
1717858113757501700,9.462501708984375,0.003831756068393588,0.008712264709174633,-0.0046852994710206985
1717858113767542500,9.47254248046875,0.005543369799852371,0.01053466647863388,-0.006161223165690899
1717858113777582600,9.48258251953125,0.003941744565963745,0.009741044603288174,-0.006827545817941427
1717858113787623700,9.492623779296874,0.005282380152493715,0.009957559406757355,-0.006295179948210716
1717858113797664800,9.502664794921875,0.004521781112998724,0.009755957871675491,-0.004735632799565792
1717858113807704600,9.51270458984375,0.0043859598226845264,0.009578058496117592,-0.005417402368038893
1717858113817745700,9.52274560546875,0.0034317492973059416,0.008795621804893017,-0.005889846943318844
1717858113827785700,9.53278564453125,0.0037233654875308275,0.009442769922316074,-0.006173740141093731
1717858113837826800,9.542826904296875,0.004529770463705063,0.006746852304786444,-0.0051622712053358555
1717858113847867600,9.55286767578125,0.0048767803236842155,0.011652395129203796,-0.0046514770947396755
1717858113857907700,9.56290771484375,0.0035031221341341734,0.012766394764184952,-0.0036943370942026377
1717858113867948800,9.57294873046875,0.0036724992096424103,0.009417204186320305,-0.006842193193733692
1717858113877988900,9.58298876953125,0.003032275242730975,0.004316717851907015,-0.007573763839900494
1717858113888029700,9.59302978515625,0.0035486621782183647,0.005783320404589176,-0.006837399676442146
1717858113898070800,9.60307080078125,0.004265584982931614,0.01221405528485775,-0.0037265613209456205
1717858113908110600,9.613110595703125,0.0037417414132505655,0.012152803130447865,-0.0046538738533854485
1717858113918151700,9.623151611328124,0.0034266894217580557,0.007169229444116354,-0.00643845833837986
1717858113928191700,9.633191650390625,0.004222175572067499,0.005057875532656908,-0.00697774812579155
1717858113938232600,9.643232666015624,0.003370230318978429,0.010247311554849148,-0.006024602800607681
1717858113948273700,9.653273681640625,0.0038075214251875877,0.011355452239513397,-0.004341219086199999
1717858113958313700,9.663313720703124,0.004533499013632536,0.009374859742820263,-0.006433664355427027
1717858113968354800,9.673354736328125,0.004621915984898806,0.007099188398569822,-0.005089833401143551
1717858113978394600,9.68339453125,0.004198739770799875,0.006701045669615269,-0.006765494588762522
1717858113988435700,9.693435791015625,0.0026820695493370295,0.010454771108925343,-0.005604356061667204
1717858113998476800,9.703476806640625,0.004878112114965916,0.010550378821790218,-0.004857605788856745
1717858114008516900,9.713516845703126,0.002942260354757309,0.00845633540302515,-0.006727145053446293
1717858114018557700,9.7235576171875,0.003706853836774826,0.008215319365262985,-0.007528223562985659
1717858114028597800,9.73359765625,0.005105013493448496,0.012540026567876339,-0.005409678909927607
1717858114038638800,9.743638916015625,0.0035502600949257612,0.008594552986323833,-0.005685582756996155
1717858114048680000,9.753679931640624,0.00410526292398572,0.007735151331871748,-0.005302886478602886
1717858114058719700,9.7637197265625,0.003884486621245742,0.008596950210630894,-0.007328486535698175
1717858114068760600,9.773760498046874,0.0036991306114941835,0.008110657334327698,-0.006825415417551994
1717858114078800600,9.783800537109375,0.004260525107383728,0.008582303300499916,-0.006031527183949947
1717858114088841700,9.793841796875,0.004369714763015509,0.0103770075365901,-0.005914348177611828
1717858114098882600,9.803882568359375,0.004279966000467539,0.009241169318556786,-0.005628590937703848
1717858114108922600,9.813922607421874,0.004006725735962391,0.008724515326321125,-0.005474393721669912
1717858114118963700,9.823963623046875,0.0035931370221078396,0.010487528517842293,-0.005191300064325333
1717858114129003800,9.834003662109374,0.004150270018726587,0.010191651061177254,-0.00686163455247879
1717858114139044900,9.844044921875,0.0038418760523200035,0.009608685038983822,-0.005761216394603252
1717858114149085700,9.854085693359375,0.003257844829931855,0.009280317462980747,-0.0062400526367127895
1717858114159125800,9.864125732421876,0.0043737092055380344,0.00875221285969019,-0.006140184123069048
1717858114169166800,9.874166748046875,0.004080495331436396,0.008868060074746609,-0.006754841655492783
1717858114179206700,9.88420654296875,0.003325755475088954,0.008839564397931099,-0.005951365921646357
1717858114189247500,9.89424755859375,0.004035754129290581,0.00923158135265112,-0.006488525774329901
1717858114199288600,9.90428857421875,0.004289819858968258,0.008014783263206482,-0.006025135517120361
1717858114209328600,9.91432861328125,0.0046365633606910706,0.008913866244256496,-0.006579872220754623
1717858114219369700,9.92436962890625,0.0033300165086984634,0.009211608208715916,-0.006360427476465702
1717858114229409800,9.934409912109375,0.004373443312942982,0.010030529461801052,-0.0057532270438969135
1717858114239450600,9.94445068359375,0.00449807895347476,0.0070400661788880825,-0.00609251344576478
1717858114249491700,9.95449169921875,0.004614725708961487,0.007510913070291281,-0.005268797744065523
1717858114259531800,9.96453173828125,0.004338023252785206,0.00785792339593172,-0.006009955424815416
1717858114269572600,9.974572509765625,0.003935885615646839,0.009285910055041313,-0.005594236310571432
1717858114279612700,9.98461279296875,0.0034639735240489244,0.009831058792769909,-0.005894374568015337
1717858114289653800,9.99465380859375,0.004092745948582888,0.008568720892071724,-0.006938333623111248
1717858114299694800,10.00469482421875,0.005307679995894432,0.008318116888403893,-0.005587578285485506
1717858114309735000,10.01473486328125,0.0051777176558971405,0.0091170659288764,-0.007266168482601643
1717858114319775700,10.024775634765625,0.0024370586033910513,0.008930644020438194,-0.0059899818152189255
1717858114329815600,10.034815673828126,0.0038480013608932495,0.008108526468276978,-0.006581736262887716
1717858114339856600,10.044856689453125,0.005095958709716797,0.007955661043524742,-0.006010221783071756
1717858114349897700,10.054897705078124,0.003454386256635189,0.008718390017747879,-0.006506102625280619
1717858114359937800,10.064937744140625,0.004206995479762554,0.008615059778094292,-0.005856823641806841
1717858114369978600,10.074978515625,0.003596598980948329,0.008354868739843369,-0.005507150664925575
1717858114380018700,10.085018798828125,0.003513242118060589,0.007418768014758825,-0.005914614535868168
1717858114390059800,10.095059814453125,0.003528155852109194,0.009332248941063881,-0.005921272095292807
1717858114400100600,10.1051005859375,0.004334827419370413,0.008187889121472836,-0.004449876025319099
1717858114410140700,10.115140625,0.0025355955585837364,0.009551960043609142,-0.00660597113892436
1717858114420181800,10.125181640625,0.0031704932916909456,0.009010006673634052,-0.00666535971686244
1717858114430221800,10.135221923828125,0.0023158849216997623,0.008072307333350182,-0.005105546209961176
1717858114440263000,10.145262939453126,0.0033989925868809223,0.010490191169083118,-0.005361475981771946
1717858114450303700,10.1553037109375,0.0040972731076180935,0.009750365279614925,-0.006587328854948282
1717858114460343600,10.165343505859376,0.0036187032237648964,0.009095227345824242,-0.005276521202176809
1717858114470384600,10.175384521484375,0.0035952674224972725,0.010232130996882915,-0.004554804414510727
1717858114480424700,10.1854248046875,0.004297276493161917,0.008299475535750389,-0.006102367304265499
1717858114490465500,10.195465576171875,0.004674113821238279,0.008815595880150795,-0.004747617058455944
1717858114500506400,10.20550634765625,0.00461552431806922,0.009712282568216324,-0.00475347600877285
1717858114510546400,10.21554638671875,0.004339354578405619,0.01110378373414278,-0.006458964664489031
1717858114520587500,10.22558740234375,0.0049529471434652805,0.00948245171457529,-0.006145776715129614
1717858114530627300,10.23562744140625,0.003906058380380273,0.010054764337837696,-0.006807305850088596
1717858114540668200,10.245668212890624,0.004918059334158897,0.008726113475859165,-0.0046815709210932255
1717858114550709200,10.255709228515625,0.0031499869655817747,0.008330633863806725,-0.0052147358655929565
1717858114560749300,10.265749267578125,0.00498011102899909,0.008472580462694168,-0.005638711154460907
1717858114570790400,10.275790283203126,0.003297259798273444,0.007660316303372383,-0.005110073368996382
1717858114580830200,10.285830322265625,0.004474643152207136,0.010155431926250458,-0.006682936567813158
1717858114590871300,10.295871337890626,0.004201136529445648,0.009750897996127605,-0.0057130130007863045
1717858114600912400,10.305912353515625,0.005391835700720549,0.00962413102388382,-0.0049092709086835384
1717858114610952400,10.315952392578126,0.004584099166095257,0.008823319338262081,-0.006396646611392498
1717858114620993300,10.3259931640625,0.004999818746000528,0.007643272168934345,-0.005291967187076807
1717858114631033300,10.336033447265624,0.0034176346380263567,0.008383364416658878,-0.006309827324002981
1717858114641074400,10.346074462890625,0.005115399602800608,0.008436094969511032,-0.00697934627532959
1717858114651115500,10.356115478515624,0.004238420631736517,0.00836498849093914,-0.006398510653525591
1717858114661155300,10.3661552734375,0.004274107050150633,0.009555954486131668,-0.007684284821152687
1717858114671196200,10.376196044921874,0.0041492050513625145,0.01016714982688427,-0.0054823835380375385
1717858114681236200,10.386236328125,0.0029819414485245943,0.008555138483643532,-0.006244580261409283
1717858114691277300,10.39627734375,0.004150004126131535,0.009632919915020466,-0.004875981714576483
1717858114701318100,10.406318115234376,0.0029414615128189325,0.009318400174379349,-0.005407814867794514
1717858114711358200,10.416358154296875,0.005437908694148064,0.009446765296161175,-0.005562810692936182
1717858114721399300,10.4263994140625,0.0021228056866675615,0.009092831052839756,-0.004382231738418341
1717858114731439400,10.436439453125,0.003069825703278184,0.008392153307795525,-0.005261074751615524
1717858114741480400,10.44648046875,0.004535363521426916,0.007719438523054123,-0.006108226254582405
1717858114751521300,10.456521240234375,0.004116714466363192,0.010391121730208397,-0.005245894659310579
1717858114761561300,10.466561279296876,0.005601959303021431,0.008037419989705086,-0.005380916874855757
1717858114771602400,10.4766025390625,0.005771336145699024,0.009131712839007378,-0.006886401679366827
1717858114781642500,10.486642578125,0.005201419815421104,0.008620918728411198,-0.005845105741173029
1717858114791683300,10.496683349609375,0.002998985582962632,0.008931443095207214,-0.0057257963344454765
1717858114801724400,10.506724365234374,0.003936684690415859,0.00932239554822445,-0.006346046458929777
1717858114811764200,10.51676416015625,0.004773716442286968,0.008702144958078861,-0.006050968077033758
1717858114821805300,10.526805419921875,0.0028972530271857977,0.007754592224955559,-0.004140949342399836
1717858114831845400,10.536845458984375,0.0043737092055380344,0.009148224256932735,-0.005601426586508751
1717858114841886200,10.54688623046875,0.0030543794855475426,0.011999937705695629,-0.005338306538760662
1717858114851927300,10.55692724609375,0.004509530495852232,0.00953598041087389,-0.0056863813661038876
1717858114861967400,10.56696728515625,0.00358807691372931,0.0067721521481871605,-0.006083192303776741
1717858114872008400,10.577008544921876,0.003501257859170437,0.005721268709748983,-0.008110657334327698
1717858114882048300,10.58704833984375,0.003972104750573635,0.011566108092665672,-0.0044165863655507565
1717858114892089300,10.59708935546875,0.004609931726008654,0.013589312322437763,-0.004122573416680098
1717858114902130400,10.60713037109375,0.0032828785479068756,0.007838748395442963,-0.004605937283486128
1717858114912170500,10.61717041015625,0.003923102747648954,0.007232879288494587,-0.005878661759197712
1717858114922211300,10.62721142578125,0.003183542750775814,0.008243282325565815,-0.006113818846642971
1717858114932251400,10.63725146484375,0.005256813485175371,0.009505621157586575,-0.006040315609425306
1717858114942292500,10.64729248046875,0.003832288784906268,0.009810552932322025,-0.006508499383926392
1717858114952333600,10.65733349609375,0.002585396869108081,0.010924020782113075,-0.00652687530964613
1717858114962373400,10.667373291015625,0.0049012815579771996,0.007482151035219431,-0.006025401875376701
1717858114972414200,10.677414306640625,0.004428304266184568,0.008281632326543331,-0.006472013890743256
1717858114982454300,10.687454345703125,0.0043707797303795815,0.009430519305169582,-0.007113835774362087
1717858114992495400,10.697495361328125,0.0052384380251169205,0.009493370540440083,-0.004341751337051392
1717858115002536200,10.7075361328125,0.005139634478837252,0.008540225215256214,-0.005249889567494392
1717858115012576300,10.717576171875,0.002359560690820217,0.009519202634692192,-0.00498037738725543
1717858115022617300,10.727617431640626,0.0027286747936159372,0.010114685632288456,-0.005118062719702721
1717858115032657400,10.737657470703125,0.005146558862179518,0.009548763744533062,-0.005694104824215174
1717858115042698500,10.747698486328124,0.0043686493299901485,0.009047823026776314,-0.0057439059019088745
1717858115052739300,10.7577392578125,0.003994208760559559,0.009957559406757355,-0.005346295889467001
1717858115062779400,10.767779296875,0.0046602655202150345,0.009981527924537659,-0.004599811974912882
1717858115072820500,10.777820556640625,0.003570500062778592,0.010880610905587673,-0.004995557479560375
1717858115082860300,10.7878603515625,0.005234975833445787,0.009314938448369503,-0.0049252500757575035
1717858115092901000,10.797901123046875,0.004062119405716658,0.007819040678441525,-0.0049492185935378075
1717858115102942200,10.807942138671875,0.00375958438962698,0.008742624893784523,-0.006310360040515661
1717858115112982300,10.817982177734375,0.002868224401026964,0.010028399527072906,-0.0049497513100504875
1717858115123023400,10.8280234375,0.003338006092235446,0.009334113448858261,-0.00583631731569767
1717858115133063400,10.8380634765625,0.004595817066729069,0.008141815662384033,-0.00549303600564599
1717858115143104300,10.848104248046875,0.004071706905961037,0.008447014726698399,-0.0065223476849496365
1717858115153145300,10.858145263671876,0.002313754288479686,0.009414007887244225,-0.004702343605458736
1717858115163185400,10.868185302734375,0.0032083101104944944,0.009648365899920464,-0.005601160228252411
1717858115173226200,10.878226318359374,0.002630404196679592,0.009298693388700485,-0.005846703890711069
1717858115183266300,10.888266357421875,0.002526541007682681,0.008553008548915386,-0.0055122110061347485
1717858115193307400,10.898307373046874,0.004516721237450838,0.008435296826064587,-0.004108192399144173
1717858115203348500,10.908348388671875,0.004693288821727037,0.012195945717394352,-0.0052024852484464645
1717858115213388500,10.918388427734374,0.0045572011731565,0.010242783464491367,-0.005816343706101179
1717858115223429400,10.928429443359375,0.005650961305946112,0.01059139147400856,-0.005545500200241804
1717858115233469200,10.93846923828125,0.0028096348978579044,0.007224623579531908,-0.0070733558386564255
1717858115243510300,10.94851025390625,0.004715925548225641,0.009407349862158298,-0.006389455869793892
1717858115253551400,10.95855126953125,0.004652542527765036,0.007719172164797783,-0.0049524144269526005
1717858115263591200,10.968591064453125,0.004022971261292696,0.008316253311932087,-0.004910869058221579
1717858115273632300,10.97863232421875,0.0015491608064621687,0.00942173134535551,-0.0067841364070773125
1717858115283672300,10.98867236328125,0.0043593281880021095,0.008742891252040863,-0.006650445982813835
1717858115293713400,10.99871337890625,0.003802727675065398,0.009069927968084812,-0.005655222572386265
1717858115303754200,11.008754150390626,0.0030772825703024864,0.009342102333903313,-0.004205664154142141
1717858115313794300,11.018794189453125,0.0034264230635017157,0.009127452038228512,-0.005423527676612139
1717858115323835400,11.02883544921875,0.0029172266367822886,0.008081895299255848,-0.006746585946530104
1717858115333875500,11.03887548828125,0.004099670331925154,0.009285910055041313,-0.006850449368357658
1717858115343916500,11.04891650390625,0.0020511667244136333,0.007811850402504206,-0.0076086511835455894
1717858115353957400,11.058957275390625,0.004839496221393347,0.00953624676913023,-0.00663366774097085
1717858115363997200,11.0689970703125,0.003174487967044115,0.009645703248679638,-0.006193713750690222
1717858115374038500,11.07903857421875,0.0028631645254790783,0.009549030102789402,-0.006850981619209051
1717858115384078300,11.089078369140625,0.004090881906449795,0.00905874278396368,-0.005268531385809183
1717858115394119200,11.099119140625,0.002692455891519785,0.007510913070291281,-0.004643754102289677
1717858115404160300,11.10916015625,0.002724680118262768,0.010367153212428093,-0.006049104034900665
1717858115414200300,11.119200439453126,0.004493818152695894,0.011011905036866665,-0.00558012118563056
1717858115424241400,11.129241455078125,0.0044019389897584915,0.009190568700432777,-0.006587062496691942
1717858115434281500,11.139281494140626,0.0029198897536844015,0.009169530123472214,-0.006133259739726782
1717858115444322300,11.149322265625,0.0033310819417238235,0.00953704584389925,-0.006647516507655382
1717858115454363400,11.15936328125,0.003433347214013338,0.009070992469787598,-0.006729009095579386
1717858115464403500,11.169403564453125,0.0037918086163699627,0.008817194029688835,-0.005425391718745232
1717858115474444300,11.1794443359375,0.005198223982006311,0.008867527358233929,-0.0065069012343883514
1717858115484484400,11.189484375,0.004762797150760889,0.008236890658736229,-0.0054453653283417225
1717858115494525400,11.199525390625,0.003603257006034255,0.0095684714615345,-0.0054514906369149685
1717858115504566300,11.209566162109375,0.005468002520501614,0.008640892803668976,-0.006375873927026987
1717858115514606300,11.2196064453125,0.0033654365688562393,0.010511497035622597,-0.004597947467118502
1717858115524647200,11.229647216796875,0.003716707695275545,0.008873919025063515,-0.004850149154663086
1717858115534688300,11.239688232421875,0.005730057135224342,0.009853695519268513,-0.0059420447796583176
1717858115544728300,11.249728271484376,0.005279450677335262,0.00902838259935379,-0.005060272291302681
1717858115554769200,11.25976904296875,0.0027116306591778994,0.009552759118378162,-0.00748960766941309
1717858115564809200,11.269809326171876,0.0032687638886272907,0.009317868389189243,-0.006296245381236076
1717858115574850300,11.279850341796875,0.003894606838002801,0.007836883887648582,-0.005038434639573097
1717858115584891400,11.289891357421874,0.0029356025625020266,0.00860467366874218,-0.0057012951001524925
1717858115594931200,11.29993115234375,0.004927380476146936,0.00914369709789753,-0.005648830905556679
1717858115604972000,11.309971923828124,0.004585164599120617,0.010158361867070198,-0.006735400762408972
1717858115615012000,11.32001220703125,0.005408347584307194,0.010118148289620876,-0.0062485747039318085
1717858115625053200,11.33005322265625,0.004073305055499077,0.0090555464848876,-0.006168147549033165
1717858115635094300,11.34009423828125,0.003946272190660238,0.00884835235774517,-0.0062365904450416565
1717858115645134300,11.35013427734375,0.0038152446504682302,0.008613727986812592,-0.004314587451517582
1717858115655175200,11.360175048828125,0.0038535939529538155,0.009769806638360023,-0.007003581151366234
1717858115665215200,11.37021533203125,0.003626692807301879,0.007863515987992287,-0.0057287258096039295
1717858115675256300,11.38025634765625,0.004283161833882332,0.009768741205334663,-0.007898136973381042
1717858115685297200,11.390297119140625,0.0041526672430336475,0.008717857301235199,-0.004596349783241749
1717858115695337200,11.400337158203126,0.00430180411785841,0.009183644317090511,-0.006299707572907209
1717858115705378300,11.41037841796875,0.004485561978071928,0.008803078904747963,-0.00549197057262063
1717858115715418000,11.420418212890626,0.002578738844022155,0.008732238784432411,-0.005270662251859903
1717858115725459200,11.430459228515625,0.0023390543647110462,0.00845580268651247,-0.005261074751615524
1717858115735500000,11.4405,0.004839762579649687,0.008886968716979027,-0.005508748814463615
1717858115745540000,11.4505400390625,0.0036221654154360294,0.00945022702217102,-0.006482400465756655
1717858115755581200,11.460581298828124,0.00472551304847002,0.00905341561883688,-0.007428887765854597
1717858115765621200,11.470621337890625,0.004494616761803627,0.009160474874079227,-0.006521282717585564
1717858115775662000,11.480662109375,0.0034285534638911486,0.009467803873121738,-0.0054882424883544445
1717858115785703200,11.490703125,0.003721501212567091,0.008680840022861958,-0.006531136110424995
1717858115795743200,11.5007431640625,0.004291417542845011,0.009727728553116322,-0.005023520905524492
1717858115805784300,11.510784423828126,0.0041159153915941715,0.00800386443734169,-0.00683074165135622
1717858115815824400,11.520824462890625,0.004393416922539473,0.010326406918466091,-0.003674895968288183
1717858115825865200,11.530865234375,0.004195543937385082,0.0113988621160388,-0.005350556690245867
1717858115835906300,11.54090625,0.003796602366492152,0.012092881835997105,-0.005951898638159037
1717858115845946400,11.5509462890625,0.003823500359430909,0.009576461277902126,-0.006632070057094097
1717858115855987200,11.5609873046875,0.004065847955644131,0.0046213832683861256,-0.006252835970371962
1717858115866027000,11.571027099609376,0.004312989301979542,0.010735202580690384,-0.004097007215023041
1717858115876068000,11.581068115234375,0.0034847462084144354,0.014357633888721466,-0.00552206439897418
1717858115886109200,11.591109130859374,0.004811799619346857,0.007899468764662743,-0.005596633069217205
1717858115896149200,11.601149169921875,0.002977680414915085,0.0057463026605546474,-0.0070549799129366875
1717858115906190000,11.611190185546874,0.0034229608718305826,0.007963650859892368,-0.005089567042887211
1717858115916230100,11.621230224609375,0.005350290797650814,0.011200190521776676,-0.004861067980527878
1717858115926271200,11.631271240234375,0.004920722916722298,0.008671784773468971,-0.007155647501349449
1717858115936312300,11.641312255859376,0.0035023230593651533,0.009588977321982384,-0.0054512242786586285
1717858115946352000,11.65135205078125,0.0034402713645249605,0.00891146995127201,-0.006140450481325388
1717858115956393200,11.661393310546876,0.0037681066896766424,0.008347677998244762,-0.0052205948159098625
1717858115966433300,11.671433349609375,0.0041486723348498344,0.00788615271449089,-0.00558118661865592
1717858115976474400,11.681474365234376,0.002299639629200101,0.008669388480484486,-0.005135640036314726
1717858115986515200,11.69151513671875,0.002575543010607362,0.007948203943669796,-0.005681055132299662
1717858115996555300,11.70155517578125,0.0036360137164592743,0.008647816255688667,-0.005254949443042278
1717858116006596400,11.711596435546875,0.0036189695820212364,0.00905794370919466,-0.005890646018087864
1717858116016636200,11.72163623046875,0.004286624025553465,0.009812682867050171,-0.005151086021214724
1717858116026677200,11.73167724609375,0.006098372396081686,0.011029748246073723,-0.005576126743108034
1717858116036718000,11.741718017578124,0.0021521004382520914,0.009735983796417713,-0.0060147494077682495
1717858116046758100,11.751758056640625,0.0032794165890663862,0.006783337332308292,-0.006791327148675919
1717858116056799200,11.76179931640625,0.0034056503791362047,0.008283762261271477,-0.006458964664489031
1717858116066839300,11.77183935546875,0.0043801008723676205,0.010602043941617012,-0.005002481862902641
1717858116076880100,11.781880126953125,0.004348409362137318,0.011120295152068138,-0.005673864856362343
1717858116086921200,11.791921142578126,0.005293565336614847,0.0100813964381814,-0.005371329374611378
1717858116096961300,11.801961181640625,0.0031909996178001165,0.0076243639923632145,-0.00729413190856576
1717858116107002400,11.81200244140625,0.004170776344835758,0.009356750175356865,-0.006702111102640629
1717858116117043200,11.822043212890625,0.003931891173124313,0.012288624420762062,-0.004968925844877958
1717858116127083300,11.832083251953126,0.0027150926180183887,0.009281116537749767,-0.006157494615763426
1717858116137124400,11.842124267578125,0.004630704410374165,0.008214253932237625,-0.005628590937703848
1717858116147164200,11.8521640625,0.004298608284443617,0.009272860363125801,-0.006098106037825346
1717858116157205000,11.862205078125,0.003710316028445959,0.010670487768948078,-0.003870371961966157
1717858116167246000,11.87224609375,0.004322576802223921,0.009045959450304508,-0.005720736458897591
1717858116177286100,11.8822861328125,0.005279717035591602,0.007895739749073982,-0.005124188028275967
1717858116187327200,11.8923271484375,0.004727110732346773,0.008078965358436108,-0.005656288005411625
1717858116197367300,11.9023671875,0.004238953348249197,0.010083260014653206,-0.006485063582658768
1717858116207408000,11.912408203125,0.0023409186396747828,0.009383914060890675,-0.0059897154569625854
1717858116217449200,11.92244921875,0.0031316110398620367,0.009621202014386654,-0.006191849708557129
1717858116227489300,11.9324892578125,0.00424214918166399,0.007415305823087692,-0.005881591234356165
1717858116237530000,11.942530029296876,0.004230164922773838,0.007506918627768755,-0.006460828706622124
1717858116247570200,11.952570068359375,0.0043982104398310184,0.008547681383788586,-0.006457100156694651
1717858116257611300,11.962611328125,0.002665291540324688,0.009720005095005035,-0.005662412848323584
1717858116267652400,11.97265234375,0.0033451966010034084,0.009366603568196297,-0.004747617058455944
