time,seconds_elapsed,z,y,x
1716738155785223400,0.128223388671875,0.0005388259887695312,-0.005173403769731522,-0.002677328884601593
1716738155795223300,0.138223388671875,0.21036529541015625,-1.7420135736465454,-0.8932211995124817
1716738155805223400,0.148223388671875,0.20995807647705078,-1.74024498462677,-0.8924323916435242
1716738155815223300,0.158223388671875,0.20958423614501953,-1.7386531829833984,-0.8916382789611816
1716738155825223400,0.168223388671875,0.20915889739990234,-1.736804485321045,-0.8907927870750427
1716738155835223300,0.178223388671875,0.2087554931640625,-1.7351021766662598,-0.8898926973342896
1716738155845223400,0.188223388671875,0.20834732055664062,-1.7333413362503052,-0.8890597820281982
1716738155855223600,0.1982236328125,0.20794105529785156,-1.731620192527771,-0.8881646394729614
1716738155865223400,0.208223388671875,0.2075338363647461,-1.7299236059188843,-0.8871957659721375
1716738155875223600,0.2182236328125,0.20715999603271484,-1.7283436059951782,-0.8863533735275269
1716738155885223700,0.2282236328125,0.20676040649414062,-1.7266474962234497,-0.8854705691337585
1716738155895223600,0.2382236328125,0.20637226104736328,-1.7249559164047241,-0.8846816420555115
1716738155905223700,0.2482236328125,0.20597076416015625,-1.7232393026351929,-0.8838023543357849
1716738155915223600,0.2582236328125,0.2055644989013672,-1.7215014696121216,-0.8829059600830078
1716738155925223700,0.2682236328125,0.20516586303710938,-1.7198024988174438,-0.882023274898529
1716738155935223600,0.2782236328125,0.20480632781982422,-1.7182796001434326,-0.8811900019645691
1716738155945223700,0.2882236328125,0.20441722869873047,-1.7166001796722412,-0.8803580403327942
1716738155955223600,0.2982236328125,0.2040119171142578,-1.7148442268371582,-0.8794896006584167
1716738155965223700,0.3082236328125,0.2036275863647461,-1.7132232189178467,-0.8785820603370667
1716738155975223600,0.3182236328125,0.2032451629638672,-1.7115901708602905,-0.877722978591919
1716738155985223700,0.3282236328125,0.20284175872802734,-1.7098535299301147,-0.8768249154090881
1716738155995223600,0.3382236328125,0.16597843170166016,-1.542046308517456,-0.7924700975418091
1716738156005223700,0.3482236328125,0.1359233856201172,-1.390472173690796,-0.7161232829093933
1716738156015223600,0.3582236328125,0.11143302917480469,-1.2536534070968628,-0.6472985148429871
1716738156025223700,0.3682236328125,0.09145832061767578,-1.1301798820495605,-0.5852162837982178
1716738156035223600,0.3782236328125,0.07515430450439453,-1.0187709331512451,-0.5292140245437622
1716738156045223700,0.3882236328125,0.06184959411621094,-0.918319821357727,-0.4787770211696625
1716738156055223600,0.3982236328125,0.050978660583496094,-0.8278070688247681,-0.43319788575172424
1716738156065223700,0.4082236328125,0.04210186004638672,-0.7462969422340393,-0.39220598340034485
1716738156075223600,0.4182236328125,0.034834861755371094,-0.6728147864341736,-0.3552184998989105
1716738156085223700,0.4282236328125,0.028885841369628906,-0.6065813302993774,-0.3219583332538605
1716738156095223600,0.4382236328125,0.02401256561279297,-0.5470563173294067,-0.29184582829475403
1716738156105223700,0.4482236328125,0.020020484924316406,-0.49345237016677856,-0.26484349370002747
1716738156115223600,0.4582236328125,0.016737937927246094,-0.44511860609054565,-0.24051861464977264
1716738156125223700,0.4682236328125,0.014042854309082031,-0.40162283182144165,-0.21873916685581207
1716738156135223800,0.478223876953125,0.011821746826171875,-0.3624526262283325,-0.1990748941898346
1716738156145223700,0.4882236328125,0.009991645812988281,-0.32719099521636963,-0.1813661754131317
1716738156155223600,0.4982236328125,0.008478164672851562,-0.29545271396636963,-0.1653701364994049
1716738156165223700,0.5082236328125,0.00004291534423828125,-0.2573169469833374,-0.14375366270542145
1716738156175223600,0.5182236328125,0.006183624267578125,-0.2315407693386078,-0.12578701972961426
1716738156185223700,0.5282236328125,-0.01622772216796875,-0.21329805254936218,-0.10900469124317169
1716738156195223600,0.5382236328125,-0.01694965362548828,-0.18280361592769623,-0.088678278028965
1716738156205223700,0.5482236328125,-0.010363578796386719,-0.15214721858501434,-0.08147652447223663
1716738156215223600,0.5582236328125,-0.01804065704345703,-0.15225359797477722,-0.06578222662210464
1716738156225223700,0.5682236328125,-0.0016937255859375,-0.13720522820949554,-0.07262524962425232
1716738156235223600,0.5782236328125,-0.002040863037109375,-0.1237371563911438,-0.05857224762439728
1716738156245223700,0.5882236328125,-0.0047283172607421875,-0.11154116690158844,-0.05009784549474716
1716738156255223600,0.5982236328125,-0.007366180419921875,-0.10778947174549103,-0.04477086663246155
1716738156265223700,0.6082236328125,-0.01715564727783203,-0.08809289336204529,-0.056624095886945724
1716738156275223600,0.6182236328125,-0.00775909423828125,-0.10062975436449051,-0.054499611258506775
1716738156285223700,0.6282236328125,-0.012705802917480469,-0.056429505348205566,-0.02378491312265396
1716738156295223600,0.6382236328125,-0.0008649826049804688,-0.04680994153022766,-0.003329530358314514
1716738156305223700,0.6482236328125,-0.012938499450683594,-0.05019166320562363,-0.02205326408147812
1716738156315223600,0.6582236328125,-0.029784202575683594,-0.047152452170848846,-0.026785902678966522
1716738156325223700,0.6682236328125,-0.0035219192504882812,-0.0422992929816246,-0.02934226766228676
1716738156335223600,0.6782236328125,-0.008375167846679688,-0.052354294806718826,-0.029568903148174286
1716738156345223700,0.6882236328125,-0.022803306579589844,-0.045645058155059814,-0.008228674530982971
1716738156355223600,0.6982236328125,-0.010884284973144531,-0.04904158413410187,-0.02090088278055191
1716738156365223700,0.7082236328125,0.0034322738647460938,-0.026159219443798065,-0.036033812910318375
1716738156375223600,0.7182236328125,-0.010975837707519531,-0.030174124985933304,-0.015071213245391846
1716738156385223700,0.7282236328125,-0.015802383422851562,-0.04161914810538292,-0.02780774235725403
1716738156395223600,0.7382236328125,-0.02541637420654297,-0.012362748384475708,-0.026179060339927673
1716738156405223700,0.7482236328125,-0.025447845458984375,-0.024340622127056122,-0.012606516480445862
1716738156415223600,0.7582236328125,-0.006320953369140625,-0.012705251574516296,-0.023155860602855682
1716738156425223700,0.7682236328125,-0.018316268920898438,-0.010898999869823456,-0.012113455682992935
1716738156435223600,0.7782236328125,-0.025521278381347656,-0.023643512278795242,-0.008348584175109863
1716738156445223700,0.7882236328125,-0.00878143310546875,-0.014878649264574051,-0.014312654733657837
1716738156455223600,0.7982236328125,-0.0016183853149414062,-0.015790671110153198,0.008377857506275177
1716738156465223700,0.8082236328125,-0.01839160919189453,-0.016893908381462097,-0.012464664876461029
1716738156475223600,0.8182236328125,-0.016008377075195312,-0.013456545770168304,0.00968945026397705
1716738156485223700,0.8282236328125,-0.02080821990966797,-0.002689674496650696,0.005288131535053253
1716738156495223600,0.8382236328125,-0.025603294372558594,0.0052452534437179565,0.00314880907535553
1716738156505223700,0.8482236328125,-0.020814895629882812,0.002865336835384369,0.012701749801635742
1716738156515223600,0.8582236328125,-0.0016603469848632812,-0.018729664385318756,-0.013663392513990402
1716738156525223700,0.8682236328125,-0.008846282958984375,-0.008629146963357925,0.007954157888889313
1716738156535223600,0.8782236328125,-0.00885009765625,-0.010533690452575684,0.010366439819335938
1716738156545223700,0.8882236328125,-0.011248588562011719,-0.012101180851459503,-0.001853741705417633
1716738156555223600,0.8982236328125,-0.01603984832763672,0.005252368748188019,0.0004916563630104065
1716738156565223700,0.9082236328125,-0.013648033142089844,-0.011093243956565857,-0.002027548849582672
1716738156575223600,0.9182236328125,-0.011256217956542969,-0.029823627322912216,-0.002033233642578125
1716738156585223700,0.9282236328125,-0.02802276611328125,0.004722755402326584,-0.0020503178238868713
1716738156595223600,0.9382236328125,-0.013660430908203125,-0.004316937178373337,-0.006792042404413223
1716738156605223700,0.9482236328125,-0.004088401794433594,-0.00611615926027298,-0.021044667810201645
1716738156615223600,0.9582236328125,-0.004093170166015625,-0.01527799665927887,-0.013501826673746109
1716738156625223700,0.9682236328125,-0.020862579345703125,0.00222034752368927,-0.012818660587072372
1716738156635223600,0.9782236328125,-0.016080856323242188,-0.004532575607299805,-0.0001874789595603943
1716738156645223700,0.9882236328125,-0.013689994812011719,0.010166212916374207,-0.0022207237780094147
1716738156655223600,0.9982236328125,-0.011301040649414062,-0.0016082897782325745,0.010287255048751831
1716738156665223700,1.0082236328125,-0.011301040649414062,-0.011128157377243042,0.022244010120630264
1716738156675223600,1.0182236328125,-0.008907318115234375,-0.01110907644033432,-0.006410274654626846
1716738156685223700,1.0282236328125,-0.004120826721191406,-0.001009177416563034,-0.008896257728338242
1716738156695223600,1.0382236328125,0.000667572021484375,-0.005783297121524811,-0.006525922566652298
1716738156705223700,1.0482236328125,-0.016097068786621094,-0.014964897185564041,-0.003928113728761673
1716738156715223600,1.0582236328125,-0.016096115112304688,0.008925136178731918,0.0008934848010540009
1716738156725223700,1.0682236328125,-0.011312484741210938,0.0022332370281219482,0.005942206829786301
1716738156735223600,1.0782236328125,0.007841110229492188,-0.01212211325764656,0.0011915937066078186
1716738156745223700,1.0882236328125,-0.011313438415527344,0.007040787488222122,0.006018303334712982
1716738156755223600,1.0982236328125,0.0030517578125,0.01705937460064888,0.0008955337107181549
1716738156765223700,1.1082236328125,-0.011313438415527344,0.0002481825649738312,0.0034038014709949493
1716738156775223600,1.1182236328125,-0.008919715881347656,-0.006801459938287735,0.008158646523952484
1716738156785223700,1.1282236328125,-0.01610279083251953,0.002723362296819687,0.010586041957139969
1716738156795223600,1.1382236328125,-0.011315345764160156,-0.004454158246517181,-0.008467726409435272
1716738156805223700,1.1482236328125,0.024599075317382812,0.0026238374412059784,0.015460249036550522
1716738156815223600,1.1582236328125,-0.023285865783691406,0.0026335231959819794,0.0059214308857917786
1716738156825223700,1.1682236328125,-0.03046894073486328,-0.02363600954413414,0.0011565275490283966
1716738156835223600,1.1782236328125,0.0006570816040039062,0.007734868675470352,0.01034754142165184
1716738156845223700,1.1882236328125,0.005446434020996094,0.014751002192497253,0.012723110616207123
1716738156855223600,1.1982236328125,-0.030463218688964844,0.005087312310934067,0.005036387592554092
1716738156865223700,1.2082236328125,-0.02806854248046875,0.009885400533676147,0.0026801712810993195
1716738156875223600,1.2182236328125,0.0030603408813476562,0.011987995356321335,-0.002621069550514221
1716738156885223700,1.2282236328125,0.019820213317871094,0.00960785523056984,0.009326200932264328
1716738156895223600,1.2382236328125,-0.025665283203125,0.004452388733625412,0.011388331651687622
1716738156905223700,1.2482236328125,-0.03523731231689453,-0.017420049756765366,-0.005774419754743576
1716738156915223600,1.2582236328125,-0.028051376342773438,-0.0007715374231338501,-0.013475161045789719
1716738156925223700,1.2682236328125,0.0126495361328125,0.00881955772638321,-0.018287427723407745
1716738156935223600,1.2782236328125,-0.006504058837890625,0.0017083026468753815,-0.0014852359890937805
1716738156945223700,1.2882236328125,-0.016080856323242188,0.018481962382793427,0.020038649439811707
1716738156955223600,1.2982236328125,-0.013681411743164062,0.0058874934911727905,-0.006443466991186142
1716738156965223700,1.3082236328125,0.007869720458984375,0.0004522576928138733,0.010398641228675842
1716738156975223600,1.3182236328125,-0.01607227325439453,-0.001989740878343582,0.003187708556652069
1716738156985223700,1.3282236328125,-0.016073226928710938,0.002869829535484314,0.000836491584777832
1716738156995223600,1.3382236328125,-0.011284828186035156,-0.0019047074019908905,-0.01355225220322609
1716738157005224000,1.348223876953125,0.0054759979248046875,-0.01631748303771019,-0.011186502873897552
1716738157015224000,1.35822412109375,-0.013677597045898438,0.01475486159324646,-0.01354735717177391
1716738157025224000,1.368223876953125,-0.008891105651855469,-0.0021553635597229004,0.006048798561096191
1716738157035224000,1.37822412109375,-0.01367950439453125,0.004975080490112305,0.0036879852414131165
1716738157045224000,1.388223876953125,-0.001708984375,0.00020556151866912842,-0.02033974602818489
1716738157055224000,1.39822412109375,0.0006837844848632812,-0.0047572702169418335,-0.010253742337226868
1716738157065224000,1.408223876953125,-0.016076087951660156,-0.00002102181315422058,-0.015008755028247833
1716738157075224000,1.41822412109375,-0.0065021514892578125,-0.011985942721366882,0.02140837162733078
1716738157085224000,1.428223876953125,-0.018477439880371094,0.00518832728266716,0.00022096186876296997
1716738157095224000,1.43822412109375,-0.008900642395019531,0.0075968168675899506,-0.009379707276821136
1716738157105224000,1.448223876953125,-0.018479347229003906,-0.002097662538290024,0.0006110481917858124
1716738157115225000,1.45822509765625,-0.013693809509277344,0.00022158026695251465,0.001115560531616211
1716738157125225000,1.468224853515625,-0.013693809509277344,-0.00700841099023819,-0.013278316706418991
1716738157135225000,1.47822509765625,0.0006704330444335938,0.007423557341098785,0.00837414339184761
1716738157145225000,1.488224853515625,0.005458831787109375,0.00025023892521858215,0.008412458002567291
1716738157155225000,1.49822509765625,-0.011301040649414062,-0.006965514272451401,-0.005924168974161148
1716738157165225000,1.508224853515625,-0.006511688232421875,-0.007032092660665512,-0.015524625778198242
1716738157175225000,1.51822509765625,-0.011301040649414062,-0.002281658351421356,0.015690557658672333
1716738157185225000,1.528224853515625,-0.023271560668945312,-0.016651783138513565,0.01806589961051941
1716738157195225000,1.53822509765625,-0.011301994323730469,0.010145217180252075,-0.0037400908768177032
1716738157205225000,1.548224853515625,-0.0065135955810546875,-0.001877564936876297,-0.010808642953634262
1716738157215225000,1.55822509765625,-0.008908271789550781,0.0029159225523471832,-0.0011319927871227264
1716738157225225000,1.568224853515625,-0.02566814422607422,0.0004741549491882324,0.0012337453663349152
1716738157235225000,1.57822509765625,-0.028061866760253906,0.017247628420591354,0.013181019574403763
1716738157245225200,1.58822509765625,-0.018485069274902344,0.002891920506954193,0.018007609993219376
1716738157255225000,1.59822509765625,-0.00890350341796875,-0.009275626391172409,0.0031865276396274567
1716738157265225200,1.60822509765625,-0.02087116241455078,-0.006978075951337814,0.00743306428194046
1716738157275225000,1.61822509765625,-0.020872116088867188,0.005059618502855301,0.009850751608610153
1716738157285225200,1.62822509765625,-0.008901596069335938,0.009985651820898056,-0.011711325496435165
1716738157295225000,1.63822509765625,-0.028054237365722656,0.019515063613653183,0.0026252232491970062
1716738157305224700,1.648224609375,-0.032837867736816406,0.007039293646812439,-0.004793960601091385
1716738157315224800,1.658224853515625,-0.008896827697753906,0.0023179836571216583,-0.002376597374677658
1716738157325224700,1.668224609375,-0.011287689208984375,0.006597239524126053,0.016683146357536316
1716738157335224800,1.678224853515625,-0.004103660583496094,-0.015059996396303177,0.004679091274738312
1716738157345224700,1.688224609375,-0.0017070770263671875,0.006406165659427643,0.01145731657743454
1716738157356555300,1.69955517578125,-0.013672828674316406,-0.0034004338085651398,0.00616060197353363
1716738157366555400,1.709555419921875,-0.008884429931640625,-0.0033909305930137634,-0.00098380446434021
1716738157376555500,1.719555419921875,-0.016068458557128906,-0.0009346455335617065,-0.0010605305433273315
1716738157386555400,1.729555419921875,-0.011280059814453125,-0.003319341689348221,-0.0034165382385253906
1716738157396555500,1.739555419921875,-0.013673782348632812,0.0015401653945446014,0.006122119724750519
1716738157406555400,1.749555419921875,-0.013673782348632812,-0.003291182219982147,-0.003463931381702423
1716738157416554200,1.75955419921875,-0.008884429931640625,-0.019979309290647507,-0.005896490067243576
1716738157426554400,1.769554443359375,-0.008885383605957031,-0.000873129814863205,0.006126970052719116
1716738157436554200,1.77955419921875,-0.013675689697265625,-0.00759950652718544,-0.008434504270553589
1716738157446554400,1.789554443359375,-0.006493568420410156,-0.002801567316055298,0.0011803805828094482
1716738157456554200,1.79955419921875,-0.011282920837402344,-0.00027903541922569275,-0.0059738121926784515
1716738157466554400,1.809554443359375,-0.013675689697265625,0.009230956435203552,-0.0012089312076568604
1716738157476554200,1.81955419921875,-0.011281967163085938,-0.0003887973725795746,-0.010794982314109802
1716738157486554400,1.829554443359375,-0.0208587646484375,-0.007623560726642609,-0.005973193794488907
1716738157496554200,1.83955419921875,-0.01846790313720703,0.006999537348747253,-0.007987625896930695
1716738157506554400,1.849554443359375,-0.02086639404296875,-0.012147940695285797,0.011670172214508057
1716738157516554200,1.85955419921875,-0.016077041625976562,-0.012195121496915817,-0.007431253790855408
1716738157526554400,1.869554443359375,-0.016077041625976562,-0.002608831971883774,-0.017050929367542267
1716738157536554200,1.87955419921875,-0.013688087463378906,-0.009347967803478241,-0.02136470377445221
1716738157546554400,1.889554443359375,-0.008904457092285156,-0.0066956281661987305,-0.004144590348005295
1716738157556554200,1.89955419921875,-0.006514549255371094,0.0055665187537670135,-0.006106577813625336
1716738157566554400,1.909554443359375,-0.013696670532226562,-0.003996189683675766,-0.003736041486263275
1716738157576554200,1.91955419921875,-0.016091346740722656,-0.013563130050897598,-0.0036982521414756775
1716738157586554400,1.929554443359375,-0.016098976135253906,-0.0082261823117733,0.013630453497171402
1716738157596554200,1.93955419921875,-0.01610279083251953,-0.007816556841135025,-0.0005550943315029144
1716738157606554400,1.949554443359375,-0.018499374389648438,-0.0026045292615890503,-0.012370139360427856
1716738157616554200,1.95955419921875,-0.0017404556274414062,0.00698196142911911,-0.0003611333668231964
1716738157626554400,1.969554443359375,-0.004134178161621094,0.002208191901445389,-0.017144810408353806
1716738157636554200,1.97955419921875,-0.020898818969726562,-0.004739969968795776,-0.007040586322546005
1716738157646554400,1.989554443359375,0.0006456375122070312,0.014543436467647552,0.0077569372951984406
1716738157656554200,1.99955419921875,-0.006537437438964844,0.02658577263355255,-0.01143496111035347
1716738157666554400,2.009554443359375,-0.020902633666992188,-0.0045437999069690704,0.010093927383422852
1716738157676554200,2.01955419921875,-0.023296356201171875,0.009731218218803406,0.01253112405538559
1716738157686554400,2.029554443359375,-0.008927345275878906,-0.02675243467092514,0.012513328343629837
1716738157696554200,2.03955419921875,0.0006504058837890625,-0.017175938934087753,0.007644221186637878
1716738157706554400,2.049554443359375,-0.013714790344238281,-0.005252715200185776,0.01001007854938507
1716738157716554200,2.05955419921875,-0.011321067810058594,0.013915348798036575,0.019562821835279465
1716738157726554400,2.069554443359375,-0.016107559204101562,0.014056716114282608,-0.004859846085309982
1716738157736554200,2.07955419921875,-0.03765392303466797,-0.009885646402835846,-0.01691163331270218
1716738157746554400,2.089554443359375,0.0006532669067382812,-0.007472559809684753,0.004550464451313019
1716738157756554200,2.09955419921875,0.00783538818359375,-0.005073312669992447,0.018934451043605804
1716738157766554400,2.109554443359375,-0.042441368103027344,0.00470670685172081,-0.0006142258644104004
1716738157776554200,2.11955419921875,-0.023286819458007812,-0.0000674128532409668,0.0017561130225658417
1716738157786554400,2.129554443359375,0.005442619323730469,0.019095491617918015,0.001794416457414627
1716738157796554200,2.13955419921875,-0.0017404556274414062,0.01671132817864418,0.004226218909025192
1716738157806554400,2.149554443359375,-0.018499374389648438,0.0046879686415195465,0.011442411690950394
1716738157816554200,2.15955419921875,-0.013707160949707031,-0.00039121881127357483,0.00877777487039566
1716738157826554400,2.169554443359375,-0.004126548767089844,0.004125192761421204,0.0036332570016384125
1716738157836554200,2.17955419921875,-0.0017290115356445312,-0.005799680948257446,-0.003967296332120895
1716738157846554400,2.189554443359375,-0.028059959411621094,0.017893970012664795,0.012369349598884583
1716738157856554200,2.19955419921875,-0.04242134094238281,-0.013569306582212448,0.0024938061833381653
1716738157866554400,2.209554443359375,-0.020874977111816406,0.005641430616378784,0.0026414059102535248
1716738157876554200,2.21955419921875,0.0006732940673828125,-0.006315287202596664,0.0026175417006015778
1716738157886554400,2.229554443359375,-0.00890350341796875,-0.013540472835302353,0.00739629939198494
1716738157896554200,2.23955419921875,-0.03763389587402344,-0.023116815835237503,-0.002099882811307907
1716738157906554400,2.249554443359375,-0.0041179656982421875,0.01586524024605751,-0.002310756593942642
1716738157916554200,2.25955419921875,-0.0017232894897460938,0.006178785115480423,-0.011920496821403503
1716738157926554000,2.26955419921875,-0.01848316192626953,-0.012903284281492233,0.009669899940490723
1716738157936554200,2.27955419921875,-0.037636756896972656,-0.005711216479539871,0.016890615224838257
1716738157946554000,2.28955419921875,-0.018482208251953125,0.006477605551481247,0.016471415758132935
1716738157956554200,2.29955419921875,0.007853507995605469,-0.005426667630672455,0.014100790023803711
1716738157966554000,2.30955419921875,-0.020877838134765625,-0.0030228570103645325,-0.0026205889880657196
1716738157976554200,2.31955419921875,-0.025663375854492188,0.004329752177000046,0.0016392022371292114
1716738157986554000,2.32955419921875,-0.018477439880371094,0.006694182753562927,-0.010769210755825043
1716738157996554200,2.33955419921875,-0.008901596069335938,-0.00047891587018966675,-0.00833681970834732
1716738158006554000,2.34955419921875,-0.011296272277832031,-0.002863660454750061,-0.015481308102607727
1716738158016554200,2.35955419921875,-0.02566242218017578,0.006779875606298447,-0.005880933254957199
1716738158026554000,2.36955419921875,-0.013690948486328125,0.00206761434674263,-0.0011117905378341675
1716738158036554200,2.37955419921875,-0.006508827209472656,-0.0003788694739341736,-0.010655239224433899
1716738158046554000,2.38955419921875,-0.008902549743652344,-0.005214627832174301,-0.003420226275920868
1716738158056554200,2.39955419921875,-0.0208740234375,0.001915808767080307,-0.0009926408529281616
1716738158066554000,2.40955419921875,-0.025661468505859375,0.004262436181306839,0.013344116508960724
1716738158076554200,2.41955419921875,-0.011295318603515625,0.0017393939197063446,0.003739379346370697
1716738158086554000,2.42955419921875,-0.018477439880371094,-0.0030963681638240814,0.01576279103755951
1716738158096554200,2.43955419921875,-0.02566051483154297,-0.010326586663722992,-0.0010251626372337341
1716738158106554000,2.44955419921875,-0.008900642395019531,0.003991246223449707,0.003734588623046875
1716738158116554200,2.45955419921875,-0.004111289978027344,-0.008088964968919754,-0.00579441711306572
1716738158126554000,2.46955419921875,-0.02087116241455078,-0.005680665373802185,0.008547134697437286
1716738158136554200,2.47955419921875,-0.02087116241455078,-0.005666423588991165,-0.020207222551107407
1716738158146554000,2.48955419921875,-0.016081809997558594,0.0038482174277305603,0.0012552812695503235
1716738158156554200,2.49955419921875,-0.006505012512207031,0.0038572996854782104,-0.0011004060506820679
1716738158166554000,2.50955419921875,-0.011293411254882812,-0.015282027423381805,-0.0035184696316719055
1716738158176554200,2.51955419921875,-0.02805614471435547,-0.005224559456110001,-0.0033769160509109497
1716738158186554000,2.52955419921875,-0.0017251968383789062,-0.004738476127386093,0.0016525983810424805
1716738158196554200,2.53955419921875,-0.018484115600585938,0.012092288583517075,0.0040895938873291016
1716738158206554000,2.54955419921875,-0.0065135955810546875,0.007194649428129196,-0.010308876633644104
1716738158216554200,2.55955419921875,-0.0280609130859375,-0.014296270906925201,-0.005534809082746506
1716738158226554000,2.56955419921875,-0.013693809509277344,0.00235869362950325,-0.0032359138131141663
1716738158236554200,2.57955419921875,-0.01609039306640625,-0.007151179015636444,-0.022285085171461105
1716738158246554000,2.58955419921875,-0.01609516143798828,0.0146549753844738,-0.00019568204879760742
1716738158256554200,2.59955419921875,-0.011305809020996094,-0.006940633058547974,-0.005012422800064087
1716738158266554000,2.60955419921875,-0.025676727294921875,-0.0021166838705539703,-0.00423261895775795
1716738158276554200,2.61955419921875,-0.013708114624023438,-0.011664018034934998,-0.0013196766376495361
1716738158286554000,2.62955419921875,-0.013709068298339844,-0.0020775310695171356,-0.0012816861271858215
1716738158296554200,2.63955419921875,-0.02568340301513672,-0.025795061141252518,-0.0009540766477584839
1716738158306554000,2.64955419921875,-0.018500328063964844,-0.004304051399230957,0.01590050384402275
1716738158316554200,2.65955419921875,-0.02089691162109375,0.0009029433131217957,0.008611947298049927
1716738158326554000,2.66955419921875,-0.013714790344238281,-0.008227240294218063,0.00837768241763115
1716738158336554200,2.67955419921875,-0.023291587829589844,-0.017856396734714508,0.006017062813043594
1716738158346554000,2.68955419921875,-0.0017452239990234375,-0.007842592895030975,-0.008539460599422455
1716738158356554200,2.69955419921875,-0.011325836181640625,0.000024713575839996338,0.0032584629952907562
1716738158366554000,2.70955419921875,-0.02329730987548828,0.007725182920694351,0.0006727427244186401
1716738158376554200,2.71955419921875,-0.011326789855957031,0.00772026926279068,0.0030480772256851196
1716738158386554000,2.72955419921875,-0.011326789855957031,0.007606025785207748,-0.004105616360902786
1716738158396554200,2.73955419921875,-0.016115188598632812,0.019652992486953735,-0.006518896669149399
1716738158406554000,2.74955419921875,-0.020904541015625,-0.004222512245178223,0.007870007306337357
1716738158416554200,2.75955419921875,-0.008928298950195312,0.014378901571035385,-0.016256146132946014
1716738158426554000,2.76955419921875,-0.016111373901367188,0.0024693533778190613,-0.0163322314620018
1716738158436554200,2.77955419921875,-0.004139900207519531,0.00008961930871009827,-0.001991070806980133
1716738158446554000,2.78955419921875,-0.02329540252685547,0.011833515018224716,-0.003923378884792328
1716738158456554200,2.79955419921875,-0.011323928833007812,0.006669741123914719,-0.015617188066244125
1716738158466554000,2.80955419921875,-0.013718605041503906,0.006366182118654251,-0.005639944225549698
1716738158476554200,2.81955419921875,-0.00414276123046875,-0.0037657320499420166,0.014119375497102737
1716738158486554000,2.82955419921875,-0.018507957458496094,-0.0133378766477108,0.009350061416625977
1716738158496554200,2.83955419921875,-0.008931159973144531,0.01061365008354187,0.009388241916894913
1716738158506554000,2.84955419921875,-0.013715744018554688,-0.004028361290693283,0.01627672091126442
1716738158516554200,2.85955419921875,-0.023288726806640625,-0.0017640553414821625,0.001317191869020462
1716738158526554000,2.86955419921875,-0.020895957946777344,0.01267268881201744,0.006148185580968857
1716738158536554200,2.87955419921875,-0.016106605529785156,0.0006496906280517578,0.00857558473944664
1716738158546554000,2.88955419921875,0.000652313232421875,0.0007164217531681061,0.006204959005117416
1716738158556554200,2.89955419921875,-0.016107559204101562,-0.0016829073429107666,-0.0033905915915966034
1716738158566554000,2.90955419921875,-0.023286819458007812,-0.004178181290626526,-0.008578240871429443
1716738158576554200,2.91955419921875,-0.023286819458007812,0.0030759647488594055,-0.010929848998785019
1716738158586554000,2.92955419921875,-0.006527900695800781,0.010272849351167679,-0.020530518144369125
1716738158596554200,2.93955419921875,-0.008921623229980469,0.005489327013492584,0.005824681371450424
1716738158606554000,2.94955419921875,-0.016104698181152344,0.0006583370268344879,0.010603435337543488
1716738158616554200,2.95955419921875,-0.018497467041015625,0.0145481638610363,-0.0060358308255672455
1716738158626554000,2.96955419921875,-0.00652313232421875,-0.010016478598117828,0.010901149362325668
1716738158636554200,2.97955419921875,-0.004128456115722656,-0.00043020397424697876,-0.0010317452251911163
1716738158646554000,2.98955419921875,-0.011311531066894531,0.006704654544591904,-0.005848407745361328
1716738158656554200,2.99955419921875,-0.013705253601074219,0.0019257180392742157,0.003766510635614395
1716738158666554000,3.00955419921875,-0.020888328552246094,-0.005304854363203049,0.0013441704213619232
1716738158676554200,3.01955419921875,-0.011310577392578125,0.011350117623806,-0.017823688685894012
1716738158686554000,3.02955419921875,-0.018492698669433594,0.004119947552680969,-0.008275341242551804
1716738158696554200,3.03955419921875,-0.016098976135253906,0.011307816952466965,0.0014011077582836151
1716738158706554000,3.04955419921875,-0.02567577362060547,0.006186649203300476,0.003920000046491623
1716738158716554200,3.05955419921875,-0.013703346252441406,0.003792267292737961,0.003839019685983658
1716738158726554000,3.06955419921875,-0.07355690002441406,-0.011043619364500046,-0.005598459392786026
1716738158736554200,3.07955419921875,-0.008913040161132812,-0.008986186236143112,-0.0004619807004928589
1716738158746554000,3.08955419921875,0.03897285461425781,-0.006777111440896988,-0.017235632985830307
1716738158756554200,3.09955419921875,-0.032853126525878906,-0.01640608161687851,0.006739776581525803
1716738158766554000,3.10955419921875,-0.044829368591308594,0.01996879279613495,0.011755403131246567
1716738158776554200,3.11955419921875,0.02220916748046875,0.003147214651107788,0.018852699548006058
1716738158786554000,3.12955419921875,0.034180641174316406,-0.0015695467591285706,-0.00504688173532486
1716738158796554200,3.13955419921875,-0.037642478942871094,0.0079583078622818,-0.0007720552384853363
1716738158806554000,3.14955419921875,-0.05919075012207031,-0.006449852138757706,0.0064013004302978516
1716738158816554200,3.15955419921875,0.01981830596923828,-0.001594938337802887,0.016001801937818527
1716738158826554000,3.16955419921875,0.038974761962890625,-0.006427347660064697,0.013112962245941162
1716738158836554200,3.17955419921875,-0.030454635620117188,-0.01107402890920639,-0.001733299344778061
1716738158846554000,3.18955419921875,-0.04960918426513672,-0.0014875344932079315,-0.008877918124198914
1716738158856554200,3.19955419921875,0.0006694793701171875,0.02017444372177124,-0.01608939841389656
1716738158866554000,3.20955419921875,0.024611473083496094,-0.003758002072572708,-0.016051441431045532
1716738158876554200,3.21955419921875,-0.04003334045410156,0.0033724345266819,0.0031355544924736023
1716738158886554000,3.22955419921875,-0.035243988037109375,0.0009974800050258636,0.007837850600481033
1716738158896554200,3.23955419921875,0.007852554321289062,-0.013410273939371109,-0.01611373946070671
1716738158906554000,3.24955419921875,0.015035629272460938,-0.01820344477891922,0.014991752803325653
1716738158916554200,3.25955419921875,-0.03284931182861328,-0.00382855162024498,-0.00891227275133133
1716738158926554000,3.26955419921875,-0.028061866760253906,-0.003695368766784668,0.010207656770944595
1716738158936554200,3.27955419921875,0.007849693298339844,0.011102627962827682,0.0005820654332637787
1716738158946554000,3.28955419921875,0.015031814575195312,-0.01761810854077339,0.012591060250997543
1716738158956554200,3.29955419921875,-0.025671958923339844,-0.005176655948162079,0.005188401788473129
1716738158966554000,3.30955419921875,-0.03285408020019531,0.004808902740478516,0.00009407848119735718
1716738158976554200,3.31955419921875,-0.006519317626953125,0.016789600253105164,0.00013207271695137024
1716738158986554000,3.32955419921875,0.007845878601074219,0.012072727084159851,-0.002219539135694504
1716738158996554200,3.33955419921875,-0.02567291259765625,0.009630922228097916,-0.014219086617231369
1716738159006553900,3.349553955078125,-0.03524971008300781,-0.016695793718099594,0.0025785118341445923
1716738159016553700,3.3595537109375,-0.004124641418457031,-0.007109526544809341,-0.004565980285406113
1716738159026553900,3.369553955078125,-0.004124641418457031,0.019174523651599884,-0.011715192347764969
1716738159036553700,3.3795537109375,-0.0376434326171875,-0.0024396926164627075,-0.009344842284917831
1716738159046553900,3.389553955078125,-0.011309623718261719,-0.004956468939781189,0.010284919291734695
1716738159056553700,3.3995537109375,-0.006522178649902344,0.007024001330137253,-0.004042170941829681
1716738159066553900,3.409553955078125,-0.0065212249755859375,-0.00014421343803405762,0.0007222108542919159
1716738159076553700,3.4195537109375,-0.03525257110595703,-0.0048853009939193726,-0.004037491977214813
1716738159086553900,3.429553955078125,-0.03046417236328125,-0.00019169971346855164,0.010432567447423935
1716738159096553700,3.4395537109375,0.0006608963012695312,-0.014557044953107834,-0.0040135458111763
1716738159106553900,3.449553955078125,-0.004126548767089844,0.004482332617044449,-0.003984630107879639
1716738159116553700,3.4595537109375,-0.008913993835449219,0.00443938747048378,0.00797712430357933
1716738159126553900,3.469553955078125,-0.020885467529296875,0.006719175726175308,0.005612034350633621
1716738159136553700,3.4795537109375,-0.008913993835449219,-0.002781681716442108,0.007987171411514282
1716738159146553900,3.489553955078125,-0.013702392578125,-0.01234862208366394,0.005630765110254288
1716738159156553700,3.4995537109375,-0.016097068786621094,-0.005151774734258652,0.0008184202015399933
1716738159166553900,3.509553955078125,-0.032855987548828125,-0.005199521780014038,0.005578566342592239
1716738159176553700,3.5195537109375,-0.004124641418457031,0.01623428612947464,0.005607351660728455
1716738159186553900,3.529553955078125,-0.0089111328125,0.006737168878316879,0.0027277059853076935
1716738159196553700,3.5395537109375,0.0006704330444335938,-0.0102614127099514,0.002262219786643982
1716738159206553900,3.549553955078125,-0.025664329528808594,0.006639912724494934,0.011357784271240234
1716738159216553700,3.5595537109375,-0.011295318603515625,0.001779109239578247,-0.005848634988069534
1716738159226553900,3.569553955078125,-0.0017194747924804688,-0.010182034224271774,0.003765970468521118
1716738159236553700,3.5795537109375,-0.02326679229736328,-0.000590939074754715,0.01571311056613922
1716738159246553900,3.589553955078125,-0.016083717346191406,-0.0029708556830883026,-0.010646961629390717
1716738159256553700,3.5995537109375,-0.011295318603515625,0.00888611376285553,0.01579902321100235
1716738159266553900,3.609553955078125,-0.008898735046386719,0.013701803982257843,-0.008594803512096405
1716738159276553700,3.6195537109375,-0.01847076416015625,-0.001101706176996231,-0.008888661861419678
1716738159286553900,3.629553955078125,-0.008894920349121094,-0.010541155934333801,0.000592939555644989
1716738159296553700,3.6395537109375,0.0006818771362304688,0.008669398725032806,0.0029728859663009644
1716738159306554000,3.64955419921875,-0.008893966674804688,0.008622020483016968,-0.0018441751599311829
1716738159316554200,3.65955419921875,-0.023260116577148438,-0.015248499810695648,-0.006590072065591812
1716738159326554000,3.66955419921875,-0.018471717834472656,-0.01032710075378418,-0.01380615308880806
1716738159336554200,3.67955419921875,-0.018471717834472656,0.004047796130180359,-0.008979760110378265
1716738159346554000,3.68955419921875,0.0006809234619140625,0.004000019282102585,-0.0017444267868995667
1716738159356554200,3.69955419921875,-0.016078948974609375,0.004071354866027832,-0.02093632146716118
1716738159366554000,3.70955419921875,-0.01607799530029297,-0.0032349228858947754,-0.008974626660346985
1716738159376554200,3.71955419921875,-0.013688087463378906,0.006305590271949768,-0.00823705643415451
1716738159386554000,3.72955419921875,0.005461692810058594,-0.0009653531014919281,0.004504755139350891
1716738159396554200,3.73955419921875,-0.00890350341796875,-0.001012846827507019,-0.0027065426111221313
1716738159406554000,3.74955419921875,-0.013691902160644531,0.00622650608420372,-0.0027206018567085266
1716738159416554200,3.75955419921875,-0.016088485717773438,0.01557161659002304,0.014643602073192596
1716738159426554000,3.76955419921875,-0.01369476318359375,-0.013215746730566025,0.0003738328814506531
1716738159436554200,3.77955419921875,-0.01848316192626953,-0.0036911480128765106,-0.001987047493457794
1716738159446554000,3.78955419921875,-0.011301040649414062,0.013082180172204971,0.009960487484931946
1716738159456554200,3.79955419921875,-0.011296272277832031,0.015028830617666245,0.004839807748794556
1716738159466554000,3.80955419921875,-0.008898735046386719,0.002671755850315094,0.0022803805768489838
1716738159476554200,3.81955419921875,-0.008897781372070312,-0.002164192497730255,-0.004849620163440704
1716738159486554000,3.82955419921875,-0.023263931274414062,-0.0165199413895607,-0.009599905461072922
1716738159496554200,3.83955419921875,-0.008898735046386719,-0.006867382675409317,-0.002517223358154297
1716738159506554000,3.84955419921875,0.005466461181640625,-0.016434326767921448,0.007097363471984863
1716738159516554200,3.85955419921875,-0.016083717346191406,-0.008833326399326324,-0.00011001154780387878
1716738159526554000,3.86955419921875,-0.0232696533203125,-0.020191140472888947,-0.009659357368946075
1716738159536554200,3.87955419921875,-0.011304855346679688,-0.002694014459848404,-0.002278704196214676
1716738159546554000,3.88955419921875,-0.006520271301269531,-0.00468343123793602,0.005064487457275391
1716738159556554200,3.89955419921875,-0.028066635131835938,0.009634211659431458,-0.006934985518455505
1716738159566554000,3.90955419921875,-0.02088451385498047,-0.014417197555303574,-0.014069586992263794
1716738159576554200,3.91955419921875,0.000659942626953125,0.005188681185245514,0.005354281514883041
1716738159586554000,3.92955419921875,-0.006524085998535156,-0.025973688811063766,0.012627329677343369
1716738159596554200,3.93955419921875,0.0030488967895507812,0.010519828647375107,-0.008946064859628677
1716738159606554000,3.94955419921875,-0.013709068298339844,-0.011080741882324219,0.012635648250579834
1716738159616554200,3.95955419921875,-0.0041351318359375,-0.010510314255952835,-0.009056232869625092
1716738159626554000,3.96955419921875,-0.0017442703247070312,0.006843823939561844,0.0005522221326828003
1716738159636554200,3.97955419921875,-0.013714790344238281,0.009195078164339066,-0.009033836424350739
1716738159646554000,3.98955419921875,-0.004141807556152344,0.0046073682606220245,-0.003769993782043457
1716738159656554200,3.99955419921875,-0.0017490386962890625,-0.009629331529140472,-0.0037417858839035034
1716738159666554000,4.00955419921875,-0.013723373413085938,-0.0069820210337638855,-0.003299962729215622
1716738159676554200,4.01955419921875,-0.013724327087402344,0.007459498941898346,0.006257392466068268
1716738159686554000,4.02955419921875,-0.01851177215576172,-0.021318309009075165,-0.0009538568556308746
1716738159696554200,4.03955419921875,-0.0233001708984375,0.0002393685281276703,0.0038723498582839966
1716738159706554000,4.04955419921875,-0.008938789367675781,-0.006515011191368103,-0.0009029209613800049
1716738159716554200,4.05955419921875,-0.006545066833496094,0.010187417268753052,-0.019961174577474594
1716738159726554000,4.06955419921875,-0.0017566680908203125,0.0030759647488594055,-0.008028261363506317
1716738159736554200,4.07955419921875,-0.01612567901611328,0.015062917023897171,-0.005010988563299179
1716738159746554000,4.08955419921875,-0.025702476501464844,-0.0043135881423950195,0.00009677931666374207
1716738159756554200,4.09955419921875,-0.01851940155029297,0.00754329189658165,-0.0022684745490550995
1716738159766554000,4.10955419921875,-0.006549835205078125,0.009961765259504318,-0.011750437319278717
1716738159776554200,4.11955419921875,-0.01851940155029297,0.007581815123558044,-0.004591759294271469
1716738159786554000,4.12955419921875,0.0006341934204101562,-0.007244054228067398,0.012506723403930664
1716738159796554200,4.13955419921875,-0.004155158996582031,-0.00005197897553443909,0.00296802818775177
1716738159806554000,4.14955419921875,-0.01612567901611328,-0.00249374657869339,0.010122176259756088
1716738159816554200,4.15955419921875,-0.01851940155029297,0.004707522690296173,-0.0019344277679920197
1716738159826554000,4.16955419921875,-0.056827545166015625,0.019200965762138367,0.0028825178742408752
1716738159836554200,4.17955419921875,-0.025699615478515625,0.006716165691614151,-0.004332166165113449
1716738159846554000,4.18955419921875,0.06288528442382812,0.004336241632699966,-0.004356022924184799
1716738159856554200,4.19955419921875,0.026975631713867188,-0.010547496378421783,-0.0019317902624607086
1716738159866554000,4.20955419921875,-0.09512805938720703,-0.020537763833999634,0.007850710302591324
1716738159876554200,4.21955419921875,-0.06400394439697266,0.005946047604084015,0.022239286452531815
1716738159886554000,4.22955419921875,0.060492515563964844,0.003680214285850525,0.019873369485139847
1716738159896554200,4.23955419921875,0.038947105407714844,0.005907773971557617,0.02464332804083824
1716738159906554000,4.24955419921875,-0.06639289855957031,0.010641608387231827,-0.00007368996739387512
1716738159916554200,4.25955419921875,-0.06638622283935547,0.0008151829242706299,-0.010477401316165924
1716738159926554000,4.26955419921875,0.0437469482421875,0.0007628016173839569,-0.00804968923330307
1716738159936554200,4.27955419921875,0.03656482696533203,0.0006487816572189331,-0.003232482820749283
1716738159946554000,4.28955419921875,-0.04723167419433594,-0.011307947337627411,-0.008044745773077011
1716738159956554200,4.29955419921875,-0.0592041015625,0.012700803577899933,0.020709242671728134
1716738159966554000,4.30955419921875,0.03656482696533203,0.017441418021917343,-0.010443717241287231
1716738159976554200,4.31955419921875,0.019805908203125,0.019792646169662476,-0.0057456232607364655
1716738159986554000,4.32955419921875,-0.03525543212890625,0.004490543156862259,-0.017661914229393005
1716738159996554200,4.33955419921875,-0.0472259521484375,0.0041387565433979034,0.023250006139278412
1716738160006554000,4.34955419921875,0.012633323669433594,-0.02025042474269867,0.0063200704753398895
1716738160016554200,4.35955419921875,0.005454063415527344,-0.010793805122375488,0.003450598567724228
1716738160026554000,4.36955419921875,-0.061583518981933594,-0.012803852558135986,-0.00883982703089714
1716738160036554200,4.37955419921875,-0.016094207763671875,-0.03195718303322792,0.010394606739282608
1716738160046554000,4.38955419921875,0.026999473571777344,-0.01705990359187126,0.014967650175094604
1716738160056554200,4.39955419921875,0.0054492950439453125,0.0005310215055942535,-0.006972424685955048
1716738160066554000,4.40955419921875,-0.059197425842285156,0.008346062153577805,0.004939895123243332
1716738160076554200,4.41955419921875,-0.04004478454589844,-0.005938418209552765,0.0024645738303661346
1716738160086554000,4.42955419921875,0.022203445434570312,0.0017243996262550354,0.014172296971082687
1716738160096554200,4.43955419921875,0.007840156555175781,-0.017259031534194946,-0.000559486448764801
1716738160106554000,4.44955419921875,-0.035256385803222656,-0.01474088430404663,-0.0076521411538124084
1716738160116554200,4.45955419921875,-0.03765296936035156,0.005002275109291077,-0.007801175117492676
1716738160126554000,4.46955419921875,0.015017509460449219,0.005435105413198471,0.008909516036510468
1716738160136554200,4.47955419921875,0.017411231994628906,0.012570329010486603,-0.010272741317749023
1716738160146554000,4.48955419921875,-0.032866477966308594,0.003060419112443924,-0.005379971116781235
1716738160156554200,4.49955419921875,-0.032868385314941406,0.010309938341379166,-0.01253918930888176
1716738160166554000,4.50955419921875,0.010228157043457031,-0.004041168838739395,-0.0005918517708778381
1716738160176554200,4.51955419921875,-0.0065326690673828125,0.005227673798799515,-0.012100763618946075
1716738160186554000,4.52955419921875,-0.03286933898925781,0.007342174649238586,-0.016474444419145584
1716738160196554200,4.53955419921875,-0.03287315368652344,0.007162958383560181,-0.008720580488443375
1716738160206554000,4.54955419921875,0.010222434997558594,0.0021090321242809296,0.02758326753973961
1716738160216554200,4.55955419921875,0.0006494522094726562,-0.007996130734682083,-0.013207025825977325
1716738160226554000,4.56955419921875,-0.025690078735351562,-0.015339352190494537,0.013614896684885025
1716738160236554200,4.57955419921875,-0.008930206298828125,-0.005691010504961014,-0.000707726925611496
1716738160246554000,4.58955419921875,0.000644683837890625,0.009097475558519363,0.025541692972183228
1716738160256554200,4.59955419921875,0.007826805114746094,-0.0028594620525836945,0.006364334374666214
1716738160266554000,4.60955419921875,-0.02569103240966797,-0.0030307359993457794,0.0015382766723632812
1716738160276554200,4.61955419921875,-0.023294448852539062,-0.005283616483211517,0.008240152150392532
1716738160286554000,4.62955419921875,-0.0065326690673828125,-0.009983118623495102,0.01728885993361473
1716738160296554200,4.63955419921875,0.015017509460449219,0.016613900661468506,0.00003839656710624695
1716738160306554000,4.64955419921875,-0.01850128173828125,-0.009712811559438705,0.012047592550516129
1716738160316554200,4.65955419921875,-0.01610565185546875,0.014341965317726135,-0.00762002170085907
1716738160326554000,4.66955419921875,-0.01371002197265625,0.0023232102394104004,0.011505328118801117
1716738160336554200,4.67955419921875,-0.0041294097900390625,0.006929457187652588,0.006237022578716278
1716738160346554000,4.68955419921875,-0.028070449829101562,0.006881885230541229,-0.008156649768352509
1716738160356554200,4.69955419921875,-0.0208892822265625,-0.01698881760239601,-0.005719739943742752
1716738160366554000,4.70955419921875,-0.0065250396728515625,-0.007340870797634125,0.0014247745275497437
1716738160376554200,4.71955419921875,-0.0041294097900390625,0.00023569166660308838,-0.01809142529964447
1716738160386554000,4.72955419921875,-0.008917808532714844,-0.00927000492811203,0.012995034456253052
1716738160396554200,4.73955419921875,-0.030466079711914062,0.012230239808559418,-0.013369638472795486
1716738160406554000,4.74955419921875,-0.011312484741210938,0.00028830766677856445,0.008210986852645874
1716738160416554200,4.75955419921875,0.007840156555175781,-0.006889354437589645,0.013099312782287598
1716738160426554000,4.76955419921875,-0.02328205108642578,-0.018713831901550293,0.010243095457553864
1716738160436554200,4.77955419921875,-0.016099929809570312,-0.01144547387957573,-0.0017091482877731323
1716738160446554000,4.78955419921875,-0.0065250396728515625,0.0034234151244163513,0.005305811762809753
1716738160456554200,4.79955419921875,-0.016101837158203125,-0.000999685376882553,-0.011849477887153625
1716738160466554000,4.80955419921875,-0.008920669555664062,0.023318324238061905,0.00016808509826660156
1716738160476554200,4.81955419921875,-0.023285865783691406,0.0017944015562534332,0.004970669746398926
1716738160486554000,4.82955419921875,-0.016103744506835938,-0.007725704461336136,-0.002226099371910095
1716738160496554200,4.83955419921875,0.0006551742553710938,0.020967047661542892,0.00025850534439086914
1716738160506554000,4.84955419921875,-0.023285865783691406,0.004097990691661835,-0.01653384417295456
1716738160516554200,4.85955419921875,-0.013709068298339844,-0.003074735403060913,-0.01170763373374939
1716738160526554000,4.86955419921875,-0.0065288543701171875,-0.010527241975069046,-0.020831871777772903
1716738160536554200,4.87955419921875,-0.006533622741699219,0.020689360797405243,-0.0034686848521232605
1716738160546554000,4.88955419921875,0.0006494522094726562,0.006049443036317825,0.016118474304676056
1716738160556554200,4.89955419921875,-0.013716697692871094,0.00839129090309143,-0.0006073489785194397
1716738160566554000,4.90955419921875,-0.016109466552734375,0.0031131282448768616,-0.0077269673347473145
1716738160576554200,4.91955419921875,-0.00653076171875,0.005008436739444733,-0.0050649382174015045
1716738160586554000,4.92955419921875,-0.020895004272460938,0.0021769851446151733,0.014280226081609726
1716738160596554200,4.93955419921875,-0.023288726806640625,-0.0026065781712532043,-0.0000660829246044159
1716738160606554000,4.94955419921875,0.0054416656494140625,0.0117679163813591,0.026308435946702957
1716738160616554200,4.95955419921875,0.0030460357666015625,0.006946355104446411,-0.0047875940799713135
1716738160626554000,4.96955419921875,-0.0017414093017578125,-0.005072217434644699,-0.004816059023141861
1716738160636554200,4.97955419921875,-0.016101837158203125,-0.015106353908777237,0.011654332280158997
1716738160646554000,4.98955419921875,-0.00891876220703125,0.0016673393547534943,0.00205366313457489
1716738160656554200,4.99955419921875,-0.025679588317871094,0.006526842713356018,0.016380704939365387
1716738160666554000,5.00955419921875,-0.023281097412109375,0.004007760435342789,-0.0008731335401535034
1716738160676554200,5.01955419921875,-0.020887374877929688,-0.003165159374475479,0.015924274921417236
1716738160686554000,5.02955419921875,0.00305938720703125,-0.005708020180463791,0.0034445151686668396
1716738160696554200,5.03955419921875,-0.013699531555175781,0.013455096632242203,0.005876891314983368
1716738160706554000,5.04955419921875,-0.025671005249023438,0.006277371197938919,-0.008469343185424805
1716738160716554200,5.05955419921875,-0.02327728271484375,-0.015194535255432129,0.005876719951629639
1716738160726554000,5.06955419921875,-0.0113067626953125,-0.01764090731739998,-0.0060608871281147
1716738160736554200,5.07955419921875,-0.006518363952636719,0.009132105857133865,-0.0040198639035224915
1716738160746554000,5.08955419921875,-0.018489837646484375,0.001978173851966858,-0.006380964070558548
1716738160756554200,5.09955419921875,-0.018489837646484375,-0.010045003145933151,0.012806050479412079
1716738160766554000,5.10955419921875,-0.011307716369628906,-0.010030943900346756,0.007993899285793304
1716738160776554200,5.11955419921875,-0.011307716369628906,-0.005232661962509155,-0.011121906340122223
1716738160786554000,5.12955419921875,-0.04722023010253906,-0.014861632138490677,-0.01587691903114319
1716738160796554200,5.13955419921875,0.0030546188354492188,-0.0025473684072494507,-0.010851636528968811
1716738160806553600,5.1495537109375,0.0030546188354492188,-0.0025949738919734955,-0.008485965430736542
1716738160816553700,5.1595537109375,-0.06159210205078125,-0.00702078640460968,-0.01056736707687378
1716738160826553600,5.1695537109375,-0.032866477966308594,-0.004220951348543167,-0.0029816851019859314
1716738160836553700,5.1795537109375,0.03417205810546875,0.005308285355567932,-0.007798552513122559
1716738160846553600,5.1895537109375,0.012618064880371094,0.010336007922887802,-0.002463754266500473
1716738160856553700,5.1995537109375,-0.037659645080566406,0.017589900642633438,-0.009684707969427109
1716738160866553600,5.2095537109375,-0.02569103240966797,-0.0017717666923999786,0.0003492496907711029
1716738160876553700,5.2195537109375,0.024585723876953125,0.005107909440994263,-0.006271298974752426
1716738160886553600,5.2295537109375,0.019796371459960938,-0.004800878465175629,0.006147786974906921
1716738160896553700,5.2395537109375,-0.03287506103515625,-0.0025206953287124634,-0.02255384251475334
1716738160906553600,5.2495537109375,-0.01372528076171875,0.021470453590154648,-0.043588265776634216
1716738160916553700,5.2595537109375,-0.04724884033203125,-0.012207794934511185,-0.009179603308439255
1716738160926553600,5.2695537109375,-0.01373291015625,-0.005161236971616745,-0.0012545697391033173
1716738160936553700,5.2795537109375,0.007809638977050781,0.009177684783935547,0.018755309283733368
1716738160946553600,5.2895537109375,-0.01134490966796875,0.006788522005081177,0.004489872604608536
1716738160956553700,5.2995537109375,-0.01134490966796875,0.004190649837255478,0.007117517292499542
1716738160966553600,5.3095537109375,-0.03289318084716797,0.006655801087617874,0.014262162148952484
1716738160976553700,5.3195537109375,0.005414009094238281,-0.01960885524749756,0.016698848456144333
1716738160986553600,5.3295537109375,-0.016134262084960938,-0.007623400539159775,0.026251599192619324
1716738160996553700,5.3395537109375,-0.023313522338867188,0.011657144874334335,0.011267628520727158
1716738161006553600,5.3495537109375,-0.023308753967285156,-0.009944725781679153,0.017674770206212997
1716738161016553700,5.3595537109375,-0.013727188110351562,0.011667940765619278,0.01680850237607956
1716738161026553600,5.3695537109375,-0.008932113647460938,0.009128410369157791,0.020622190088033676
1716738161036553700,5.3795537109375,-0.011319160461425781,0.0017483271658420563,0.012417282909154892
1716738161046553600,5.3895537109375,-0.028072357177734375,0.02072441577911377,-0.005045931786298752
1716738161056553700,5.3995537109375,-0.020883560180664062,0.0058824531733989716,-0.0032597482204437256
1716738161066553600,5.4095537109375,-0.01369476318359375,-0.001695830374956131,-0.003706134855747223
1716738161076553700,5.4195537109375,-0.018480300903320312,0.005210209637880325,-0.013577211648225784
1716738161086553600,5.4295537109375,-0.018480300903320312,0.0004930980503559113,0.005538053810596466
1716738161096553700,5.4395537109375,-0.0017213821411132812,0.005177076905965805,-0.018418200314044952
1716738161106554000,5.44955419921875,-0.025663375854492188,0.012364566326141357,-0.006428223103284836
1716738161116554200,5.45955419921875,-0.025663375854492188,-0.006717510521411896,0.012767985463142395
1716738161126554000,5.46955419921875,-0.0017213821411132812,0.010108597576618195,0.0008204728364944458
1716738161136554200,5.47955419921875,-0.008900642395019531,0.011875156313180923,0.010474935173988342
1716738161146554000,5.48955419921875,-0.020873069763183594,-0.00959191843867302,-0.003971382975578308
1716738161156554200,5.49955419921875,-0.023265838623046875,-0.009653709828853607,0.003125511109828949
1716738161166554000,5.50955419921875,-0.016082763671875,-0.0025809407234191895,0.019852183759212494
1716738161176554200,5.51955419921875,-0.032837867736816406,0.0022108182311058044,0.012122638523578644
1716738161186554000,5.52955419921875,-0.02086353302001953,0.011753253638744354,0.01166602224111557
1716738161196553700,5.5395537109375,-0.02086353302001953,-0.00978008657693863,0.009247764945030212
1716738161206553900,5.549553955078125,-0.006496429443359375,-0.01458406075835228,-0.0007092803716659546
1716738161216553700,5.5595537109375,0.0054759979248046875,-0.009909670799970627,-0.017439909279346466
1716738161226553900,5.569553955078125,-0.013677597045898438,-0.00754842534661293,-0.005440503358840942
1716738161236553700,5.5795537109375,-0.0256500244140625,-0.0027503781020641327,-0.005402587354183197
1716738161246553900,5.589553955078125,-0.008890151977539062,-0.005134887993335724,-0.0077587999403476715
1716738161256553700,5.5995537109375,0.0030755996704101562,-0.006971761584281921,-0.005161680281162262
1716738161266553900,5.609553955078125,-0.018474578857421875,0.002914976328611374,-0.009765587747097015
1716738161276553700,5.6195537109375,-0.01608562469482422,0.008085355162620544,-0.011771097779273987
1716738161286553900,5.629553955078125,-0.01608562469482422,0.008099645376205444,0.00975286215543747
1716738161296553700,5.6395537109375,-0.011297225952148438,-0.015828236937522888,0.00015226751565933228
1716738161306553900,5.649553955078125,-0.0065097808837890625,0.0009979084134101868,-0.016583561897277832
1716738161316553700,5.6595537109375,-0.025667190551757812,-0.0036227144300937653,0.00546795129776001
1716738161326553900,5.669553955078125,-0.020877838134765625,0.0035693757236003876,0.02218448370695114
1716738161336553700,5.6795537109375,-0.016089439392089844,-0.01077694445848465,-0.00902584195137024
1716738161346553900,5.689553955078125,-0.004118919372558594,-0.010648589581251144,0.007761865854263306
1716738161356553700,5.6995537109375,-0.01848602294921875,0.004111219197511673,0.005247734487056732
1716738161366553900,5.709553955078125,-0.01848602294921875,-0.010187450796365738,0.0100599005818367
1716738161376553700,5.7195537109375,-0.020880699157714844,0.006524357944726944,-0.009122245013713837
1716738161386553900,5.729553955078125,-0.016091346740722656,-0.029436230659484863,0.019579708576202393
1716738161396553700,5.7395537109375,-0.011303901672363281,0.011920802295207977,-0.004811309278011322
1716738161406553900,5.749553955078125,-0.025669097900390625,-0.002429928630590439,0.021500863134860992
1716738161416553700,5.7595537109375,-0.011301040649414062,0.007430430501699448,-0.005554310977458954
1716738161426553900,5.769553955078125,-0.018482208251953125,-0.002208542078733444,-0.003245428204536438
1716738161436553700,5.7795537109375,-0.018480300903320312,-0.006869371980428696,0.0011668205261230469
1716738161446553900,5.789553955078125,-0.0065097808837890625,-0.01648373156785965,-0.0011371299624443054
1716738161456553700,5.7995537109375,-0.006511688232421875,0.005577549338340759,-0.0012669563293457031
1716738161466553900,5.809553955078125,-0.023270606994628906,-0.00404682382941246,-0.008478011935949326
1716738161476553700,5.8195537109375,-0.013693809509277344,0.005477819591760635,0.008314795792102814
1716738161486553900,5.829553955078125,-0.0017223358154296875,0.005430258810520172,-0.008473079651594162
1716738161496554200,5.83955419921875,-0.020875930786132812,0.005439590662717819,-0.0037274733185768127
1716738161506554000,5.84955419921875,-0.013692855834960938,-0.004127532243728638,-0.0012952834367752075
1716738161516554200,5.85955419921875,-0.013693809509277344,-0.0016569942235946655,0.013050489127635956
1716738161526554000,5.86955419921875,-0.0017223358154296875,-0.02085840329527855,-0.006131470203399658
1716738161536554200,5.87955419921875,-0.013693809509277344,-0.018397897481918335,-0.015684399753808975
1716738161546554000,5.88955419921875,0.0030651092529296875,-0.006398186087608337,0.013079211115837097
1716738161556554200,5.89955419921875,-0.006514549255371094,0.0013173334300518036,0.008317999541759491
1716738161566554000,5.90955419921875,-0.011302947998046875,0.010908391326665878,0.0035056546330451965
1716738161576554200,5.91955419921875,-0.01848602294921875,-0.005846135318279266,0.008394099771976471
1716738161586554000,5.92955419921875,-0.0065155029296875,0.001346353441476822,-0.0035391002893447876
1716738161596554200,5.93955419921875,-0.013697624206542969,0.0037500374019145966,0.0012064352631568909
1716738161606554000,5.94955419921875,-0.016092300415039062,-0.0010098963975906372,-0.010731272399425507
1716738161616554200,5.95955419921875,-0.011304855346679688,0.0014557242393493652,-0.008294332772493362
1716738161626554000,5.96955419921875,-0.025673866271972656,0.008758272975683212,-0.012607268989086151
1716738161636554200,5.97955419921875,-0.016097068786621094,0.00631650909781456,0.0017294809222221375
1716738161646554000,5.98955419921875,-0.011308670043945312,-0.005640212446451187,-0.01744799315929413
1716738161656554200,5.99955419921875,-0.016097068786621094,-0.000842168927192688,0.0064508914947509766
1716738161666554000,6.00955419921875,-0.008913993835449219,-0.0007750429213047028,0.011343568563461304
1716738161676554200,6.01955419921875,-0.02088642120361328,-0.005496717989444733,-0.01257486641407013
1716738161686554000,6.02955419921875,-0.008919715881347656,0.006642095744609833,-0.00010008364915847778
1716738161696554200,6.03955419921875,-0.00891876220703125,0.006656389683485031,-0.00012393295764923096
1716738161706554000,6.04955419921875,-0.011313438415527344,-0.010088969022035599,0.007034920156002045
1716738161716554200,6.05955419921875,-0.028072357177734375,-0.0005072765052318573,-0.014493908733129501
1716738161726554000,6.06955419921875,-0.008919715881347656,0.011473376303911209,-0.004879176616668701
1716738161736554200,6.07955419921875,-0.01849651336669922,0.011373765766620636,-0.014370154589414597
1716738161746554000,6.08955419921875,-0.01610279083251953,-0.0006492100656032562,0.00481666624546051
1716738161756554200,6.09955419921875,-0.020891189575195312,-0.003091171383857727,0.02633620798587799
1716738161766554000,6.10955419921875,-0.14060020446777344,-0.0030769146978855133,0.007158651947975159
1716738161776554200,6.11955419921875,0.08684921264648438,-0.0006209909915924072,-0.01207125186920166
1716738161786554000,6.12955419921875,0.03657245635986328,0.006394617259502411,0.0069831013679504395
1716738161796554200,6.13955419921875,-0.10229110717773438,0.004019111394882202,-0.014650244265794754
1716738161806554000,6.14955419921875,-0.044830322265625,0.028037462383508682,-0.014669667929410934
1716738161816554200,6.15955419921875,0.06530380249023438,-0.0011064521968364716,-0.00009883195161819458
1716738161826554000,6.16955419921875,0.02939128875732422,0.008422978222370148,-0.021675292402505875
1716738161836554200,6.17955419921875,-0.06637763977050781,-0.008758306503295898,0.00770801305770874
1716738161846554000,6.18955419921875,-0.06398487091064453,0.0008710101246833801,-0.0019024461507797241
1716738161856554200,6.19955419921875,0.026993751525878906,0.017393264919519424,-0.003953501582145691
1716738161866554000,6.20955419921875,0.03417778015136719,0.009726330637931824,0.003553733229637146
1716738161876554200,6.21955419921875,-0.061591148376464844,0.00261026993393898,0.0011832937598228455
1716738161886554000,6.22955419921875,-0.0711660385131836,-0.012144405394792557,0.006110385060310364
1716738161896554200,6.23955419921875,0.015024185180664062,0.016595881432294846,-0.003428623080253601
1716738161906554000,6.24955419921875,0.02939128875732422,-0.012239385396242142,0.027601003646850586
1716738161916554200,6.25955419921875,-0.04004192352294922,-0.007384441792964935,0.01804797351360321
1716738161926554000,6.26955419921875,-0.06876945495605469,-0.002592366188764572,0.024845346808433533
1716738161936554200,6.27955419921875,0.010244369506835938,0.02372794598340988,-0.014327947050333023
1716738161946554000,6.28955419921875,0.017432212829589844,0.006520461291074753,-0.0003755316138267517
1716738161956554200,6.29955419921875,-0.044811248779296875,-0.015456575900316238,0.01117795705795288
1716738161966554000,6.30955419921875,-0.04959678649902344,-0.008232440799474716,-0.015714962035417557
1716738161976554200,6.31955419921875,0.0006818771362304688,0.010930623859167099,-0.013282649219036102
1716738161986554000,6.32955419921875,0.012652397155761719,0.006032813340425491,0.0010495036840438843
1716738161996554200,6.33955419921875,-0.0304412841796875,0.010759245604276657,-0.013401225209236145
1716738162006554000,6.34955419921875,-0.03283500671386719,0.010721255093812943,0.005842931568622589
1716738162016554200,6.35955419921875,-0.008893966674804688,0.005942728370428085,-0.022849682718515396
1716738162026554000,6.36955419921875,0.015047073364257812,0.015529219061136246,-0.015629086643457413
1716738162036554200,6.37955419921875,-0.0328369140625,0.014884136617183685,-0.019769206643104553
1716738162046554000,6.38955419921875,-0.049597740173339844,-0.007279951125383377,-0.002247430384159088
1716738162056554200,6.39955419921875,-0.018474578857421875,0.0066109299659729,0.0031464099884033203
1716738162066554000,6.40955419921875,-0.004109382629394531,0.003761395812034607,-0.0035976916551589966
1716738162076554200,6.41955419921875,-0.02565765380859375,-0.006138060241937637,0.0039090439677238464
1716738162086554000,6.42955419921875,-0.05199432373046875,-0.02787516638636589,0.01385730504989624
1716738162096554200,6.43955419921875,-0.0017175674438476562,0.01296406239271164,0.0018718540668487549
1716738162106554000,6.44955419921875,0.017436981201171875,-0.008574087172746658,0.013799786567687988
1716738162116554200,6.45955419921875,-0.01847553253173828,0.003458615392446518,0.011329211294651031
1716738162126554000,6.46955419921875,-0.030447959899902344,-0.003648262470960617,0.013704478740692139
1716738162136554200,6.47955419921875,-0.008896827697753906,-0.0011410638689994812,0.0012193992733955383
1716738162146554000,6.48955419921875,-0.008897781372070312,0.00605103000998497,0.0036518052220344543
1716738162156554200,6.49955419921875,-0.030445098876953125,-0.005905725061893463,-0.025102555751800537
1716738162166554000,6.50955419921875,-0.040022850036621094,0.013252761214971542,-0.005929965525865555
1716738162176554200,6.51955419921875,-0.013686180114746094,0.0061461105942726135,-0.010737426578998566
1716738162186554000,6.52955419921875,0.00067901611328125,0.006213027983903885,0.003651164472103119
1716738162196554200,6.53955419921875,-0.020870208740234375,-0.010536745190620422,-0.010676130652427673
1716738162206554000,6.54955419921875,-0.028052330017089844,-0.020099259912967682,0.010847821831703186
1716738162216554200,6.55955419921875,-0.023263931274414062,0.01582806184887886,0.0012471526861190796
1716738162226554000,6.56955419921875,-0.011292457580566406,0.0014151297509670258,-0.013146433979272842
1716738162236554200,6.57955419921875,-0.02086925506591797,-0.005815032869577408,-0.0012038946151733398
1716738162246554000,6.58955419921875,-0.016084671020507812,0.006304923444986343,-0.003089696168899536
1716738162256554200,6.59955419921875,-0.004115104675292969,0.006144020706415176,0.006891913712024689
1716738162266554000,6.60955419921875,-0.013691902160644531,0.0013032667338848114,0.0069254860281944275
1716738162276554200,6.61955419921875,-0.016086578369140625,-0.0010766535997390747,0.014084234833717346
1716738162286554000,6.62955419921875,-0.020874977111816406,-0.005917258560657501,0.016511745750904083
1716738162296554200,6.63955419921875,-0.0017213821411132812,-0.0106961689889431,0.0021847188472747803
1716738162306554000,6.64955419921875,-0.023268699645996094,0.0036879368126392365,0.011675819754600525
1716738162316554200,6.65955419921875,-0.03045177459716797,-0.005884215235710144,-0.017035499215126038
1716738162326554000,6.66955419921875,-0.01608562469482422,-0.005523625761270523,-0.005479250103235245
1716738162336554200,6.67955419921875,-0.011297225952148438,-0.0031960420310497284,0.0064680203795433044
1716738162346554000,6.68955419921875,-0.018479347229003906,-0.005576141178607941,-0.01270926371216774
1716738162356554200,6.69955419921875,-0.025661468505859375,-0.005566656589508057,-0.0031753331422805786
1716738162366554000,6.70955419921875,-0.02326679229736328,0.008812807500362396,-0.0008050575852394104
1716738162376554200,6.71955419921875,-0.006508827209472656,0.006494440138339996,-0.010400772094726562
1716738162386554000,6.72955419921875,-0.013690948486328125,-0.010255713015794754,-0.0032609179615974426
1716738162396554200,6.73955419921875,-0.020873069763183594,-0.010298281908035278,-0.005664769560098648
1716738162406554000,6.74955419921875,-0.028059005737304688,-0.012411177158355713,-0.0029571428894996643
1716738162416554200,6.75955419921875,-0.006510734558105469,-0.009998120367527008,0.0041396841406822205
1716738162426554000,6.76955419921875,-0.011300086975097656,0.009160373359918594,-0.0030239522457122803
1716738162436554200,6.77955419921875,-0.011300086975097656,-0.002739332616329193,-0.010163828730583191
1716738162446554000,6.78955419921875,-0.030458450317382812,0.009603824466466904,0.004552248865365982
1716738162456554200,6.79955419921875,-0.025669097900390625,-0.0024003423750400543,0.006975032389163971
1716738162466554000,6.80955419921875,-0.0065155029296875,-0.009696781635284424,-0.007361598312854767
1716738162476554200,6.81955419921875,-0.028062820434570312,0.002288520336151123,0.002191346138715744
1716738162486554000,6.82955419921875,-0.030457496643066406,0.0022933557629585266,0.01657545566558838
1716738162496554200,6.83955419921875,-0.018485069274902344,0.00004096701741218567,0.01617550104856491
1716738162506554000,6.84955419921875,-0.018485069274902344,-0.011906061321496964,0.004299692809581757
1716738162516554200,6.85955419921875,-0.025667190551757812,0.00041551142930984497,0.0133429616689682
1716738162526554000,6.86955419921875,-0.03524017333984375,0.002841658890247345,0.005565620958805084
1716738162536554200,6.87955419921875,-0.016084671020507812,-0.0017480775713920593,0.005070380866527557
1716738162546554000,6.88955419921875,-0.01847553253173828,-0.008879568427801132,-0.0073383040726184845
1716738162556554200,6.89955419921875,-0.032840728759765625,0.005490519106388092,-0.00492512434720993
1716738162566554000,6.90955419921875,-0.013688087463378906,0.005557522177696228,0.0047560930252075195
1716738162576554200,6.91955419921875,-0.020868301391601562,0.003138180822134018,0.0018625631928443909
1716738162586554000,6.92955419921875,-0.004107475280761719,-0.004025530070066452,-0.010194167494773865
1716738162596554200,6.93955419921875,-0.0088958740234375,0.005570173263549805,0.008873745799064636
1716738162606554000,6.94955419921875,-0.008891105651855469,0.0004577934741973877,-0.0034201815724372864
1716738162616554200,6.95955419921875,-0.02325725555419922,0.007712122052907944,-0.008166182786226273
1716738162626554000,6.96955419921875,-0.01607513427734375,-0.0018503889441490173,0.01088251918554306
1716738162636554200,6.97955419921875,-0.028044700622558594,0.005227178335189819,-0.01546744629740715
1716738162646554000,6.98955419921875,-0.028044700622558594,-0.006791386753320694,-0.005919106304645538
1716738162656554200,6.99955419921875,-0.02086639404296875,-0.01397738978266716,-0.010160580277442932
1716738162666554000,7.00955419921875,-0.025659561157226562,0.005477115511894226,-0.00003254413604736328
1716738162676554200,7.01955419921875,-0.018476486206054688,-0.004147253930568695,0.0071216002106666565
1716738162686554000,7.02955419921875,-0.030447006225585938,0.005501274019479752,-0.00728226825594902
1716738162696554200,7.03955419921875,-0.016081809997558594,-0.004123326390981674,0.0022661909461021423
1716738162706554000,7.04955419921875,-0.020874977111816406,0.0056779272854328156,0.0002806931734085083
1716738162716554200,7.05955419921875,-0.02566242218017578,-0.0063450634479522705,-0.018839724361896515
1716738162726554000,7.06955419921875,-0.016086578369140625,-0.008591711521148682,-0.002057000994682312
1716738162736554200,7.07955419921875,-0.025664329528808594,-0.0013327747583389282,0.00031775981187820435
1716738162746554000,7.08955419921875,-0.013696670532226562,0.006135925650596619,-0.011320792138576508
1716738162756554200,7.09955419921875,-0.020879745483398438,-0.013007815927267075,-0.004100389778614044
1716738162766554000,7.10955419921875,-0.013697624206542969,0.0014431700110435486,-0.03041793778538704
1716738162776554200,7.11955419921875,-0.023278236389160156,-0.008079767227172852,-0.0010740533471107483
1716738162786554000,7.12955419921875,-0.011311531066894531,-0.0055132173001766205,0.011419892311096191
1716738162796554200,7.13955419921875,-0.032858848571777344,-0.010354157537221909,0.009059444069862366
1716738162806554000,7.14955419921875,-0.025676727294921875,-0.0056089311838150024,-0.012578565627336502
1716738162816554200,7.15955419921875,-0.016104698181152344,-0.0027236826717853546,-0.0025796033442020416
1716738162826554000,7.16955419921875,-0.023286819458007812,0.006862606853246689,-0.00022827833890914917
1716738162836554200,7.17955419921875,-0.028077125549316406,0.009390328079462051,-0.009758144617080688
1716738162846554000,7.18955419921875,-0.03765678405761719,-0.007253758609294891,0.0025881603360176086
1716738162856554200,7.19955419921875,0.012620925903320312,-0.009576249867677689,-0.006946228444576263
1716738162866554000,7.20955419921875,-0.006537437438964844,-0.0068525634706020355,0.010235533118247986
1716738162876554200,7.21955419921875,-0.061603546142578125,-0.009241882711648941,-0.004110697656869888
1716738162886554000,7.22955419921875,-0.03287315368652344,0.00023451447486877441,-0.008974701166152954
1716738162896554200,7.23955419921875,0.02219390869140625,0.012153353542089462,-0.0017587170004844666
1716738162906554000,7.24955419921875,-0.0065364837646484375,0.0025431662797927856,-0.016095228493213654
1716738162916554200,7.25955419921875,-0.03526782989501953,-0.009361114352941513,0.007870372384786606
1716738162926554000,7.26955419921875,-0.030478477478027344,-0.0117410309612751,0.010240714997053146
1716738162936554200,7.27955419921875,0.012616157531738281,0.0002397298812866211,-0.008874937891960144
1716738162946554000,7.28955419921875,-0.006537437438964844,-0.0046058595180511475,-0.00877939909696579
1716738162956554200,7.29955419921875,-0.04723834991455078,0.00020643696188926697,-0.0015826188027858734
1716738162966554000,7.30955419921875,-0.08554744720458984,0.007517773658037186,0.008103173226118088
1716738162976554200,7.31955419921875,0.007825851440429688,0.0027342475950717926,0.0009395480155944824
1716738162986554000,7.32955419921875,0.02458667755126953,-0.00934598594903946,0.020140957087278366
1716738162996554200,7.33955419921875,-0.028085708618164062,-0.01178797334432602,-0.006223618984222412
1716738163006554000,7.34955419921875,-0.06639385223388672,-0.016494877636432648,0.008221853524446487
1716738163016554200,7.35955419921875,-0.013721466064453125,0.002673201262950897,0.001015208661556244
1716738163026554000,7.36955419921875,0.03416252136230469,-0.014076527208089828,0.017812609672546387
1716738163036554200,7.37955419921875,-0.030481338500976562,0.003062702715396881,-0.023227494210004807
1716738163046554000,7.38955419921875,-0.059212684631347656,0.003129206597805023,-0.001655973494052887
1716738163056554200,7.39955419921875,0.0006399154663085938,0.013200968503952026,0.012746047228574753
1716738163066554000,7.40955419921875,0.012609481811523438,0.0013014823198318481,0.010394446551799774
1716738163076554200,7.41955419921875,-0.03527355194091797,0.01315842941403389,0.017605748027563095
1716738163086554000,7.42955419921875,-0.04005622863769531,-0.003783565014600754,0.016883283853530884
1716738163096554200,7.43955419921875,-0.011321067810058594,0.012841079384088516,0.011319607496261597
1716738163106554000,7.44955419921875,-0.004130363464355469,0.014942791312932968,-0.020641278475522995
1716738163116554200,7.45955419921875,-0.016097068786621094,-0.002392597496509552,-0.016051337122917175
1716738163126554000,7.46955419921875,-0.04482746124267578,0.00484713539481163,-0.006488975137472153
1716738163136554200,7.47955419921875,0.0030565261840820312,-0.0003399662673473358,-0.01101502776145935
1716738163146554000,7.48955419921875,0.017421722412109375,0.013683978468179703,-0.017787963151931763
1716738163156554200,7.49955419921875,-0.020887374877929688,0.013342712074518204,0.0018563717603683472
1716738163166554000,7.50955419921875,-0.0424346923828125,0.0009013377130031586,-0.0002369619905948639
1716738163176554200,7.51955419921875,-0.013702392578125,0.014929138123989105,-0.0024446845054626465
1716738163186554000,7.52955419921875,-0.008913040161132812,-0.000006292015314102173,0.009751200675964355
1716738163196554200,7.53955419921875,-0.01848888397216797,-0.000058282166719436646,-0.004580821841955185
1716738163206554000,7.54955419921875,-0.04721641540527344,-0.0053414516150951385,0.0241936556994915
1716738163216554200,7.55955419921875,-0.018482208251953125,-0.015256635844707489,0.0022658444941043854
1716738163226554000,7.56955419921875,-0.0017213821411132812,-0.010264929383993149,-0.005473833531141281
1716738163236554200,7.57955419921875,-0.03284454345703125,0.001724880188703537,0.011200033128261566
1716738163246554000,7.58955419921875,-0.035239219665527344,-0.002730961889028549,0.0036499276757240295
1716738163256554200,7.59955419921875,-0.030450820922851562,0.011662911623716354,0.008471444249153137
1716738163266554000,7.60955419921875,0.0006742477416992188,-0.002764269709587097,0.008385926485061646
1716738163276554200,7.61955419921875,-0.004113197326660156,-0.0075385719537734985,0.015544861555099487
1716738163286554000,7.62955419921875,-0.03763294219970703,-0.012303117662668228,-0.005988847464323044
1716738163296554200,7.63955419921875,-0.011296272277832031,0.009581506252288818,-0.015913546085357666
1716738163306554000,7.64955419921875,-0.0017185211181640625,-0.004835877567529678,-0.011091753840446472
1716738163316554200,7.65955419921875,-0.0184783935546875,-0.00003321841359138489,-0.006327282637357712
1716738163326554000,7.66955419921875,-0.03284454345703125,-0.007148910313844681,-0.013486500829458237
1716738163336554200,7.67955419921875,-0.02326679229736328,-0.007196657359600067,0.003244645893573761
1716738163346554000,7.68955419921875,-0.011301040649414062,0.000357653945684433,0.010778464376926422
1716738163356554200,7.69955419921875,-0.025666236877441406,-0.011607915163040161,-0.010669901967048645
1716738163366554000,7.70955419921875,-0.030457496643066406,0.003076493740081787,0.011019796133041382
1716738163376554200,7.71955419921875,-0.030457496643066406,-0.008870810270309448,0.008639954030513763
1716738163386554000,7.72955419921875,-0.016092300415039062,-0.006462361663579941,-0.017720192670822144
1716738163396554200,7.73955419921875,-0.016092300415039062,0.019816890358924866,0.008711449801921844
1716738163406554000,7.74955419921875,-0.042428016662597656,0.005470357835292816,-0.0033451467752456665
1716738163416554200,7.75955419921875,-0.030457496643066406,-0.008942004293203354,-0.024921737611293793
1716738163426554000,7.76955419921875,-0.008909225463867188,0.00309569388628006,-0.005744609981775284
1716738163436554200,7.77955419921875,-0.016092300415039062,-0.013711277395486832,0.006197921931743622
1716738163446554000,7.78955419921875,-0.025673866271972656,-0.0181131549179554,-0.005284067243337631
1716738163456554200,7.79955419921875,-0.03764915466308594,0.0038351714611053467,0.002282802015542984
1716738163466554000,7.80955419921875,-0.03046703338623047,0.0038494616746902466,0.007047351449728012
1716738163476554200,7.81955419921875,-0.04243946075439453,-0.005598768591880798,-0.004895452409982681
1716738163486554000,7.82955419921875,-0.040045738220214844,0.011232353746891022,-0.0024588368833065033
1716738163496554200,7.83955419921875,-0.02089214324951172,0.011122900992631912,-0.0024919919669628143
1716738163506554000,7.84955419921875,-0.018497467041015625,-0.010415054857730865,-0.019213605672121048
1716738163516554200,7.85955419921875,-0.018497467041015625,-0.007954131811857224,-0.007219012826681137
1716738163526553900,7.869553955078125,-0.032863616943359375,-0.00547415018081665,0.000063333660364151
1716738163536553700,7.8795537109375,-0.025686264038085938,-0.0027504824101924896,-0.001827441155910492
1716738163546553900,7.889553955078125,-0.011321067810058594,-0.005254272371530533,0.007716469466686249
1716738163556553700,7.8995537109375,-0.025686264038085938,0.001994837075471878,0.005345974117517471
1716738163566553900,7.909553955078125,-0.011321067810058594,-0.0051114521920681,0.010114941745996475
1716738163576553700,7.9195537109375,-0.020897865295410156,-0.012346230447292328,0.01493673026561737
1716738163586553900,7.929553955078125,-0.0352630615234375,-0.007595416158437729,-0.008915044367313385
1716738163596553700,7.9395537109375,-0.020898818969726562,-0.009595584124326706,0.010038129985332489
1716738163606553900,7.949553955078125,-0.028082847595214844,0.00278366357088089,0.014602281153202057
1716738163616553700,7.9595537109375,-0.02808094024658203,-0.020759988576173782,0.016410380601882935
1716738163626553900,7.969553955078125,-0.018503189086914062,-0.0157390795648098,0.0040770843625068665
1716738163636553700,7.9795537109375,-0.013714790344238281,-0.012623149901628494,-0.0012981966137886047
1716738163646553900,7.989553955078125,-0.02568817138671875,0.00020790845155715942,-0.004132062196731567
1716738163656553700,7.9995537109375,-0.016112327575683594,0.005447380244731903,-0.013923730701208115
1716738163666553900,8.009553955078125,-0.02569293975830078,0.008374758064746857,-0.00902722030878067
1716738163676553700,8.0195537109375,-0.032876014709472656,0.0013255290687084198,0.007698372006416321
1716738163686553900,8.029553955078125,-0.03527069091796875,0.020617131143808365,-0.009075663983821869
1716738163696553700,8.0395537109375,-0.016115188598632812,-0.008583631366491318,-0.004148431122303009
1716738163706553900,8.049553955078125,-0.011327743530273438,-0.0037237368524074554,0.00786510854959488
1716738163716553700,8.0595537109375,-0.018507957458496094,0.0009596869349479675,0.014952965080738068
1716738163726553900,8.069553955078124,-0.0185089111328125,-0.011063501238822937,0.012592151761054993
1716738163736553700,8.0795537109375,-0.01850605010986328,-0.001344870775938034,0.009797930717468262
1716738163746553900,8.089553955078125,-0.018507003784179688,-0.006118793040513992,0.00019709020853042603
1716738163756553700,8.0995537109375,-0.030477523803710938,0.003410257399082184,-0.007013794034719467
1716738163766553900,8.109553955078125,-0.0137176513671875,0.005809307098388672,-0.011783294379711151
1716738163776553700,8.1195537109375,-0.020900726318359375,0.0009735375642776489,0.0001590624451637268
1716738163786553900,8.129553955078125,-0.016112327575683594,-0.010968971997499466,0.007375046610832214
1716738163796553700,8.1395537109375,-0.016112327575683594,-0.008579500019550323,0.00735599547624588
1716738163806553900,8.149553955078124,-0.025689125061035156,0.010910972952842712,0.004694849252700806
1716738163816553700,8.1595537109375,-0.008928298950195312,-0.005896221846342087,-0.009698718786239624
1716738163826554000,8.16955419921875,-0.016112327575683594,0.0181175097823143,-0.004867881536483765
1716738163836554200,8.17955419921875,-0.08314990997314453,0.015689965337514877,-0.002444915473461151
1716738163846554000,8.18955419921875,0.12993431091308594,0.0012725777924060822,-0.007199939340353012
1716738163856554200,8.19955419921875,-0.02568817138671875,-0.008409246802330017,-0.021659981459379196
1716738163866554000,8.20955419921875,-0.15976715087890625,0.003639206290245056,0.0004346594214439392
1716738163876554200,8.21955419921875,-0.028085708618164062,-0.0012060180306434631,0.012500837445259094
1716738163886554000,8.22955419921875,0.12753677368164062,0.005933642387390137,0.0004395097494125366
1716738163896554200,8.23955419921875,0.031769752502441406,-0.006142165511846542,0.0003445744514465332
1716738163906554000,8.24955419921875,-0.13582515716552734,0.013135410845279694,0.005223043262958527
1716738163916554200,8.25955419921875,-0.05442237854003906,0.0299190953373909,0.002923719584941864
1716738163926554000,8.26955419921875,0.07726287841796875,0.0196472629904747,-0.011549100279808044
1716738163936554200,8.27955419921875,-0.001743316650390625,-0.000077027827501297,-0.01866854727268219
1716738163946554000,8.28955419921875,-0.1382122039794922,-0.010176289826631546,0.0032943934202194214
1716738163956554200,8.29955419921875,-0.03765678405761719,0.006773553788661957,-0.003855384886264801
1716738163966554000,8.30955419921875,0.09163093566894531,0.006255343556404114,0.008388206362724304
1716738163976554200,8.31955419921875,0.00304412841796875,0.013376247137784958,0.008464574813842773
1716738163986554000,8.32955419921875,-0.11666297912597656,0.00808771327137947,0.006014890968799591
1716738163996554200,8.33955419921875,-0.05440998077392578,0.014899101108312607,0.005906306207180023
1716738164006554000,8.34955419921875,0.07009029388427734,0.0075307972729206085,-0.0013711154460906982
1716738164016554200,8.35955419921875,-0.01610088348388672,-0.011670377105474472,-0.0037937909364700317
1716738164026554000,8.36955419921875,-0.10947132110595703,-0.007272388786077499,0.0008910149335861206
1716738164036554200,8.37955419921875,-0.035251617431640625,0.007097657769918442,-0.02063789591193199
1716738164046554000,8.38955419921875,0.05572795867919922,0.011795859783887863,-0.011018097400665283
1716738164056554200,8.39955419921875,0.015026092529296875,0.006945677101612091,0.0034235119819641113
1716738164066554000,8.40955419921875,-0.08074188232421875,0.018926329910755157,-0.006115380674600601
1716738164076554200,8.41955419921875,-0.0639810562133789,0.01840834692120552,-0.005842883139848709
1716738164086554000,8.42955419921875,0.043761253356933594,0.0009932219982147217,-0.015213854610919952
1716738164096554200,8.43955419921875,0.007847785949707031,-0.016179490834474564,-0.005431581288576126
1716738164106554000,8.44955419921875,-0.06637382507324219,0.01239999383687973,-0.004989072680473328
1716738164116554200,8.45955419921875,-0.04961585998535156,0.002519700676202774,0.009776297956705093
1716738164126554000,8.46955419921875,0.03418254852294922,0.004866160452365875,0.012142229825258255
1716738164136554200,8.47955419921875,0.007846832275390625,0.0048039741814136505,-0.004702582955360413
1716738164146554000,8.48955419921875,-0.056797027587890625,-0.0070860907435417175,0.016926061362028122
1716738164156554200,8.49955419921875,-0.04961585998535156,-0.0046205073595047,-0.004579063504934311
1716738164166554000,8.50955419921875,0.01742267608642578,0.0025097429752349854,-0.011728093028068542
1716738164176554200,8.51955419921875,0.007844924926757812,-0.00951344147324562,0.005064699798822403
1716738164186554000,8.52955419921875,-0.044826507568359375,-0.01189819723367691,0.0026275478303432465
1716738164196554200,8.53955419921875,-0.04722118377685547,0.0001491345465183258,-0.004574496299028397
1716738164206554000,8.54955419921875,0.0030565261840820312,0.012134253978729248,-0.018963370472192764
1716738164216554200,8.55955419921875,0.007845878601074219,0.00005383044481277466,0.0001571550965309143
1716738164226554000,8.56955419921875,-0.05440235137939453,0.019093386828899384,0.007368456572294235
1716738164236554200,8.57955419921875,-0.052008628845214844,0.0023626647889614105,-0.002175159752368927
1716738164246553900,8.589553955078125,0.012636184692382812,0.02347317710518837,-0.016348931938409805
1716738164256553700,8.5995537109375,-0.008909225463867188,0.0037591084837913513,-0.004115238785743713
1716738164266553900,8.609553955078125,-0.054398536682128906,-0.010544952005147934,0.0005163289606571198
1716738164276553700,8.6195537109375,-0.04482269287109375,-0.0034145228564739227,0.005338110029697418
1716738164286553900,8.629553955078125,-0.004120826721191406,0.011036578565835953,-0.0017449147999286652
1716738164296553700,8.6395537109375,0.0030612945556640625,-0.0011101216077804565,-0.006509371101856232
1716738164306553900,8.649553955078124,-0.028061866760253906,-0.013128507882356644,-0.001749631017446518
1716738164316553700,8.6595537109375,-0.03524589538574219,0.006049249321222305,0.005527961999177933
1716738164326553900,8.669553955078126,-0.020880699157714844,0.003602873533964157,0.0007729381322860718
1716738164336553700,8.6795537109375,-0.008909225463867188,-0.005955062806606293,-0.008889656513929367
1716738164346553900,8.689553955078125,-0.02806377410888672,-0.010614719241857529,0.007897768169641495
1716738164356553700,8.6995537109375,-0.03524589538574219,0.013341769576072693,0.0030853040516376495
1716738164366553900,8.709553955078125,-0.01609325408935547,-0.020167198032140732,0.01988251507282257
1716738164376553700,8.7195537109375,-0.008908271789550781,0.0016506239771842957,0.009853336960077286
1716738164386553900,8.729553955078124,-0.016092300415039062,0.0017217397689819336,-0.009338408708572388
1716738164396553700,8.7395537109375,-0.032851219177246094,-0.007826201617717743,0.014636602252721786
1716738164406553900,8.749553955078126,-0.011302947998046875,0.016438622027635574,0.014231286942958832
1716738164416553700,8.7595537109375,-0.011302947998046875,-0.00036834925413131714,0.007020208984613419
1716738164426553900,8.769553955078125,-0.02566814422607422,0.0020973756909370422,0.009457014501094818
1716738164436553700,8.7795537109375,-0.03524208068847656,-0.005219604820013046,-0.007753916084766388
1716738164446553900,8.789553955078125,-0.006511688232421875,-0.00042134150862693787,-0.002927713096141815
1716738164456553700,8.7995537109375,-0.01848316192626953,-0.00047805532813072205,-0.014803536236286163
1716738164466553900,8.809553955078124,-0.04481983184814453,0.006775885820388794,-0.0004765838384628296
1716738164476553700,8.8195537109375,-0.03284454345703125,0.003806058317422867,-0.014797590672969818
1716738164486553900,8.829553955078126,-0.011297225952148438,-0.015395116060972214,-0.01961446925997734
1716738164496553700,8.8395537109375,-0.001720428466796875,-0.010592423379421234,0.0019094869494438171
1716738164506553900,8.849553955078125,-0.028059959411621094,-0.0007244236767292023,0.007129993289709091
1716738164516553700,8.8595537109375,-0.023276329040527344,0.00919567421078682,0.00984208658337593
1716738164526553900,8.869553955078125,-0.0065174102783203125,-0.00042891502380371094,0.007419537752866745
1716738164536553700,8.8795537109375,-0.020880699157714844,-0.012509152293205261,-0.009373165667057037
1716738164546554000,8.88955419921875,-0.028066635131835938,-0.00005286186933517456,-0.009293243288993835
1716738164556554200,8.89955419921875,-0.03525066375732422,-0.007164165377616882,-0.0020679086446762085
1716738164566554000,8.90955419921875,-0.006519317626953125,0.007153663784265518,0.00029762089252471924
1716738164576554200,8.91955419921875,-0.011308670043945312,-0.002356596291065216,0.01947503164410591
1716738164586554000,8.92955419921875,-0.02088451385498047,-0.0140383280813694,-0.0025301873683929443
1716738164596554200,8.93955419921875,-0.018489837646484375,0.0027161389589309692,0.007027678191661835
1716738164606554000,8.94955419921875,-0.028066635131835938,-0.006831802427768707,0.004666481167078018
1716738164616554200,8.95955419921875,-0.013701438903808594,-0.011263977736234665,-0.005263384431600571
1716738164626554000,8.96955419921875,-0.02806568145751953,-0.006518740206956863,-0.0005651786923408508
1716738164636554200,8.97955419921875,-0.025673866271972656,-0.008355807512998581,-0.014970250427722931
1716738164646554000,8.98955419921875,-0.01849079132080078,0.00596185028553009,0.004154898226261139
1716738164656554200,8.99955419921875,-0.011308670043945312,0.0083702951669693,-0.0006574392318725586
1716738164666554000,9.00955419921875,-0.016097068786621094,0.003596372902393341,0.001712709665298462
1716738164676554200,9.01955419921875,-0.013702392578125,-0.013229988515377045,-0.0030989795923233032
1716738164686554000,9.02955419921875,-0.016097068786621094,0.0011544637382030487,0.0017653778195381165
1716738164696554200,9.03955419921875,-0.028067588806152344,-0.010745204985141754,-0.0029802173376083374
1716738164706554000,9.04955419921875,-0.04483222961425781,0.0017685256898403168,0.011531077325344086
1716738164716554200,9.05955419921875,-0.023284912109375,-0.01013575866818428,0.001977860927581787
1716738164726554000,9.06955419921875,-0.01610279083251953,-0.00054946169257164,0.0068044513463974
1716738164736554200,9.07955419921875,-0.02089214324951172,-0.005328234285116196,0.009236574172973633
1716738164746554000,9.08955419921875,-0.03286170959472656,0.0018068179488182068,-0.007551312446594238
1716738164756554200,9.09955419921875,-0.028072357177734375,-0.003071606159210205,-0.005195382982492447
1716738164766554000,9.10955419921875,-0.020890235900878906,0.011241242289543152,-0.014738626778125763
1716738164776554200,9.11955419921875,-0.018495559692382812,0.013521380722522736,-0.005133133381605148
1716738164786554000,9.12955419921875,-0.011313438415527344,-0.015261586755514145,-0.017070375382900238
1716738164796554200,9.13955419921875,-0.023286819458007812,0.0016036368906497955,0.007370755076408386
1716738164806554000,9.14955419921875,-0.028075218200683594,0.00886237621307373,-0.004619486629962921
1716738164816554200,9.15955419921875,-0.025682449340820312,-0.0030419044196605682,-0.0069900937378406525
1716738164826554000,9.16955419921875,-0.03526020050048828,0.008957747370004654,0.005014035850763321
1716738164836554200,9.17955419921875,-0.03765392303466797,0.016216497868299484,0.004994802176952362
1716738164846554000,9.18955419921875,-0.03286552429199219,-0.0004905872046947479,-0.007009666413068771
1716738164856554200,9.19955419921875,-0.10229873657226562,0.01869197189807892,0.004994310438632965
1716738164866554000,9.20955419921875,0.10839080810546875,0.006725795567035675,0.005094274878501892
1716738164876554200,9.21955419921875,0.06529617309570312,-0.022237729281187057,0.0074461400508880615
1716738164886554000,9.22955419921875,-0.1717243194580078,-0.00814398005604744,0.004695449024438858
1716738164896554200,9.23955419921875,-0.07356452941894531,-0.003226861357688904,0.023958057165145874
1716738164906554000,9.24955419921875,0.1323413848876953,0.0015273429453372955,0.013762593269348145
1716738164916554200,9.25955419921875,0.06291389465332031,0.003848690539598465,0.008365541696548462
1716738164926554000,9.26955419921875,-0.11185932159423828,0.00149594247341156,-0.004161961376667023
1716738164936554200,9.27955419921875,-0.09749126434326172,0.0063261352479457855,-0.023791465908288956
1716738164946554000,9.28955419921875,0.058132171630859375,0.011124227195978165,0.00010748207569122314
1716738164956554200,9.29955419921875,0.06771087646484375,-0.012979365885257721,-0.014338497072458267
1716738164966554000,9.30955419921875,-0.11424827575683594,-0.020209718495607376,-0.004789978265762329
1716738164976554200,9.31955419921875,-0.0998849868774414,0.0039178766310215,-0.011877782642841339
1716738164986554000,9.32955419921875,0.08207035064697266,-0.010293673723936081,-0.0137445367872715
1716738164996554200,9.33955419921875,0.05093860626220703,0.004329681396484375,0.0036376118659973145
1716738165006554000,9.34955419921875,-0.10229015350341797,-0.00038261711597442627,-0.0011701062321662903
1716738165016554200,9.35955419921875,-0.0951070785522461,0.0021399669349193573,0.006040908396244049
1716738165026554000,9.36955419921875,0.04615020751953125,0.0021542608737945557,0.0036228522658348083
1716738165036554200,9.37955419921875,0.048544883728027344,-0.00041585788130760193,-0.008324101567268372
1716738165046554000,9.38955419921875,-0.07355976104736328,-0.007636427879333496,-0.005839284509420395
1716738165056554200,9.39955419921875,-0.09031963348388672,-0.005113277584314346,0.0038464292883872986
1716738165066554000,9.40955419921875,0.022203445434570312,0.000018361955881118774,0.0016890019178390503
1716738165076554200,9.41955419921875,0.038959503173828125,0.024384159594774246,0.013816013932228088
1716738165086554000,9.42955419921875,-0.059203147888183594,-0.011443305760622025,0.01144079864025116
1716738165096554200,9.43955419921875,-0.07596206665039062,0.01728234440088272,0.006633266806602478
1716738165106554000,9.44955419921875,0.01502227783203125,-0.009482651948928833,-0.010544031858444214
1716738165116554200,9.45955419921875,0.04615211486816406,-0.0003349296748638153,-0.010961577296257019
1716738165126554000,9.46955419921875,-0.052010536193847656,0.004415284842252731,-0.02044765278697014
1716738165136554200,9.47955419921875,-0.06398296356201172,0.004548847675323486,-0.0012469887733459473
1716738165146554000,9.48955419921875,0.007843017578125,0.009076233953237534,-0.027254249900579453
1716738165156554200,9.49955419921875,0.03178119659423828,0.008759211748838425,-0.019324231892824173
1716738165166554000,9.50955419921875,-0.04723072052001953,-0.0011534132063388824,-0.0016505979001522064
1716738165176554200,9.51955419921875,-0.061598777770996094,0.010709445923566818,0.0012765750288963318
1716738165186554000,9.52955419921875,0.010227203369140625,0.005565185099840164,-0.007866635918617249
1716738165196554200,9.53955419921875,0.0150146484375,0.0050575025379657745,0.004738308489322662
1716738165206554000,9.54955419921875,-0.03287029266357422,-0.009540487080812454,-0.004557039588689804
1716738165216554200,9.55955419921875,-0.061600685119628906,0.004891511052846909,-0.011716090142726898
1716738165226554000,9.56955419921875,-0.011323928833007812,0.004963207989931107,0.0026915408670902252
1716738165236554200,9.57955419921875,0.026983261108398438,0.004683252424001694,0.0006308667361736298
1716738165246554000,9.58955419921875,-0.032871246337890625,0.0019900165498256683,-0.0014247819781303406
1716738165256554200,9.59955419921875,-0.05202484130859375,-0.007572434842586517,0.02249334007501602
1716738165266554000,9.60955419921875,-0.006535530090332031,0.006802219897508621,0.015267785638570786
1716738165276554200,9.61955419921875,0.015016555786132812,0.006596654653549194,-0.006774332374334335
1716738165286554000,9.62955419921875,-0.040045738220214844,-0.01771710067987442,0.014422256499528885
1716738165296554200,9.63955419921875,-0.037652015686035156,-0.015232369303703308,0.02882527932524681
1716738165306554000,9.64955419921875,0.0006561279296875,-0.010135717689990997,-0.0027614831924438477
1716738165316554200,9.65955419921875,0.0006561279296875,-0.00014602020382881165,0.003972947597503662
1716738165326554000,9.66955419921875,-0.03764915466308594,-0.009528495371341705,-0.006037410348653793
1716738165336554200,9.67955419921875,-0.03525543212890625,-0.004331883043050766,0.005547512322664261
1716738165346554000,9.68955419921875,-0.004130363464355469,0.007591739296913147,-0.0016637668013572693
1716738165356554200,9.69955419921875,0.0030527114868164062,-0.018445495516061783,0.0027861185371875763
1716738165366554000,9.70955419921875,-0.025678634643554688,0.003178458660840988,0.0027668848633766174
1716738165376554200,9.71955419921875,-0.04004383087158203,-0.013509433716535568,-0.006848365068435669
1716738165386554000,9.72955419921875,-0.008920669555664062,0.0013977475464344025,0.00023806840181350708
1716738165396554200,9.73955419921875,-0.008921623229980469,0.010941170156002045,-0.009310044348239899
1716738165406554000,9.74955419921875,-0.023291587829589844,0.008980873972177505,-0.0040850043296813965
1716738165416554200,9.75955419921875,-0.04005146026611328,-0.002923622727394104,-0.0064554885029792786
1716738165426554000,9.76955419921875,-0.020900726318359375,-0.0006852224469184875,0.00362585112452507
1716738165436554200,9.77955419921875,0.010225296020507812,-0.0055215805768966675,-0.008373331278562546
1716738165446554000,9.78955419921875,-0.013716697692871094,-0.0031133033335208893,0.01793915405869484
1716738165456554200,9.79955419921875,-0.02808094024658203,0.015992816537618637,0.01551644504070282
1716738165466554000,9.80955419921875,-0.006533622741699219,0.006306428462266922,-0.00367007777094841
1716738165476554200,9.81955419921875,-0.0017452239990234375,0.003983527421951294,0.013132072985172272
1716738165486554000,9.82955419921875,-0.020898818969726562,-0.02492295205593109,0.01555059477686882
1716738165496554200,9.83955419921875,-0.04244232177734375,0.0041434019804000854,-0.01161893829703331
1716738165506554000,9.84955419921875,-0.018500328063964844,-0.000630892813205719,0.0027226023375988007
1716738165516554200,9.85955419921875,-0.011318206787109375,0.02320628985762596,-0.002079751342535019
1716738165526553900,9.869553955078125,-0.018500328063964844,-0.01509125903248787,0.005059786140918732
1716738165536553700,9.8795537109375,-0.03286552429199219,-0.017414122819900513,-0.0044742152094841
1716738165546553900,9.889553955078124,-0.011319160461425781,0.016479983925819397,0.004906769841909409
1716738165556553700,9.8995537109375,-0.0017423629760742188,-0.005053352564573288,-0.01666509360074997
1716738165566553900,9.909553955078126,-0.004136085510253906,0.00453774631023407,0.004858873784542084
1716738165576553700,9.9195537109375,-0.030472755432128906,-0.00018415600061416626,0.00009417906403541565
1716738165586553900,9.929553955078125,-0.011319160461425781,-0.0002174973487854004,0.00012294575572013855
1716738165596553700,9.9395537109375,-0.013712882995605469,0.004580356180667877,-0.004627350717782974
1716738165606553900,9.949553955078125,-0.008924484252929688,0.006523381918668747,0.0052453503012657166
1716738165616553700,9.9595537109375,-0.020895957946777344,-0.019860398024320602,-0.006754133850336075
1716738165626553900,9.969553955078124,-0.008924484252929688,0.011273682117462158,-0.01389862596988678
1716738165636553700,9.9795537109375,-0.008923530578613281,0.001587461680173874,0.0052218958735466
1716738165646553900,9.989553955078126,-0.03526020050048828,-0.0008544810116291046,-0.006777402013540268
1716738165656553700,9.9995537109375,-0.03286552429199219,-0.019936613738536835,-0.01631166785955429
1716738165666553900,10.009553955078125,-0.013711929321289062,0.011211976408958435,0.002856079488992691
1716738165676553700,10.0195537109375,-0.018503189086914062,0.0016215182840824127,-0.0014228373765945435
1716738165686553900,10.029553955078125,-0.004138946533203125,0.02084203064441681,-0.015764642506837845
1716738165696553700,10.0395537109375,-0.02808094024658203,0.008780587464571,-0.0037505440413951874
1716738165706553900,10.049553955078125,-0.008927345275878906,-0.005969144403934479,0.01101524755358696
1716738165716553700,10.0595537109375,-0.020898818969726562,0.010733474045991898,-0.012831546366214752
1716738165726553900,10.069553955078124,-0.01611042022705078,-0.003983065485954285,-0.012459646910429
1716738165736553700,10.0795537109375,-0.020900726318359375,-0.013739481568336487,0.0023148246109485626
1716738165746553900,10.089553955078125,-0.0065364837646484375,-0.004086922854185104,0.014266911894083023
1716738165756553700,10.0995537109375,-0.011323928833007812,-0.00892307236790657,-0.007309190928936005
1716738165766553900,10.109553955078125,-0.011323928833007812,0.00538996234536171,-0.00009321048855781555
1716738165776553700,10.1195537109375,-0.020900726318359375,0.012643519788980484,-0.0073137544095516205
1716738165786553900,10.129553955078125,-0.020900726318359375,-0.0017646737396717072,0.0238015279173851
1716738165796553700,10.1395537109375,-0.0137176513671875,0.007821273058652878,0.004605427384376526
1716738165806553900,10.149553955078124,-0.02089977264404297,0.0029853470623493195,0.0021826401352882385
1716738165816553700,10.1595537109375,-0.016112327575683594,0.0053845979273319244,-0.016871128231287003
1716738165826554000,10.16955419921875,-0.02329254150390625,0.01696592941880226,-0.004761341959238052
1716738165836554200,10.17955419921875,-0.01850414276123047,-0.0021736137568950653,0.016762737184762955
1716738165846554000,10.18955419921875,-0.008927345275878906,0.007412679493427277,0.004748847335577011
1716738165856554200,10.19955419921875,-0.14778804779052734,-0.009694300591945648,0.009361989796161652
1716738165866554000,10.20955419921875,0.03177642822265625,0.014252368360757828,0.014169499278068542
1716738165876554200,10.21955419921875,0.05571937561035156,-0.01702413335442543,0.01660185679793358
1716738165886554000,10.22955419921875,-0.07596111297607422,-0.007494889199733734,0.009390771389007568
1716738165896554200,10.23955419921875,-0.06398868560791016,0.004479911178350449,-0.002965398132801056
1716738165906554000,10.24955419921875,0.038964271545410156,-0.007591303437948227,-0.017406415194272995
1716738165916554200,10.25955419921875,0.03417682647705078,0.009429242461919785,-0.015422321856021881
1716738165926554000,10.26955419921875,-0.049622535705566406,-0.0027306005358695984,0.01862945407629013
1716738165936554200,10.27955419921875,-0.049620628356933594,0.011795159429311752,-0.013061627745628357
1716738165946554000,10.28955419921875,0.022205352783203125,-0.0049452707171440125,-0.005964774638414383
1716738165956554200,10.29955419921875,0.03896522521972656,0.004698216915130615,0.006029762327671051
1716738165966554000,10.30955419921875,-0.04004478454589844,0.000038214027881622314,-0.005912844091653824
1716738165976554200,10.31955419921875,-0.11905479431152344,-0.004545371979475021,-0.0034287497401237488
1716738165986554000,10.32955419921875,0.010232925415039062,-0.002155940979719162,0.006128925830125809
1716738165996554200,10.33955419921875,0.0772705078125,-0.002260904759168625,0.015610981732606888
1716738166006554000,10.34955419921875,-0.03525733947753906,-0.002246614545583725,0.0036161132156848907
1716738166016554200,10.35955419921875,-0.08792972564697266,-0.01174270361661911,0.0035349465906620026
1716738166026554000,10.36955419921875,0.0006561279296875,0.007411163300275803,-0.001172620803117752
1716738166036554200,10.37955419921875,0.050934791564941406,0.014441527426242828,0.008442733436822891
1716738166046554000,10.38955419921875,-0.02807331085205078,0.004812493920326233,-0.005889181047677994
1716738166056554200,10.39955419921875,-0.061593055725097656,0.002427969127893448,-0.010639585554599762
1716738166066554000,10.40955419921875,-0.02089214324951172,0.004889070987701416,-0.003433581441640854
1716738166076554200,10.41955419921875,0.04135704040527344,0.0025137849152088165,0.018028520047664642
1716738166086554000,10.42955419921875,-0.013708114624023438,0.0000672563910484314,-0.008274238556623459
1716738166096554200,10.43955419921875,-0.06877517700195312,-0.007101237773895264,0.008461512625217438
1716738166106554000,10.44955419921875,-0.02089214324951172,0.012181125581264496,-0.010664083063602448
1716738166116554200,10.45955419921875,0.026993751525878906,-0.00025563687086105347,-0.010587181895971298
1716738166126554000,10.46955419921875,-0.016101837158203125,0.006542608141899109,0.004097353667020798
1716738166136554200,10.47955419921875,-0.061591148376464844,-0.0030245184898376465,-0.007916726171970367
1716738166146554000,10.48955419921875,-0.008917808532714844,0.006566360592842102,0.008818954229354858
1716738166156554200,10.49955419921875,0.031783103942871094,-0.014967162162065506,0.001612495630979538
1716738166166554000,10.50955419921875,-0.01610088348388672,-0.003043539822101593,-0.00799299031496048
1716738166176554200,10.51955419921875,-0.05440807342529297,-0.017341848462820053,0.015972428023815155
1716738166186554000,10.52955419921875,-0.020890235900878906,0.001821216195821762,0.013616345822811127
1716738166196554200,10.53955419921875,0.007841110229492188,0.004101209342479706,0.006462685763835907
1716738166206554000,10.54955419921875,0.007841110229492188,-0.005447126924991608,-0.0006866008043289185
1716738166216554200,10.55955419921875,-0.04243755340576172,0.00658082589507103,0.006481766700744629
1716738166226554000,10.56955419921875,-0.00891876220703125,-0.0077748894691467285,0.004044681787490845
1716738166236554200,10.57955419921875,0.012630462646484375,-0.00282098725438118,0.003659091889858246
1716738166246554000,10.58955419921875,-0.0017347335815429688,-0.010051261633634567,0.0060249753296375275
1716738166256554200,10.59955419921875,-0.04004192352294922,0.0115157850086689,-0.00826428085565567
1716738166266554000,10.60955419921875,-0.011311531066894531,0.01385762169957161,-0.008230715990066528
1716738166276554200,10.61955419921875,0.010237693786621094,0.0017819702625274658,-0.003456462174654007
1716738166286554000,10.62955419921875,-0.016096115112304688,-0.0011305920779705048,-0.005821026861667633
1716738166296554200,10.63955419921875,-0.030462265014648438,0.00133495032787323,-0.003384016454219818
1716738166306554000,10.64955419921875,-0.011308670043945312,-0.005833406001329422,-0.00580214336514473
1716738166316554200,10.65955419921875,0.0030574798583984375,-0.0011067800223827362,-0.001099471002817154
1716738166326554000,10.66955419921875,-0.011308670043945312,0.0036436617374420166,-0.005797252058982849
1716738166336554200,10.67955419921875,-0.028069496154785156,-0.015584874898195267,-0.005292896181344986
1716738166346554000,10.68955419921875,-0.00412750244140625,0.003568410873413086,0.004203125834465027
1716738166356554200,10.69955419921875,0.007838249206542969,0.006315436214208603,0.004640065133571625
1716738166366554000,10.70955419921875,-0.006526947021484375,-0.0008626431226730347,0.007053643465042114
1716738166376554200,10.71955419921875,-0.037652015686035156,-0.0007717497646808624,0.007091060280799866
1716738166386554000,10.72955419921875,-0.023286819458007812,-0.0031708255410194397,0.00946628674864769
1716738166396554200,10.73955419921875,-0.011315345764160156,0.0015744604170322418,0.0021935440599918365
1716738166406554000,10.74955419921875,-0.020891189575195312,-0.0032615065574645996,-0.005017537623643875
1716738166416554200,10.75955419921875,-0.01610279083251953,0.006320349872112274,0.016549058258533478
1716738166426554000,10.76955419921875,-0.013708114624023438,0.01351720467209816,-0.00023428350687026978
1716738166436554200,10.77955419921875,-0.004131317138671875,-0.005622290074825287,-0.012228954583406448
1716738166446554000,10.78955419921875,-0.020891189575195312,-0.012795444577932358,-0.002614028751850128
1716738166456554200,10.79955419921875,-0.023285865783691406,0.003988031297922134,-0.00020584464073181152
1716738166466554000,10.80955419921875,-0.01610279083251953,0.003930520266294479,-0.002666167914867401
1716738166476554200,10.81955419921875,-0.006525993347167969,-0.0008342117071151733,0.006924942135810852
1716738166486554000,10.82955419921875,-0.006525993347167969,-0.0008866116404533386,-0.009800970554351807
1716738166496554200,10.83955419921875,-0.018497467041015625,-0.012781824916601181,0.0021511949598789215
1716738166506554000,10.84955419921875,-0.013709068298339844,0.00404416024684906,-0.0026135295629501343
1716738166516554200,10.85955419921875,0.0030498504638671875,-0.007978852838277817,-0.0049745552241802216
1716738166526554000,10.86955419921875,-0.006529808044433594,-0.005174912512302399,0.014358673244714737
1716738166536554200,10.87955419921875,-0.0089263916015625,-0.0023005977272987366,0.006994206458330154
1716738166546554000,10.88955419921875,-0.0065326690673828125,0.00010306015610694885,0.014214929193258286
1716738166556554200,10.89955419921875,-0.0017442703247070312,0.0025115497410297394,-0.007356744259595871
1716738166566554000,10.90955419921875,-0.018503189086914062,0.00491023063659668,0.002239357680082321
1716738166576554200,10.91955419921875,-0.011320114135742188,0.009589403867721558,-0.00728968158364296
1716738166586554000,10.92955419921875,-0.008925437927246094,-0.0023725107312202454,0.007032979279756546
1716738166596554200,10.93955419921875,-0.013713836669921875,-0.014329224824905396,0.007009122520685196
1716738166606554000,10.94955419921875,-0.013713836669921875,-0.00234854593873024,0.01183551549911499
1716738166616554200,10.95955419921875,-0.016109466552734375,-0.009521625936031342,0.01905619353055954
1716738166626554000,10.96955419921875,-0.025686264038085938,0.009598609060049057,0.002325482666492462
1716738166636554200,10.97955419921875,-0.011318206787109375,0.01679425686597824,-0.0029717832803726196
1716738166646554000,10.98955419921875,-0.011311531066894531,0.004417732357978821,0.001251406967639923
1716738166656554200,10.99955419921875,-0.020883560180664062,-0.010300565510988235,0.0031278468668460846
1716738166666554000,11.00955419921875,-0.02327728271484375,-0.003108106553554535,-0.00401696190237999
1716738166676554200,11.01955419921875,-0.008910179138183594,-0.002971228212118149,0.01471782848238945
1716738166686554000,11.02955419921875,-0.004119873046875,-0.0003972053527832031,-0.014503039419651031
1716738166696554200,11.03955419921875,-0.020879745483398438,-0.007513087242841721,0.0142509825527668
1716738166706554000,11.04955419921875,-0.018485069274902344,0.009540721774101257,0.006710723042488098
1716738166716554200,11.05955419921875,-0.011302947998046875,0.01912679895758629,-0.0005146339535713196
1716738166726554000,11.06955419921875,-0.020879745483398438,0.007165458053350449,0.01628277450799942
1716738166736554200,11.07955419921875,-0.016082763671875,0.013642363250255585,-0.0035826638340950012
1716738166746554000,11.08955419921875,-0.008898735046386719,-0.010285399854183197,0.0011818110942840576
1716738166756554200,11.09955419921875,-0.0041103363037109375,0.0016999095678329468,0.0011579543352127075
1716738166766554000,11.10955419921875,-0.0041103363037109375,-0.0031360574066638947,-0.020418334752321243
1716738166776554200,11.11955419921875,-0.008898735046386719,-0.005501382052898407,-0.006020132452249527
1716738166786554000,11.12955419921875,-0.0065059661865234375,0.0040851011872291565,-0.013164747506380081
1716738166796554200,11.13955419921875,-0.018477439880371094,0.013728588819503784,-0.010747015476226807
1716738166806554000,11.14955419921875,-0.011294364929199219,0.006498318165540695,0.008378267288208008
1716738166816554200,11.15955419921875,-0.025659561157226562,-0.005458619445562363,-0.00840488076210022
1716738166826554000,11.16955419921875,-0.00411224365234375,-0.0054489485919475555,0.0012099221348762512
1716738166836554200,11.17955419921875,-0.008902549743652344,0.008774694055318832,-0.0030977576971054077
1716738166846554000,11.18955419921875,-0.0041141510009765625,-0.003186870366334915,0.004041902720928192
1716738166856554200,11.19955419921875,-0.013690948486328125,-0.0055093541741371155,-0.012675095349550247
1716738166866554000,11.20955419921875,-0.008905410766601562,-0.0008104592561721802,-0.0002565905451774597
1716738166876554200,11.21955419921875,-0.0232696533203125,0.006319921463727951,-0.0002232864499092102
1716738166886554000,11.22955419921875,-0.02087688446044922,-0.02244384214282036,-0.004982922226190567
1716738166896554200,11.23955419921875,-0.030452728271484375,-0.005670130252838135,-0.016977790743112564
1716738166906554000,11.24955419921875,-0.2052297592163086,-0.022377263754606247,0.014113306999206543
1716738166916554200,11.25955419921875,0.1323528289794922,-0.005651194602251053,-0.007405739277601242
1716738166926554000,11.26955419921875,0.07489299774169922,-0.010663285851478577,0.004480093717575073
1716738166936554200,11.27955419921875,-0.13580322265625,-0.009668495506048203,-0.00013480708003044128
1716738166946554000,11.28955419921875,-0.07355976104736328,0.017324581742286682,0.009640466421842575
1716738166956554200,11.29955419921875,0.10361289978027344,0.007581319659948349,0.0023580938577651978
1716738166966554000,11.30955419921875,0.058124542236328125,0.00033653900027275085,0.016637902706861496
1716738166976554200,11.31955419921875,-0.07834529876708984,-0.006698478013277054,-0.014463301748037338
1716738166986554000,11.32955419921875,-0.0927114486694336,0.0054056718945503235,-0.016810141503810883
1716738166996554200,11.33955419921875,0.041362762451171875,0.012659620493650436,0.014276225119829178
1716738167006554000,11.34955419921875,0.06530570983886719,0.010213244706392288,-0.01920922100543976
1716738167016554200,11.35955419921875,-0.07116413116455078,0.000346992164850235,-0.01651950180530548
1716738167026554000,11.36955419921875,-0.10229015350341797,0.0077199749648571014,-0.014092538505792618
1716738167036554200,11.37955419921875,0.0317840576171875,-0.0021505430340766907,0.00310492143034935
1716738167046554000,11.38955419921875,0.058121681213378906,0.004865605384111404,0.00548042356967926
1716738167056554200,11.39955419921875,-0.05440711975097656,0.012010250240564346,0.0031768307089805603
1716738167066554000,11.40955419921875,-0.07116508483886719,-0.012245435267686844,-0.020564626902341843
1716738167076554200,11.41955419921875,-0.0017337799072265625,0.0021342523396015167,0.012930154800415039
1716738167086554000,11.42955419921875,0.038969993591308594,0.0043570175766944885,0.005710013210773468
1716738167096554200,11.43955419921875,-0.04482746124267578,-0.005267389118671417,0.015258271247148514
1716738167106554000,11.44955419921875,-0.066375732421875,-0.019504211843013763,-0.0014727190136909485
1716738167116554200,11.45955419921875,0.007843971252441406,-0.005186554044485092,0.01286400854587555
1716738167126554000,11.46955419921875,0.02939319610595703,0.009506139904260635,0.017266232520341873
1716738167136554200,11.47955419921875,-0.023276329040527344,-0.00956297293305397,-0.026376664638519287
1716738167146554000,11.48955419921875,-0.049612998962402344,-0.004698421806097031,0.009517122060060501
1716738167156554200,11.49955419921875,-0.0017290115356445312,-0.0071401819586753845,-0.0000881589949131012
1716738167166554000,11.50955419921875,0.03897285461425781,0.004773620516061783,-0.004781022667884827
1716738167176554200,11.51955419921875,-0.020882606506347656,-0.004789113998413086,0.004772048443555832
1716738167186554000,11.52955419921875,-0.05440330505371094,0.01211307942867279,0.00006910786032676697
1716738167196554200,11.53955419921875,-0.013701438903808594,0.0024796538054943085,0.004952546209096909
1716738167206554000,11.54955419921875,0.024606704711914062,0.0023746490478515625,-0.004719097167253494
1716738167216554200,11.55955419921875,-0.01609516143798828,0.009571731090545654,0.007227864116430283
1716738167226554000,11.56955419921875,-0.03285408020019531,-0.0024512745440006256,0.007261041551828384
1716738167236554200,11.57955419921875,0.012639999389648438,0.002074606716632843,0.011569492518901825
1716738167246554000,11.58955419921875,0.022218704223632812,0.001903347671031952,-0.012410257011651993
1716738167256554200,11.59955419921875,-0.02805614471435547,0.011179868131875992,-0.00793042778968811
1716738167266554000,11.60955419921875,-0.04002666473388672,-0.012810107320547104,0.006406627595424652
1716738167276554200,11.61955419921875,0.0030689239501953125,0.01347411423921585,-0.01510801911354065
1716738167286554000,11.62955419921875,0.0078582763671875,-0.0009386502206325531,-0.007953889667987823
1716738167296554200,11.63955419921875,-0.023265838623046875,-0.0009243935346603394,0.006387382745742798
1716738167306554000,11.64955419921875,-0.03284263610839844,-0.005646262317895889,-0.007954031229019165
1716738167316554200,11.65955419921875,-0.006508827209472656,-0.005617387592792511,-0.0007384270429611206
1716738167326554000,11.66955419921875,0.010251998901367188,0.003906827419996262,0.0016894638538360596
1716738167336554200,11.67955419921875,-0.00650787353515625,-0.008111957460641861,-0.012704100459814072
1716738167346554000,11.68955419921875,-0.032843589782714844,0.00871436670422554,-0.010286495089530945
1716738167356554200,11.69955419921875,-0.008902549743652344,-0.015217799693346024,-0.0006719008088111877
1716738167366554000,11.70955419921875,0.0006704330444335938,-0.003055315464735031,-0.019388537853956223
1716738167376554200,11.71955419921875,-0.011305809020996094,-0.0005126260221004486,-0.011616159230470657
1716738167386554000,11.72955419921875,-0.023279190063476562,-0.012287888675928116,0.005518782883882523
1716738167396554200,11.73955419921875,-0.011309623718261719,-0.00030742958188056946,-0.0040199123322963715
1716738167406554000,11.74955419921875,0.007844924926757812,0.01156892254948616,0.01755145564675331
1716738167416554200,11.75955419921875,-0.016097068786621094,0.011568643152713776,0.007893938571214676
1716738167426554000,11.76955419921875,-0.030462265014648438,-0.00037368014454841614,-0.0040438733994960785
1716738167436554200,11.77955419921875,-0.016097068786621094,-0.005152631551027298,0.0007826462388038635
1716738167446554000,11.78955419921875,-0.0041255950927734375,0.021121807396411896,-0.00871775671839714
1716738167456554200,11.79955419921875,-0.01849079132080078,-0.005266409367322922,0.0008922219276428223
1716738167466554000,11.80955419921875,-0.030462265014648438,-0.010102193802595139,0.005651950836181641
1716738167476554200,11.81955419921875,-0.02088451385498047,-0.0030098408460617065,0.003300640732049942
1716738167486554000,11.82955419921875,-0.011307716369628906,0.0017310082912445068,-0.00391044095158577
1716738167496554200,11.83955419921875,-0.008913040161132812,-0.012620091438293457,-0.006328310817480087
1716738167506554000,11.84955419921875,-0.013704299926757812,-0.005070731043815613,-0.010946404188871384
1716738167516554200,11.85955419921875,-0.016103744506835938,0.007186476141214371,0.0013569220900535583
1716738167526554000,11.86955419921875,-0.004132270812988281,-0.009506426751613617,-0.012984570115804672
1716738167536554200,11.87955419921875,-0.013709068298339844,-0.002243056893348694,-0.003488842397928238
1716738167546554000,11.88955419921875,-0.008920669555664062,-0.011814996600151062,-0.0010756663978099823
1716738167556554200,11.89955419921875,-0.00653076171875,-0.001866362988948822,-0.017483986914157867
1716738167566554000,11.90955419921875,0.0126190185546875,0.012652114033699036,0.009299013763666153
