time,seconds_elapsed,z,y,x
1716738156045223400,0.388223388671875,9.806949615478516,0.0694318488240242,0.0694318488240242
1716738156055223300,0.398223388671875,9.809343338012695,0.0454898327589035,0.047884032130241394
1716738156065223400,0.408223388671875,9.794978141784668,0.05746084079146385,0.0694318488240242
1716738156075223300,0.418223388671875,9.783007621765137,0.05027823522686958,0.0694318488240242
1716738156085223400,0.428223388671875,9.783007621765137,0.05027823522686958,0.06464344263076782
1716738156095223300,0.438223388671875,9.809343338012695,0.06703764945268631,0.035913024097681046
1716738156105223400,0.448223388671875,9.794978141784668,0.06464344263076782,0.05746084079146385
1716738156115223300,0.458223388671875,9.785401344299316,0.05746084079146385,0.05506663769483566
1716738156125223400,0.468223388671875,9.790189743041992,0.07182604819536209,0.0694318488240242
1716738156135223600,0.4782236328125,9.797372817993164,0.06703764945268631,0.08140286058187485
1716738156145223400,0.488223388671875,9.78061294555664,0.05506663769483566,0.06464344263076782
1716738156155223600,0.4982236328125,9.775824546813965,0.05746084079146385,0.07422025501728058
1716738156165223400,0.508223388671875,9.799766540527344,0.05746084079146385,0.047884032130241394
1716738156175223600,0.5182236328125,9.806949615478516,0.05746084079146385,0.05267243832349777
1716738156185223400,0.528223388671875,9.785401344299316,0.05267243832349777,0.05746084079146385
1716738156195223600,0.5382236328125,9.785401344299316,0.06224924325942993,0.06703764945268631
1716738156205223400,0.548223388671875,9.792584419250488,0.07422025501728058,0.06464344263076782
1716738156215223600,0.5582236328125,9.785401344299316,0.05746084079146385,0.07182604819536209
1716738156225223400,0.568223388671875,9.80216121673584,0.05746084079146385,0.05746084079146385
1716738156235223600,0.5782236328125,9.80216121673584,0.05746084079146385,0.06464344263076782
1716738156245223400,0.588223388671875,9.799766540527344,0.05746084079146385,0.06703764945268631
1716738156255223600,0.5982236328125,9.797372817993164,0.05027823522686958,0.06703764945268631
1716738156265223400,0.608223388671875,9.787796020507812,0.05985504388809204,0.05027823522686958
1716738156275223600,0.6182236328125,9.797372817993164,0.038307227194309235,0.047884032130241394
1716738156285223400,0.628223388671875,9.792584419250488,0.07422025501728058,0.07422025501728058
1716738156295223600,0.6382236328125,9.80455493927002,0.07661445438861847,0.090979665517807
1716738156305223400,0.648223388671875,9.792584419250488,0.06703764945268631,0.0694318488240242
1716738156315223600,0.6582236328125,9.775824546813965,0.06464344263076782,0.06224924325942993
1716738156325223400,0.668223388671875,9.80216121673584,0.06464344263076782,0.05746084079146385
1716738156335223600,0.6782236328125,9.797372817993164,0.05027823522686958,0.05506663769483566
1716738156345223400,0.688223388671875,9.783007621765137,0.05267243832349777,0.07422025501728058
1716738156355223600,0.6982236328125,9.794978141784668,0.0454898327589035,0.05985504388809204
1716738156365223400,0.708223388671875,9.809343338012695,0.06464344263076782,0.043095629662275314
1716738156375223600,0.7182236328125,9.794978141784668,0.05746084079146385,0.06224924325942993
1716738156385223400,0.728223388671875,9.790189743041992,0.043095629662275314,0.047884032130241394
1716738156395223600,0.7382236328125,9.78061294555664,0.0694318488240242,0.047884032130241394
1716738156405223400,0.748223388671875,9.78061294555664,0.05506663769483566,0.05985504388809204
1716738156415223600,0.7582236328125,9.799766540527344,0.06464344263076782,0.047884032130241394
1716738156425223400,0.768223388671875,9.787796020507812,0.06464344263076782,0.05746084079146385
1716738156435223600,0.7782236328125,9.78061294555664,0.05027823522686958,0.05985504388809204
1716738156445223400,0.788223388671875,9.797372817993164,0.05746084079146385,0.05267243832349777
1716738156455223600,0.7982236328125,9.80455493927002,0.05506663769483566,0.07422025501728058
1716738156465223400,0.808223388671875,9.787796020507812,0.05267243832349777,0.05267243832349777
1716738156475223600,0.8182236328125,9.790189743041992,0.05506663769483566,0.07422025501728058
1716738156485223400,0.828223388671875,9.785401344299316,0.06464344263076782,0.0694318488240242
1716738156495223600,0.8382236328125,9.78061294555664,0.07182604819536209,0.06703764945268631
1716738156505223400,0.848223388671875,9.785401344299316,0.0694318488240242,0.07661445438861847
1716738156515223600,0.8582236328125,9.80455493927002,0.047884032130241394,0.05027823522686958
1716738156525223400,0.868223388671875,9.797372817993164,0.05746084079146385,0.07182604819536209
1716738156535223600,0.8782236328125,9.797372817993164,0.05506663769483566,0.07422025501728058
1716738156545223400,0.888223388671875,9.794978141784668,0.05267243832349777,0.06224924325942993
1716738156555223600,0.8982236328125,9.790189743041992,0.0694318488240242,0.06464344263076782
1716738156565223400,0.908223388671875,9.792584419250488,0.05267243832349777,0.06224924325942993
1716738156575223600,0.9182236328125,9.794978141784668,0.033518824726343155,0.06224924325942993
1716738156585223400,0.928223388671875,9.778219223022461,0.06703764945268631,0.06224924325942993
1716738156595223600,0.9382236328125,9.792584419250488,0.05746084079146385,0.05746084079146385
1716738156605223400,0.948223388671875,9.80216121673584,0.05506663769483566,0.043095629662275314
1716738156615223600,0.9582236328125,9.80216121673584,0.0454898327589035,0.05027823522686958
1716738156625223400,0.968223388671875,9.785401344299316,0.06224924325942993,0.05027823522686958
1716738156635223600,0.9782236328125,9.790189743041992,0.05506663769483566,0.06224924325942993
1716738156645223400,0.988223388671875,9.792584419250488,0.0694318488240242,0.05985504388809204
1716738156655223600,0.9982236328125,9.794978141784668,0.05746084079146385,0.07182604819536209
1716738156665223400,1.008223388671875,9.794978141784668,0.047884032130241394,0.08379705995321274
1716738156675223600,1.0182236328125,9.797372817993164,0.047884032130241394,0.05506663769483566
1716738156685223400,1.028223388671875,9.80216121673584,0.05746084079146385,0.05267243832349777
1716738156695223600,1.0382236328125,9.806949615478516,0.05267243832349777,0.05506663769483566
1716738156705223400,1.048223388671875,9.790189743041992,0.043095629662275314,0.05746084079146385
1716738156715223600,1.0582236328125,9.790189743041992,0.06703764945268631,0.06224924325942993
1716738156725223400,1.068223388671875,9.794978141784668,0.05985504388809204,0.06703764945268631
1716738156735223600,1.0782236328125,9.814131736755371,0.0454898327589035,0.06224924325942993
1716738156745223400,1.088223388671875,9.794978141784668,0.06464344263076782,0.06703764945268631
1716738156755223600,1.0982236328125,9.809343338012695,0.07422025501728058,0.06224924325942993
1716738156765223400,1.108223388671875,9.794978141784668,0.05746084079146385,0.06464344263076782
1716738156775223600,1.1182236328125,9.797372817993164,0.05027823522686958,0.0694318488240242
1716738156785223400,1.128223388671875,9.790189743041992,0.05985504388809204,0.07182604819536209
1716738156795223600,1.1382236328125,9.794978141784668,0.05267243832349777,0.05267243832349777
1716738156805223400,1.148223388671875,9.830891609191895,0.05985504388809204,0.07661445438861847
1716738156815223600,1.1582236328125,9.783007621765137,0.05985504388809204,0.06703764945268631
1716738156825223400,1.168223388671875,9.775824546813965,0.033518824726343155,0.06224924325942993
1716738156835223600,1.1782236328125,9.806949615478516,0.06464344263076782,0.07182604819536209
1716738156845223400,1.188223388671875,9.811738014221191,0.07182604819536209,0.07422025501728058
1716738156855223600,1.1982236328125,9.775824546813965,0.06224924325942993,0.06703764945268631
1716738156865223400,1.208223388671875,9.778219223022461,0.06703764945268631,0.06464344263076782
1716738156875223600,1.2182236328125,9.809343338012695,0.0694318488240242,0.05985504388809204
1716738156885223400,1.228223388671875,9.826103210449219,0.06703764945268631,0.07182604819536209
1716738156895223600,1.2382236328125,9.78061294555664,0.06224924325942993,0.07422025501728058
1716738156905223400,1.248223388671875,9.771036148071289,0.040701430290937424,0.05746084079146385
1716738156915223600,1.2582236328125,9.778219223022461,0.05746084079146385,0.05027823522686958
1716738156925223400,1.268223388671875,9.818920135498047,0.06703764945268631,0.0454898327589035
1716738156935223600,1.2782236328125,9.799766540527344,0.05985504388809204,0.06224924325942993
1716738156945223400,1.288223388671875,9.790189743041992,0.07661445438861847,0.08379705995321274
1716738156955223600,1.2982236328125,9.792584419250488,0.06464344263076782,0.05746084079146385
1716738156965223400,1.308223388671875,9.814131736755371,0.05985504388809204,0.07422025501728058
1716738156975223600,1.3182236328125,9.790189743041992,0.05746084079146385,0.06703764945268631
1716738156985223400,1.328223388671875,9.790189743041992,0.06224924325942993,0.06464344263076782
1716738156995223600,1.3382236328125,9.794978141784668,0.05746084079146385,0.05027823522686958
1716738157005223700,1.3482236328125,9.811738014221191,0.043095629662275314,0.05267243832349777
1716738157015223800,1.358223876953125,9.792584419250488,0.07422025501728058,0.05027823522686958
1716738157025223700,1.3682236328125,9.797372817993164,0.05746084079146385,0.0694318488240242
1716738157035223800,1.378223876953125,9.792584419250488,0.06464344263076782,0.06703764945268631
1716738157045223700,1.3882236328125,9.80455493927002,0.05985504388809204,0.043095629662275314
1716738157055223800,1.398223876953125,9.806949615478516,0.05506663769483566,0.05267243832349777
1716738157065223700,1.4082236328125,9.790189743041992,0.05985504388809204,0.047884032130241394
1716738157075223800,1.418223876953125,9.799766540527344,0.047884032130241394,0.08379705995321274
1716738157085223700,1.4282236328125,9.787796020507812,0.06464344263076782,0.06224924325942993
1716738157095223800,1.438223876953125,9.797372817993164,0.06703764945268631,0.05267243832349777
1716738157105223700,1.4482236328125,9.787796020507812,0.05746084079146385,0.06224924325942993
1716738157115224800,1.458224853515625,9.792584419250488,0.05985504388809204,0.06224924325942993
1716738157125225000,1.468224853515625,9.792584419250488,0.05267243832349777,0.047884032130241394
1716738157135224800,1.478224853515625,9.806949615478516,0.06703764945268631,0.0694318488240242
1716738157145225000,1.488224853515625,9.811738014221191,0.05985504388809204,0.0694318488240242
1716738157155224800,1.498224853515625,9.794978141784668,0.05267243832349777,0.05506663769483566
1716738157165225000,1.508224853515625,9.799766540527344,0.05267243832349777,0.0454898327589035
1716738157175224800,1.518224853515625,9.794978141784668,0.05746084079146385,0.07661445438861847
1716738157185225000,1.528224853515625,9.783007621765137,0.043095629662275314,0.07900865375995636
1716738157195224800,1.538224853515625,9.794978141784668,0.0694318488240242,0.05746084079146385
1716738157205225000,1.548224853515625,9.799766540527344,0.05746084079146385,0.05027823522686958
1716738157215224800,1.558224853515625,9.797372817993164,0.06224924325942993,0.05985504388809204
1716738157225225000,1.568224853515625,9.78061294555664,0.05985504388809204,0.06224924325942993
1716738157235224800,1.578224853515625,9.778219223022461,0.07661445438861847,0.07422025501728058
1716738157245225000,1.588224853515625,9.787796020507812,0.06224924325942993,0.07900865375995636
1716738157255224800,1.598224853515625,9.797372817993164,0.05027823522686958,0.06464344263076782
1716738157265225000,1.608224853515625,9.785401344299316,0.05267243832349777,0.0694318488240242
1716738157275224800,1.618224853515625,9.785401344299316,0.06464344263076782,0.07182604819536209
1716738157285225000,1.628224853515625,9.797372817993164,0.0694318488240242,0.05027823522686958
1716738157295224800,1.638224853515625,9.778219223022461,0.07900865375995636,0.06464344263076782
1716738157305224700,1.648224609375,9.773430824279785,0.06703764945268631,0.05746084079146385
1716738157315224600,1.658224609375,9.797372817993164,0.06224924325942993,0.05985504388809204
1716738157325224700,1.668224609375,9.794978141784668,0.06703764945268631,0.07900865375995636
1716738157335224600,1.678224609375,9.80216121673584,0.0454898327589035,0.06703764945268631
1716738157345224700,1.688224609375,9.80455493927002,0.06703764945268631,0.07422025501728058
1716738157356555300,1.69955517578125,9.792584419250488,0.05746084079146385,0.0694318488240242
1716738157366555400,1.709555419921875,9.797372817993164,0.05746084079146385,0.06224924325942993
1716738157376555500,1.719555419921875,9.790189743041992,0.05985504388809204,0.06224924325942993
1716738157386555400,1.729555419921875,9.794978141784668,0.05746084079146385,0.05985504388809204
1716738157396555500,1.739555419921875,9.792584419250488,0.06224924325942993,0.0694318488240242
1716738157406555400,1.749555419921875,9.792584419250488,0.05746084079146385,0.05985504388809204
1716738157416554200,1.75955419921875,9.797372817993164,0.040701430290937424,0.05746084079146385
1716738157426554400,1.769554443359375,9.797372817993164,0.05985504388809204,0.0694318488240242
1716738157436554200,1.77955419921875,9.792584419250488,0.05267243832349777,0.05506663769483566
1716738157446554400,1.789554443359375,9.799766540527344,0.05746084079146385,0.06464344263076782
1716738157456554200,1.79955419921875,9.794978141784668,0.05985504388809204,0.05746084079146385
1716738157466554400,1.809554443359375,9.792584419250488,0.0694318488240242,0.06224924325942993
1716738157476554200,1.81955419921875,9.794978141784668,0.05985504388809204,0.05267243832349777
1716738157486554400,1.829554443359375,9.785401344299316,0.05267243832349777,0.05746084079146385
1716738157496554200,1.83955419921875,9.787796020507812,0.06703764945268631,0.05506663769483566
1716738157506554400,1.849554443359375,9.785401344299316,0.047884032130241394,0.07422025501728058
1716738157516554200,1.85955419921875,9.790189743041992,0.047884032130241394,0.05506663769483566
1716738157526554400,1.869554443359375,9.790189743041992,0.05746084079146385,0.0454898327589035
1716738157536554200,1.87955419921875,9.792584419250488,0.05027823522686958,0.040701430290937424
1716738157546554400,1.889554443359375,9.797372817993164,0.05267243832349777,0.05746084079146385
1716738157556554200,1.89955419921875,9.799766540527344,0.06464344263076782,0.05506663769483566
1716738157566554400,1.909554443359375,9.792584419250488,0.05506663769483566,0.05746084079146385
1716738157576554200,1.91955419921875,9.790189743041992,0.0454898327589035,0.05746084079146385
1716738157586554400,1.929554443359375,9.790189743041992,0.05027823522686958,0.07422025501728058
1716738157596554200,1.93955419921875,9.790189743041992,0.05027823522686958,0.05985504388809204
1716738157606554400,1.949554443359375,9.787796020507812,0.05506663769483566,0.047884032130241394
1716738157616554200,1.95955419921875,9.80455493927002,0.06464344263076782,0.05985504388809204
1716738157626554400,1.969554443359375,9.80216121673584,0.05985504388809204,0.043095629662275314
1716738157636554200,1.97955419921875,9.785401344299316,0.05267243832349777,0.05267243832349777
1716738157646554400,1.989554443359375,9.806949615478516,0.07182604819536209,0.06703764945268631
1716738157656554200,1.99955419921875,9.799766540527344,0.08379705995321274,0.047884032130241394
1716738157666554400,2.009554443359375,9.785401344299316,0.05267243832349777,0.0694318488240242
1716738157676554200,2.01955419921875,9.783007621765137,0.06703764945268631,0.07182604819536209
1716738157686554400,2.029554443359375,9.797372817993164,0.031124621629714966,0.07182604819536209
1716738157696554200,2.03955419921875,9.806949615478516,0.040701430290937424,0.06703764945268631
1716738157706554400,2.049554443359375,9.792584419250488,0.05267243832349777,0.0694318488240242
1716738157716554200,2.05955419921875,9.794978141784668,0.07182604819536209,0.07900865375995636
1716738157726554400,2.069554443359375,9.790189743041992,0.07182604819536209,0.05506663769483566
1716738157736554200,2.07955419921875,9.76864242553711,0.047884032130241394,0.043095629662275314
1716738157746554400,2.089554443359375,9.806949615478516,0.05027823522686958,0.06464344263076782
1716738157756554200,2.09955419921875,9.814131736755371,0.05267243832349777,0.07900865375995636
1716738157766554400,2.109554443359375,9.763854026794434,0.06224924325942993,0.05985504388809204
1716738157776554200,2.11955419921875,9.783007621765137,0.05746084079146385,0.06224924325942993
1716738157786554400,2.129554443359375,9.811738014221191,0.07661445438861847,0.06224924325942993
1716738157796554200,2.13955419921875,9.80455493927002,0.07422025501728058,0.06464344263076782
1716738157806554400,2.149554443359375,9.787796020507812,0.06224924325942993,0.07182604819536209
1716738157816554200,2.15955419921875,9.792584419250488,0.05746084079146385,0.0694318488240242
1716738157826554400,2.169554443359375,9.80216121673584,0.06224924325942993,0.06464344263076782
1716738157836554200,2.17955419921875,9.80455493927002,0.05267243832349777,0.05746084079146385
1716738157846554400,2.189554443359375,9.778219223022461,0.07661445438861847,0.07422025501728058
1716738157856554200,2.19955419921875,9.763854026794434,0.0454898327589035,0.06464344263076782
1716738157866554400,2.209554443359375,9.785401344299316,0.06464344263076782,0.06464344263076782
1716738157876554200,2.21955419921875,9.806949615478516,0.05267243832349777,0.06464344263076782
1716738157886554400,2.229554443359375,9.797372817993164,0.0454898327589035,0.0694318488240242
1716738157896554200,2.23955419921875,9.76864242553711,0.035913024097681046,0.05985504388809204
1716738157906554400,2.249554443359375,9.80216121673584,0.07422025501728058,0.05985504388809204
1716738157916554200,2.25955419921875,9.80455493927002,0.06464344263076782,0.05027823522686958
1716738157926554000,2.26955419921875,9.787796020507812,0.0454898327589035,0.07182604819536209
1716738157936554200,2.27955419921875,9.76864242553711,0.05267243832349777,0.07900865375995636
1716738157946554000,2.28955419921875,9.787796020507812,0.06464344263076782,0.07900865375995636
1716738157956554200,2.29955419921875,9.814131736755371,0.05267243832349777,0.07661445438861847
1716738157966554000,2.30955419921875,9.785401344299316,0.05506663769483566,0.05985504388809204
1716738157976554200,2.31955419921875,9.78061294555664,0.06224924325942993,0.06464344263076782
1716738157986554000,2.32955419921875,9.787796020507812,0.06464344263076782,0.05267243832349777
1716738157996554200,2.33955419921875,9.797372817993164,0.05746084079146385,0.05506663769483566
1716738158006554000,2.34955419921875,9.794978141784668,0.05506663769483566,0.047884032130241394
1716738158016554200,2.35955419921875,9.78061294555664,0.06464344263076782,0.05746084079146385
1716738158026554000,2.36955419921875,9.792584419250488,0.05985504388809204,0.06224924325942993
1716738158036554200,2.37955419921875,9.799766540527344,0.05746084079146385,0.05267243832349777
1716738158046554000,2.38955419921875,9.797372817993164,0.05267243832349777,0.05985504388809204
1716738158056554200,2.39955419921875,9.785401344299316,0.05985504388809204,0.06224924325942993
1716738158066554000,2.40955419921875,9.78061294555664,0.06224924325942993,0.07661445438861847
1716738158076554200,2.41955419921875,9.794978141784668,0.05985504388809204,0.06703764945268631
1716738158086554000,2.42955419921875,9.787796020507812,0.05506663769483566,0.07900865375995636
1716738158096554200,2.43955419921875,9.78061294555664,0.047884032130241394,0.06224924325942993
1716738158106554000,2.44955419921875,9.797372817993164,0.06224924325942993,0.06703764945268631
1716738158116554200,2.45955419921875,9.80216121673584,0.05027823522686958,0.05746084079146385
1716738158126554000,2.46955419921875,9.785401344299316,0.05267243832349777,0.07182604819536209
1716738158136554200,2.47955419921875,9.785401344299316,0.05267243832349777,0.043095629662275314
1716738158146554000,2.48955419921875,9.790189743041992,0.06224924325942993,0.06464344263076782
1716738158156554200,2.49955419921875,9.799766540527344,0.06224924325942993,0.06224924325942993
1716738158166554000,2.50955419921875,9.794978141784668,0.043095629662275314,0.05985504388809204
1716738158176554200,2.51955419921875,9.778219223022461,0.05267243832349777,0.05985504388809204
1716738158186554000,2.52955419921875,9.80455493927002,0.05267243832349777,0.06464344263076782
1716738158196554200,2.53955419921875,9.787796020507812,0.0694318488240242,0.06703764945268631
1716738158206554000,2.54955419921875,9.799766540527344,0.06464344263076782,0.05267243832349777
1716738158216554200,2.55955419921875,9.778219223022461,0.043095629662275314,0.05746084079146385
1716738158226554000,2.56955419921875,9.792584419250488,0.05985504388809204,0.05985504388809204
1716738158236554200,2.57955419921875,9.790189743041992,0.05027823522686958,0.040701430290937424
1716738158246554000,2.58955419921875,9.790189743041992,0.07182604819536209,0.06224924325942993
1716738158256554200,2.59955419921875,9.794978141784668,0.05027823522686958,0.05746084079146385
1716738158266554000,2.60955419921875,9.78061294555664,0.05506663769483566,0.05746084079146385
1716738158276554200,2.61955419921875,9.792584419250488,0.0454898327589035,0.05985504388809204
1716738158286554000,2.62955419921875,9.792584419250488,0.05506663769483566,0.05985504388809204
1716738158296554200,2.63955419921875,9.78061294555664,0.031124621629714966,0.05985504388809204
1716738158306554000,2.64955419921875,9.787796020507812,0.05267243832349777,0.07661445438861847
1716738158316554200,2.65955419921875,9.785401344299316,0.05746084079146385,0.0694318488240242
1716738158326554000,2.66955419921875,9.792584419250488,0.047884032130241394,0.0694318488240242
1716738158336554200,2.67955419921875,9.783007621765137,0.038307227194309235,0.06703764945268631
1716738158346554000,2.68955419921875,9.80455493927002,0.047884032130241394,0.05267243832349777
1716738158356554200,2.69955419921875,9.794978141784668,0.05506663769483566,0.06464344263076782
1716738158366554000,2.70955419921875,9.783007621765137,0.06224924325942993,0.06224924325942993
1716738158376554200,2.71955419921875,9.794978141784668,0.06224924325942993,0.06464344263076782
1716738158386554000,2.72955419921875,9.794978141784668,0.06224924325942993,0.05746084079146385
1716738158396554200,2.73955419921875,9.790189743041992,0.07422025501728058,0.05506663769483566
1716738158406554000,2.74955419921875,9.785401344299316,0.05027823522686958,0.0694318488240242
1716738158416554200,2.75955419921875,9.797372817993164,0.0694318488240242,0.0454898327589035
1716738158426554000,2.76955419921875,9.790189743041992,0.05746084079146385,0.0454898327589035
1716738158436554200,2.77955419921875,9.80216121673584,0.05506663769483566,0.05985504388809204
1716738158446554000,2.78955419921875,9.783007621765137,0.06703764945268631,0.05746084079146385
1716738158456554200,2.79955419921875,9.794978141784668,0.06224924325942993,0.0454898327589035
1716738158466554000,2.80955419921875,9.792584419250488,0.06224924325942993,0.05506663769483566
1716738158476554200,2.81955419921875,9.80216121673584,0.05267243832349777,0.07422025501728058
1716738158486554000,2.82955419921875,9.787796020507812,0.043095629662275314,0.0694318488240242
1716738158496554200,2.83955419921875,9.797372817993164,0.06703764945268631,0.0694318488240242
1716738158506554000,2.84955419921875,9.792584419250488,0.05267243832349777,0.07661445438861847
1716738158516554200,2.85955419921875,9.783007621765137,0.05506663769483566,0.06224924325942993
1716738158526554000,2.86955419921875,9.785401344299316,0.0694318488240242,0.06703764945268631
1716738158536554200,2.87955419921875,9.790189743041992,0.05746084079146385,0.0694318488240242
1716738158546554000,2.88955419921875,9.806949615478516,0.05746084079146385,0.06703764945268631
1716738158556554200,2.89955419921875,9.790189743041992,0.05506663769483566,0.05746084079146385
1716738158566554000,2.90955419921875,9.783007621765137,0.05267243832349777,0.05267243832349777
1716738158576554200,2.91955419921875,9.783007621765137,0.05985504388809204,0.05027823522686958
1716738158586554000,2.92955419921875,9.799766540527344,0.06703764945268631,0.040701430290937424
1716738158596554200,2.93955419921875,9.797372817993164,0.06224924325942993,0.06703764945268631
1716738158606554000,2.94955419921875,9.790189743041992,0.05746084079146385,0.07182604819536209
1716738158616554200,2.95955419921875,9.787796020507812,0.07182604819536209,0.05506663769483566
1716738158626554000,2.96955419921875,9.799766540527344,0.047884032130241394,0.07182604819536209
1716738158636554200,2.97955419921875,9.80216121673584,0.05746084079146385,0.05985504388809204
1716738158646554000,2.98955419921875,9.794978141784668,0.06464344263076782,0.05506663769483566
1716738158656554200,2.99955419921875,9.792584419250488,0.05985504388809204,0.06464344263076782
1716738158666554000,3.00955419921875,9.785401344299316,0.05267243832349777,0.06224924325942993
1716738158676554200,3.01955419921875,9.794978141784668,0.0694318488240242,0.043095629662275314
1716738158686554000,3.02955419921875,9.787796020507812,0.06224924325942993,0.05267243832349777
1716738158696554200,3.03955419921875,9.790189743041992,0.0694318488240242,0.06224924325942993
1716738158706554000,3.04955419921875,9.78061294555664,0.06464344263076782,0.06464344263076782
1716738158716554200,3.05955419921875,9.792584419250488,0.06224924325942993,0.06464344263076782
1716738158726554000,3.06955419921875,9.732728958129883,0.047884032130241394,0.05506663769483566
1716738158736554200,3.07955419921875,9.797372817993164,0.05027823522686958,0.05985504388809204
1716738158746554000,3.08955419921875,9.845256805419922,0.05267243832349777,0.043095629662275314
1716738158756554200,3.09955419921875,9.773430824279785,0.043095629662275314,0.06703764945268631
1716738158766554000,3.10955419921875,9.761459350585938,0.07900865375995636,0.07182604819536209
1716738158776554200,3.11955419921875,9.828496932983398,0.06224924325942993,0.07900865375995636
1716738158786554000,3.12955419921875,9.840468406677246,0.05746084079146385,0.05506663769483566
1716738158796554200,3.13955419921875,9.76864242553711,0.06703764945268631,0.05985504388809204
1716738158806554000,3.14955419921875,9.74709415435791,0.05267243832349777,0.06703764945268631
1716738158816554200,3.15955419921875,9.826103210449219,0.05746084079146385,0.07661445438861847
1716738158826554000,3.16955419921875,9.845256805419922,0.05267243832349777,0.07422025501728058
1716738158836554200,3.17955419921875,9.775824546813965,0.047884032130241394,0.05985504388809204
1716738158846554000,3.18955419921875,9.756670951843262,0.05746084079146385,0.05267243832349777
1716738158856554200,3.19955419921875,9.806949615478516,0.07900865375995636,0.0454898327589035
1716738158866554000,3.20955419921875,9.830891609191895,0.05506663769483566,0.0454898327589035
1716738158876554200,3.21955419921875,9.766247749328613,0.06224924325942993,0.06464344263076782
1716738158886554000,3.22955419921875,9.771036148071289,0.05985504388809204,0.0694318488240242
1716738158896554200,3.23955419921875,9.814131736755371,0.0454898327589035,0.0454898327589035
1716738158906554000,3.24955419921875,9.821314811706543,0.040701430290937424,0.07661445438861847
1716738158916554200,3.25955419921875,9.773430824279785,0.05506663769483566,0.05267243832349777
1716738158926554000,3.26955419921875,9.778219223022461,0.05506663769483566,0.07182604819536209
1716738158936554200,3.27955419921875,9.814131736755371,0.0694318488240242,0.06224924325942993
1716738158946554000,3.28955419921875,9.821314811706543,0.040701430290937424,0.07422025501728058
1716738158956554200,3.29955419921875,9.78061294555664,0.05267243832349777,0.06703764945268631
1716738158966554000,3.30955419921875,9.773430824279785,0.06224924325942993,0.06224924325942993
1716738158976554200,3.31955419921875,9.799766540527344,0.07422025501728058,0.06224924325942993
1716738158986554000,3.32955419921875,9.814131736755371,0.0694318488240242,0.05985504388809204
1716738158996554200,3.33955419921875,9.78061294555664,0.06703764945268631,0.047884032130241394
1716738159006553900,3.349553955078125,9.771036148071289,0.040701430290937424,0.06464344263076782
1716738159016553700,3.3595537109375,9.80216121673584,0.05027823522686958,0.05746084079146385
1716738159026553900,3.369553955078125,9.80216121673584,0.07661445438861847,0.05027823522686958
1716738159036553700,3.3795537109375,9.76864242553711,0.05506663769483566,0.05267243832349777
1716738159046553900,3.389553955078125,9.794978141784668,0.05267243832349777,0.07182604819536209
1716738159056553700,3.3995537109375,9.799766540527344,0.06464344263076782,0.05746084079146385
1716738159066553900,3.409553955078125,9.799766540527344,0.05746084079146385,0.06224924325942993
1716738159076553700,3.4195537109375,9.771036148071289,0.05267243832349777,0.05746084079146385
1716738159086553900,3.429553955078125,9.775824546813965,0.05746084079146385,0.07182604819536209
1716738159096553700,3.4395537109375,9.806949615478516,0.043095629662275314,0.05746084079146385
1716738159106553900,3.449553955078125,9.80216121673584,0.06224924325942993,0.05746084079146385
1716738159116553700,3.4595537109375,9.797372817993164,0.06224924325942993,0.0694318488240242
1716738159126553900,3.469553955078125,9.785401344299316,0.06464344263076782,0.06703764945268631
1716738159136553700,3.4795537109375,9.797372817993164,0.05506663769483566,0.0694318488240242
1716738159146553900,3.489553955078125,9.792584419250488,0.0454898327589035,0.06703764945268631
1716738159156553700,3.4995537109375,9.790189743041992,0.05267243832349777,0.06224924325942993
1716738159166553900,3.509553955078125,9.773430824279785,0.05267243832349777,0.06703764945268631
1716738159176553700,3.5195537109375,9.80216121673584,0.07422025501728058,0.06703764945268631
1716738159186553900,3.529553955078125,9.797372817993164,0.06464344263076782,0.06464344263076782
1716738159196553700,3.5395537109375,9.806949615478516,0.047884032130241394,0.06464344263076782
1716738159206553900,3.549553955078125,9.78061294555664,0.06464344263076782,0.07422025501728058
1716738159216553700,3.5595537109375,9.794978141784668,0.05985504388809204,0.05746084079146385
1716738159226553900,3.569553955078125,9.80455493927002,0.047884032130241394,0.06703764945268631
1716738159236553700,3.5795537109375,9.783007621765137,0.05746084079146385,0.07900865375995636
1716738159246553900,3.589553955078125,9.790189743041992,0.05506663769483566,0.05267243832349777
1716738159256553700,3.5995537109375,9.794978141784668,0.06703764945268631,0.07900865375995636
1716738159266553900,3.609553955078125,9.797372817993164,0.07182604819536209,0.05506663769483566
1716738159276553700,3.6195537109375,9.787796020507812,0.05746084079146385,0.05506663769483566
1716738159286553900,3.629553955078125,9.797372817993164,0.047884032130241394,0.06464344263076782
1716738159296553700,3.6395537109375,9.806949615478516,0.06703764945268631,0.06703764945268631
1716738159306554000,3.64955419921875,9.797372817993164,0.06703764945268631,0.06224924325942993
1716738159316554200,3.65955419921875,9.783007621765137,0.043095629662275314,0.05746084079146385
1716738159326554000,3.66955419921875,9.787796020507812,0.047884032130241394,0.05027823522686958
1716738159336554200,3.67955419921875,9.787796020507812,0.06224924325942993,0.05506663769483566
1716738159346554000,3.68955419921875,9.806949615478516,0.06224924325942993,0.06224924325942993
1716738159356554200,3.69955419921875,9.790189743041992,0.06224924325942993,0.043095629662275314
1716738159366554000,3.70955419921875,9.790189743041992,0.05506663769483566,0.05506663769483566
1716738159376554200,3.71955419921875,9.792584419250488,0.06464344263076782,0.05506663769483566
1716738159386554000,3.72955419921875,9.811738014221191,0.05746084079146385,0.06703764945268631
1716738159396554200,3.73955419921875,9.797372817993164,0.05746084079146385,0.05985504388809204
1716738159406554000,3.74955419921875,9.792584419250488,0.06464344263076782,0.05985504388809204
1716738159416554200,3.75955419921875,9.790189743041992,0.07422025501728058,0.07661445438861847
1716738159426554000,3.76955419921875,9.792584419250488,0.0454898327589035,0.06224924325942993
1716738159436554200,3.77955419921875,9.787796020507812,0.05506663769483566,0.05985504388809204
1716738159446554000,3.78955419921875,9.794978141784668,0.07182604819536209,0.07182604819536209
1716738159456554200,3.79955419921875,9.794978141784668,0.07422025501728058,0.06703764945268631
1716738159466554000,3.80955419921875,9.797372817993164,0.06224924325942993,0.06464344263076782
1716738159476554200,3.81955419921875,9.797372817993164,0.05746084079146385,0.05746084079146385
1716738159486554000,3.82955419921875,9.783007621765137,0.043095629662275314,0.05267243832349777
1716738159496554200,3.83955419921875,9.797372817993164,0.05267243832349777,0.05985504388809204
1716738159506554000,3.84955419921875,9.811738014221191,0.043095629662275314,0.0694318488240242
1716738159516554200,3.85955419921875,9.790189743041992,0.05027823522686958,0.06224924325942993
1716738159526554000,3.86955419921875,9.783007621765137,0.038307227194309235,0.05267243832349777
1716738159536554200,3.87955419921875,9.794978141784668,0.05506663769483566,0.05985504388809204
1716738159546554000,3.88955419921875,9.799766540527344,0.05267243832349777,0.06703764945268631
1716738159556554200,3.89955419921875,9.778219223022461,0.06703764945268631,0.05506663769483566
1716738159566554000,3.90955419921875,9.785401344299316,0.043095629662275314,0.047884032130241394
1716738159576554200,3.91955419921875,9.806949615478516,0.06224924325942993,0.06703764945268631
1716738159586554000,3.92955419921875,9.799766540527344,0.031124621629714966,0.07422025501728058
1716738159596554200,3.93955419921875,9.809343338012695,0.06703764945268631,0.05267243832349777
1716738159606554000,3.94955419921875,9.792584419250488,0.0454898327589035,0.07422025501728058
1716738159616554200,3.95955419921875,9.80216121673584,0.0454898327589035,0.05267243832349777
1716738159626554000,3.96955419921875,9.80455493927002,0.06224924325942993,0.06224924325942993
1716738159636554200,3.97955419921875,9.792584419250488,0.06464344263076782,0.05267243832349777
1716738159646554000,3.98955419921875,9.80216121673584,0.05985504388809204,0.05746084079146385
1716738159656554200,3.99955419921875,9.80455493927002,0.0454898327589035,0.05746084079146385
1716738159666554000,4.00955419921875,9.792584419250488,0.047884032130241394,0.05746084079146385
1716738159676554200,4.01955419921875,9.792584419250488,0.06224924325942993,0.06703764945268631
1716738159686554000,4.02955419921875,9.787796020507812,0.033518824726343155,0.05985504388809204
1716738159696554200,4.03955419921875,9.783007621765137,0.05506663769483566,0.06464344263076782
1716738159706554000,4.04955419921875,9.797372817993164,0.047884032130241394,0.05985504388809204
1716738159716554200,4.05955419921875,9.799766540527344,0.06464344263076782,0.040701430290937424
1716738159726554000,4.06955419921875,9.80455493927002,0.05746084079146385,0.05267243832349777
1716738159736554200,4.07955419921875,9.790189743041992,0.0694318488240242,0.05506663769483566
1716738159746554000,4.08955419921875,9.78061294555664,0.05027823522686958,0.05985504388809204
1716738159756554200,4.09955419921875,9.787796020507812,0.06224924325942993,0.05746084079146385
1716738159766554000,4.10955419921875,9.799766540527344,0.06464344263076782,0.047884032130241394
1716738159776554200,4.11955419921875,9.787796020507812,0.06224924325942993,0.05506663769483566
1716738159786554000,4.12955419921875,9.806949615478516,0.047884032130241394,0.07182604819536209
1716738159796554200,4.13955419921875,9.80216121673584,0.05506663769483566,0.06224924325942993
1716738159806554000,4.14955419921875,9.790189743041992,0.05267243832349777,0.0694318488240242
1716738159816554200,4.15955419921875,9.787796020507812,0.05985504388809204,0.05746084079146385
1716738159826554000,4.16955419921875,9.749488830566406,0.07422025501728058,0.06224924325942993
1716738159836554200,4.17955419921875,9.78061294555664,0.06224924325942993,0.05506663769483566
1716738159846554000,4.18955419921875,9.8691987991333,0.05985504388809204,0.05506663769483566
1716738159856554200,4.19955419921875,9.833285331726074,0.0454898327589035,0.05746084079146385
1716738159866554000,4.20955419921875,9.711181640625,0.035913024097681046,0.06703764945268631
1716738159876554200,4.21955419921875,9.742305755615234,0.06224924325942993,0.08140286058187485
1716738159886554000,4.22955419921875,9.866804122924805,0.05985504388809204,0.07900865375995636
1716738159896554200,4.23955419921875,9.845256805419922,0.06224924325942993,0.08379705995321274
1716738159906554000,4.24955419921875,9.739912033081055,0.06703764945268631,0.05985504388809204
1716738159916554200,4.25955419921875,9.739912033081055,0.05746084079146385,0.05027823522686958
1716738159926554000,4.26955419921875,9.850045204162598,0.05746084079146385,0.05267243832349777
1716738159936554200,4.27955419921875,9.842862129211426,0.05746084079146385,0.05746084079146385
1716738159946554000,4.28955419921875,9.759065628051758,0.0454898327589035,0.05267243832349777
1716738159956554200,4.29955419921875,9.74709415435791,0.0694318488240242,0.08140286058187485
1716738159966554000,4.30955419921875,9.842862129211426,0.07422025501728058,0.05027823522686958
1716738159976554200,4.31955419921875,9.826103210449219,0.07661445438861847,0.05506663769483566
1716738159986554000,4.32955419921875,9.771036148071289,0.06224924325942993,0.043095629662275314
1716738159996554200,4.33955419921875,9.759065628051758,0.06224924325942993,0.08379705995321274
1716738160006554000,4.34955419921875,9.818920135498047,0.038307227194309235,0.06703764945268631
1716738160016554200,4.35955419921875,9.811738014221191,0.047884032130241394,0.06464344263076782
1716738160026554000,4.36955419921875,9.74470043182373,0.0454898327589035,0.05267243832349777
1716738160036554200,4.37955419921875,9.790189743041992,0.026336219161748886,0.07182604819536209
1716738160046554000,4.38955419921875,9.833285331726074,0.040701430290937424,0.07661445438861847
1716738160056554200,4.39955419921875,9.811738014221191,0.05746084079146385,0.05506663769483566
1716738160066554000,4.40955419921875,9.74709415435791,0.06464344263076782,0.06703764945268631
1716738160076554200,4.41955419921875,9.766247749328613,0.05027823522686958,0.06464344263076782
1716738160086554000,4.42955419921875,9.828496932983398,0.05746084079146385,0.07661445438861847
1716738160096554200,4.43955419921875,9.814131736755371,0.038307227194309235,0.06224924325942993
1716738160106554000,4.44955419921875,9.771036148071289,0.040701430290937424,0.05506663769483566
1716738160116554200,4.45955419921875,9.76864242553711,0.05985504388809204,0.05506663769483566
1716738160126554000,4.46955419921875,9.821314811706543,0.05985504388809204,0.07182604819536209
1716738160136554200,4.47955419921875,9.823708534240723,0.06703764945268631,0.05267243832349777
1716738160146554000,4.48955419921875,9.773430824279785,0.05746084079146385,0.05746084079146385
1716738160156554200,4.49955419921875,9.773430824279785,0.06464344263076782,0.05027823522686958
1716738160166554000,4.50955419921875,9.816526412963867,0.05027823522686958,0.06224924325942993
1716738160176554200,4.51955419921875,9.799766540527344,0.05985504388809204,0.05027823522686958
1716738160186554000,4.52955419921875,9.773430824279785,0.06224924325942993,0.0454898327589035
1716738160196554200,4.53955419921875,9.773430824279785,0.06224924325942993,0.05267243832349777
1716738160206554000,4.54955419921875,9.816526412963867,0.05746084079146385,0.08858546614646912
1716738160216554200,4.55955419921875,9.806949615478516,0.047884032130241394,0.047884032130241394
1716738160226554000,4.56955419921875,9.78061294555664,0.040701430290937424,0.07422025501728058
1716738160236554200,4.57955419921875,9.797372817993164,0.05027823522686958,0.05985504388809204
1716738160246554000,4.58955419921875,9.806949615478516,0.06464344263076782,0.08619125932455063
1716738160256554200,4.59955419921875,9.814131736755371,0.05267243832349777,0.06703764945268631
1716738160266554000,4.60955419921875,9.78061294555664,0.05267243832349777,0.06224924325942993
1716738160276554200,4.61955419921875,9.783007621765137,0.05027823522686958,0.0694318488240242
1716738160286554000,4.62955419921875,9.799766540527344,0.0454898327589035,0.07900865375995636
1716738160296554200,4.63955419921875,9.821314811706543,0.07182604819536209,0.06224924325942993
1716738160306554000,4.64955419921875,9.787796020507812,0.0454898327589035,0.07422025501728058
1716738160316554200,4.65955419921875,9.790189743041992,0.0694318488240242,0.05506663769483566
1716738160326554000,4.66955419921875,9.792584419250488,0.05746084079146385,0.07422025501728058
1716738160336554200,4.67955419921875,9.80216121673584,0.06224924325942993,0.0694318488240242
1716738160346554000,4.68955419921875,9.778219223022461,0.06224924325942993,0.05506663769483566
1716738160356554200,4.69955419921875,9.785401344299316,0.038307227194309235,0.05746084079146385
1716738160366554000,4.70955419921875,9.799766540527344,0.047884032130241394,0.06464344263076782
1716738160376554200,4.71955419921875,9.80216121673584,0.05506663769483566,0.0454898327589035
1716738160386554000,4.72955419921875,9.797372817993164,0.0454898327589035,0.07661445438861847
1716738160396554200,4.73955419921875,9.775824546813965,0.06703764945268631,0.05027823522686958
1716738160406554000,4.74955419921875,9.794978141784668,0.05506663769483566,0.07182604819536209
1716738160416554200,4.75955419921875,9.814131736755371,0.047884032130241394,0.07661445438861847
1716738160426554000,4.76955419921875,9.783007621765137,0.035913024097681046,0.07422025501728058
1716738160436554200,4.77955419921875,9.790189743041992,0.043095629662275314,0.06224924325942993
1716738160446554000,4.78955419921875,9.799766540527344,0.05746084079146385,0.0694318488240242
1716738160456554200,4.79955419921875,9.790189743041992,0.05267243832349777,0.05267243832349777
1716738160466554000,4.80955419921875,9.797372817993164,0.07661445438861847,0.06464344263076782
1716738160476554200,4.81955419921875,9.783007621765137,0.05506663769483566,0.0694318488240242
1716738160486554000,4.82955419921875,9.790189743041992,0.0454898327589035,0.06224924325942993
1716738160496554200,4.83955419921875,9.806949615478516,0.07422025501728058,0.06464344263076782
1716738160506554000,4.84955419921875,9.783007621765137,0.05746084079146385,0.047884032130241394
1716738160516554200,4.85955419921875,9.792584419250488,0.05027823522686958,0.05267243832349777
1716738160526554000,4.86955419921875,9.799766540527344,0.043095629662275314,0.043095629662275314
1716738160536554200,4.87955419921875,9.799766540527344,0.07422025501728058,0.05985504388809204
1716738160546554000,4.88955419921875,9.806949615478516,0.05985504388809204,0.07900865375995636
1716738160556554200,4.89955419921875,9.792584419250488,0.06224924325942993,0.06224924325942993
1716738160566554000,4.90955419921875,9.790189743041992,0.05746084079146385,0.05506663769483566
1716738160576554200,4.91955419921875,9.799766540527344,0.05985504388809204,0.05746084079146385
1716738160586554000,4.92955419921875,9.785401344299316,0.05746084079146385,0.07661445438861847
1716738160596554200,4.93955419921875,9.783007621765137,0.05267243832349777,0.06224924325942993
1716738160606554000,4.94955419921875,9.811738014221191,0.06703764945268631,0.08858546614646912
1716738160616554200,4.95955419921875,9.809343338012695,0.06224924325942993,0.05746084079146385
1716738160626554000,4.96955419921875,9.80455493927002,0.05027823522686958,0.05746084079146385
1716738160636554200,4.97955419921875,9.790189743041992,0.040701430290937424,0.07422025501728058
1716738160646554000,4.98955419921875,9.797372817993164,0.05746084079146385,0.06464344263076782
1716738160656554200,4.99955419921875,9.78061294555664,0.06224924325942993,0.07900865375995636
1716738160666554000,5.00955419921875,9.783007621765137,0.05985504388809204,0.06224924325942993
1716738160676554200,5.01955419921875,9.785401344299316,0.05267243832349777,0.07900865375995636
1716738160686554000,5.02955419921875,9.809343338012695,0.05027823522686958,0.06703764945268631
1716738160696554200,5.03955419921875,9.792584419250488,0.0694318488240242,0.0694318488240242
1716738160706554000,5.04955419921875,9.78061294555664,0.06224924325942993,0.05506663769483566
1716738160716554200,5.05955419921875,9.783007621765137,0.040701430290937424,0.0694318488240242
1716738160726554000,5.06955419921875,9.794978141784668,0.038307227194309235,0.05746084079146385
1716738160736554200,5.07955419921875,9.799766540527344,0.06464344263076782,0.05985504388809204
1716738160746554000,5.08955419921875,9.787796020507812,0.05746084079146385,0.05746084079146385
1716738160756554200,5.09955419921875,9.787796020507812,0.0454898327589035,0.07661445438861847
1716738160766554000,5.10955419921875,9.794978141784668,0.0454898327589035,0.07182604819536209
1716738160776554200,5.11955419921875,9.794978141784668,0.05027823522686958,0.05267243832349777
1716738160786554000,5.12955419921875,9.759065628051758,0.040701430290937424,0.047884032130241394
1716738160796554200,5.13955419921875,9.809343338012695,0.05267243832349777,0.05267243832349777
1716738160806553600,5.1495537109375,9.809343338012695,0.05267243832349777,0.05506663769483566
1716738160816553700,5.1595537109375,9.74470043182373,0.047884032130241394,0.05267243832349777
1716738160826553600,5.1695537109375,9.773430824279785,0.05027823522686958,0.05985504388809204
1716738160836553700,5.1795537109375,9.840468406677246,0.05985504388809204,0.05506663769483566
1716738160846553600,5.1895537109375,9.818920135498047,0.06464344263076782,0.05985504388809204
1716738160856553700,5.1995537109375,9.76864242553711,0.07182604819536209,0.05267243832349777
1716738160866553600,5.2095537109375,9.78061294555664,0.05267243832349777,0.06224924325942993
1716738160876553700,5.2195537109375,9.830891609191895,0.05985504388809204,0.05506663769483566
1716738160886553600,5.2295537109375,9.826103210449219,0.05027823522686958,0.06703764945268631
1716738160896553700,5.2395537109375,9.773430824279785,0.05267243832349777,0.038307227194309235
1716738160906553600,5.2495537109375,9.792584419250488,0.07661445438861847,0.016759412363171577
1716738160916553700,5.2595537109375,9.759065628051758,0.043095629662275314,0.05027823522686958
1716738160926553600,5.2695537109375,9.792584419250488,0.05027823522686958,0.05746084079146385
1716738160936553700,5.2795537109375,9.814131736755371,0.06464344263076782,0.07661445438861847
1716738160946553600,5.2895537109375,9.794978141784668,0.06224924325942993,0.06224924325942993
1716738160956553700,5.2995537109375,9.794978141784668,0.05985504388809204,0.06464344263076782
1716738160966553600,5.3095537109375,9.773430824279785,0.06224924325942993,0.07182604819536209
1716738160976553700,5.3195537109375,9.811738014221191,0.035913024097681046,0.07422025501728058
1716738160986553600,5.3295537109375,9.790189743041992,0.047884032130241394,0.08379705995321274
1716738160996553700,5.3395537109375,9.783007621765137,0.06703764945268631,0.0694318488240242
1716738161006553600,5.3495537109375,9.783007621765137,0.0454898327589035,0.07661445438861847
1716738161016553700,5.3595537109375,9.792584419250488,0.06703764945268631,0.07661445438861847
1716738161026553600,5.3695537109375,9.797372817993164,0.06464344263076782,0.08140286058187485
1716738161036553700,5.3795537109375,9.794978141784668,0.05746084079146385,0.07422025501728058
1716738161046553600,5.3895537109375,9.778219223022461,0.07661445438861847,0.05746084079146385
1716738161056553700,5.3995537109375,9.785401344299316,0.06224924325942993,0.05985504388809204
1716738161066553600,5.4095537109375,9.792584419250488,0.05506663769483566,0.05985504388809204
1716738161076553700,5.4195537109375,9.787796020507812,0.06224924325942993,0.05027823522686958
1716738161086553600,5.4295537109375,9.787796020507812,0.05746084079146385,0.0694318488240242
1716738161096553700,5.4395537109375,9.80455493927002,0.06224924325942993,0.0454898327589035
1716738161106554000,5.44955419921875,9.78061294555664,0.0694318488240242,0.05746084079146385
1716738161116554200,5.45955419921875,9.78061294555664,0.05027823522686958,0.07661445438861847
1716738161126554000,5.46955419921875,9.80455493927002,0.06703764945268631,0.06464344263076782
1716738161136554200,5.47955419921875,9.797372817993164,0.0694318488240242,0.07422025501728058
1716738161146554000,5.48955419921875,9.785401344299316,0.047884032130241394,0.05985504388809204
1716738161156554200,5.49955419921875,9.783007621765137,0.047884032130241394,0.06703764945268631
1716738161166554000,5.50955419921875,9.790189743041992,0.05506663769483566,0.08379705995321274
1716738161176554200,5.51955419921875,9.773430824279785,0.05985504388809204,0.07661445438861847
1716738161186554000,5.52955419921875,9.785401344299316,0.0694318488240242,0.07661445438861847
1716738161196553700,5.5395537109375,9.785401344299316,0.047884032130241394,0.07422025501728058
1716738161206553900,5.549553955078125,9.799766540527344,0.043095629662275314,0.06464344263076782
1716738161216553700,5.5595537109375,9.811738014221191,0.047884032130241394,0.047884032130241394
1716738161226553900,5.569553955078125,9.792584419250488,0.05027823522686958,0.05985504388809204
1716738161236553700,5.5795537109375,9.78061294555664,0.05506663769483566,0.05985504388809204
1716738161246553900,5.589553955078125,9.797372817993164,0.05267243832349777,0.05746084079146385
1716738161256553700,5.5995537109375,9.809343338012695,0.05027823522686958,0.05985504388809204
1716738161266553900,5.609553955078125,9.787796020507812,0.05985504388809204,0.05506663769483566
1716738161276553700,5.6195537109375,9.790189743041992,0.06464344263076782,0.05267243832349777
1716738161286553900,5.629553955078125,9.790189743041992,0.06464344263076782,0.07422025501728058
1716738161296553700,5.6395537109375,9.794978141784668,0.040701430290937424,0.06464344263076782
1716738161306553900,5.649553955078125,9.799766540527344,0.05746084079146385,0.047884032130241394
1716738161316553700,5.6595537109375,9.78061294555664,0.05267243832349777,0.0694318488240242
1716738161326553900,5.669553955078125,9.785401344299316,0.05985504388809204,0.08619125932455063
1716738161336553700,5.6795537109375,9.790189743041992,0.0454898327589035,0.05506663769483566
1716738161346553900,5.689553955078125,9.80216121673584,0.0454898327589035,0.07182604819536209
1716738161356553700,5.6995537109375,9.787796020507812,0.05985504388809204,0.0694318488240242
1716738161366553900,5.709553955078125,9.787796020507812,0.0454898327589035,0.07422025501728058
1716738161376553700,5.7195537109375,9.785401344299316,0.06224924325942993,0.05506663769483566
1716738161386553900,5.729553955078125,9.790189743041992,0.026336219161748886,0.08379705995321274
1716738161396553700,5.7395537109375,9.794978141784668,0.06703764945268631,0.05985504388809204
1716738161406553900,5.749553955078125,9.78061294555664,0.05267243832349777,0.08619125932455063
1716738161416553700,5.7595537109375,9.794978141784668,0.06224924325942993,0.05985504388809204
1716738161426553900,5.769553955078125,9.787796020507812,0.05267243832349777,0.06224924325942993
1716738161436553700,5.7795537109375,9.787796020507812,0.047884032130241394,0.06703764945268631
1716738161446553900,5.789553955078125,9.799766540527344,0.038307227194309235,0.06464344263076782
1716738161456553700,5.7995537109375,9.799766540527344,0.05985504388809204,0.06464344263076782
1716738161466553900,5.809553955078125,9.783007621765137,0.05027823522686958,0.05746084079146385
1716738161476553700,5.8195537109375,9.792584419250488,0.05985504388809204,0.07422025501728058
1716738161486553900,5.829553955078125,9.80455493927002,0.05985504388809204,0.05746084079146385
1716738161496554200,5.83955419921875,9.785401344299316,0.05985504388809204,0.06224924325942993
1716738161506554000,5.84955419921875,9.792584419250488,0.05027823522686958,0.06464344263076782
1716738161516554200,5.85955419921875,9.792584419250488,0.05267243832349777,0.07900865375995636
1716738161526554000,5.86955419921875,9.80455493927002,0.033518824726343155,0.05985504388809204
1716738161536554200,5.87955419921875,9.792584419250488,0.035913024097681046,0.05027823522686958
1716738161546554000,5.88955419921875,9.809343338012695,0.047884032130241394,0.07900865375995636
1716738161556554200,5.89955419921875,9.799766540527344,0.05506663769483566,0.07422025501728058
1716738161566554000,5.90955419921875,9.794978141784668,0.06464344263076782,0.0694318488240242
1716738161576554200,5.91955419921875,9.787796020507812,0.047884032130241394,0.07422025501728058
1716738161586554000,5.92955419921875,9.799766540527344,0.05506663769483566,0.06224924325942993
1716738161596554200,5.93955419921875,9.792584419250488,0.05746084079146385,0.06703764945268631
1716738161606554000,5.94955419921875,9.790189743041992,0.05267243832349777,0.05506663769483566
1716738161616554200,5.95955419921875,9.794978141784668,0.05506663769483566,0.05746084079146385
1716738161626554000,5.96955419921875,9.78061294555664,0.06224924325942993,0.05267243832349777
1716738161636554200,5.97955419921875,9.790189743041992,0.05985504388809204,0.06703764945268631
1716738161646554000,5.98955419921875,9.794978141784668,0.047884032130241394,0.047884032130241394
1716738161656554200,5.99955419921875,9.790189743041992,0.05267243832349777,0.07182604819536209
1716738161666554000,6.00955419921875,9.797372817993164,0.05267243832349777,0.07661445438861847
1716738161676554200,6.01955419921875,9.785401344299316,0.047884032130241394,0.05267243832349777
1716738161686554000,6.02955419921875,9.797372817993164,0.05985504388809204,0.06464344263076782
1716738161696554200,6.03955419921875,9.794978141784668,0.06224924325942993,0.05985504388809204
1716738161706554000,6.04955419921875,9.794978141784668,0.043095629662275314,0.07182604819536209
1716738161716554200,6.05955419921875,9.778219223022461,0.05267243832349777,0.05027823522686958
1716738161726554000,6.06955419921875,9.797372817993164,0.06464344263076782,0.05985504388809204
1716738161736554200,6.07955419921875,9.787796020507812,0.06464344263076782,0.05027823522686958
1716738161746554000,6.08955419921875,9.790189743041992,0.05267243832349777,0.0694318488240242
1716738161756554200,6.09955419921875,9.785401344299316,0.05027823522686958,0.090979665517807
1716738161766554000,6.10955419921875,9.665691375732422,0.05027823522686958,0.07182604819536209
1716738161776554200,6.11955419921875,9.89314079284668,0.05267243832349777,0.05267243832349777
1716738161786554000,6.12955419921875,9.842862129211426,0.05985504388809204,0.07182604819536209
1716738161796554200,6.13955419921875,9.703998565673828,0.05746084079146385,0.05027823522686958
1716738161806554000,6.14955419921875,9.761459350585938,0.08140286058187485,0.05027823522686958
1716738161816554200,6.15955419921875,9.87159252166748,0.05267243832349777,0.06464344263076782
1716738161826554000,6.16955419921875,9.83568000793457,0.06224924325942993,0.043095629662275314
1716738161836554200,6.17955419921875,9.739912033081055,0.0454898327589035,0.07182604819536209
1716738161846554000,6.18955419921875,9.742305755615234,0.05506663769483566,0.06224924325942993
1716738161856554200,6.19955419921875,9.833285331726074,0.07182604819536209,0.05985504388809204
1716738161866554000,6.20955419921875,9.840468406677246,0.06464344263076782,0.06703764945268631
1716738161876554200,6.21955419921875,9.74470043182373,0.05746084079146385,0.06464344263076782
1716738161886554000,6.22955419921875,9.735123634338379,0.043095629662275314,0.0694318488240242
1716738161896554200,6.23955419921875,9.821314811706543,0.07182604819536209,0.05985504388809204
1716738161906554000,6.24955419921875,9.83568000793457,0.043095629662275314,0.090979665517807
1716738161916554200,6.25955419921875,9.766247749328613,0.047884032130241394,0.08140286058187485
1716738161926554000,6.26955419921875,9.737517356872559,0.05267243832349777,0.08858546614646912
1716738161936554200,6.27955419921875,9.816526412963867,0.07900865375995636,0.05027823522686958
1716738161946554000,6.28955419921875,9.823708534240723,0.06224924325942993,0.06464344263076782
1716738161956554200,6.29955419921875,9.761459350585938,0.040701430290937424,0.07661445438861847
1716738161966554000,6.30955419921875,9.756670951843262,0.047884032130241394,0.05027823522686958
1716738161976554200,6.31955419921875,9.806949615478516,0.06703764945268631,0.05267243832349777
1716738161986554000,6.32955419921875,9.818920135498047,0.06224924325942993,0.06703764945268631
1716738161996554200,6.33955419921875,9.775824546813965,0.06703764945268631,0.05267243832349777
1716738162006554000,6.34955419921875,9.773430824279785,0.06703764945268631,0.07182604819536209
1716738162016554200,6.35955419921875,9.797372817993164,0.06224924325942993,0.043095629662275314
1716738162026554000,6.36955419921875,9.821314811706543,0.07182604819536209,0.05027823522686958
1716738162036554200,6.37955419921875,9.773430824279785,0.07182604819536209,0.0454898327589035
1716738162046554000,6.38955419921875,9.756670951843262,0.05027823522686958,0.06224924325942993
1716738162056554200,6.39955419921875,9.787796020507812,0.06464344263076782,0.06703764945268631
1716738162066554000,6.40955419921875,9.80216121673584,0.06224924325942993,0.05985504388809204
1716738162076554200,6.41955419921875,9.78061294555664,0.05267243832349777,0.06703764945268631
1716738162086554000,6.42955419921875,9.754277229309082,0.031124621629714966,0.07661445438861847
1716738162096554200,6.43955419921875,9.80455493927002,0.07182604819536209,0.06464344263076782
1716738162106554000,6.44955419921875,9.823708534240723,0.05027823522686958,0.07661445438861847
1716738162116554200,6.45955419921875,9.787796020507812,0.06224924325942993,0.07422025501728058
1716738162126554000,6.46955419921875,9.775824546813965,0.05506663769483566,0.07661445438861847
1716738162136554200,6.47955419921875,9.797372817993164,0.05746084079146385,0.06464344263076782
1716738162146554000,6.48955419921875,9.797372817993164,0.06464344263076782,0.06703764945268631
1716738162156554200,6.49955419921875,9.775824546813965,0.05267243832349777,0.038307227194309235
1716738162166554000,6.50955419921875,9.766247749328613,0.07182604819536209,0.05746084079146385
1716738162176554200,6.51955419921875,9.792584419250488,0.06464344263076782,0.05267243832349777
1716738162186554000,6.52955419921875,9.806949615478516,0.06464344263076782,0.06703764945268631
1716738162196554200,6.53955419921875,9.785401344299316,0.047884032130241394,0.05267243832349777
1716738162206554000,6.54955419921875,9.778219223022461,0.038307227194309235,0.07422025501728058
1716738162216554200,6.55955419921875,9.783007621765137,0.07422025501728058,0.06464344263076782
1716738162226554000,6.56955419921875,9.794978141784668,0.05985504388809204,0.05027823522686958
1716738162236554200,6.57955419921875,9.785401344299316,0.05267243832349777,0.06224924325942993
1716738162246554000,6.58955419921875,9.790189743041992,0.06464344263076782,0.05985504388809204
1716738162256554200,6.59955419921875,9.80216121673584,0.06464344263076782,0.0694318488240242
1716738162266554000,6.60955419921875,9.792584419250488,0.05985504388809204,0.0694318488240242
1716738162276554200,6.61955419921875,9.790189743041992,0.05746084079146385,0.07661445438861847
1716738162286554000,6.62955419921875,9.785401344299316,0.05267243832349777,0.07900865375995636
1716738162296554200,6.63955419921875,9.80455493927002,0.047884032130241394,0.06464344263076782
1716738162306554000,6.64955419921875,9.783007621765137,0.06224924325942993,0.07422025501728058
1716738162316554200,6.65955419921875,9.775824546813965,0.05267243832349777,0.0454898327589035
1716738162326554000,6.66955419921875,9.790189743041992,0.05267243832349777,0.05746084079146385
1716738162336554200,6.67955419921875,9.794978141784668,0.05506663769483566,0.0694318488240242
1716738162346554000,6.68955419921875,9.787796020507812,0.05267243832349777,0.05027823522686958
1716738162356554200,6.69955419921875,9.78061294555664,0.05267243832349777,0.05985504388809204
1716738162366554000,6.70955419921875,9.783007621765137,0.06703764945268631,0.06224924325942993
1716738162376554200,6.71955419921875,9.799766540527344,0.06464344263076782,0.05267243832349777
1716738162386554000,6.72955419921875,9.792584419250488,0.047884032130241394,0.05985504388809204
1716738162396554200,6.73955419921875,9.785401344299316,0.047884032130241394,0.05746084079146385
1716738162406554000,6.74955419921875,9.778219223022461,0.0454898327589035,0.05985504388809204
1716738162416554200,6.75955419921875,9.799766540527344,0.047884032130241394,0.06703764945268631
1716738162426554000,6.76955419921875,9.794978141784668,0.06703764945268631,0.05985504388809204
1716738162436554200,6.77955419921875,9.794978141784668,0.05506663769483566,0.05267243832349777
1716738162446554000,6.78955419921875,9.775824546813965,0.06703764945268631,0.06703764945268631
1716738162456554200,6.79955419921875,9.78061294555664,0.05506663769483566,0.0694318488240242
1716738162466554000,6.80955419921875,9.799766540527344,0.047884032130241394,0.05506663769483566
1716738162476554200,6.81955419921875,9.778219223022461,0.05985504388809204,0.06464344263076782
1716738162486554000,6.82955419921875,9.775824546813965,0.05985504388809204,0.07900865375995636
1716738162496554200,6.83955419921875,9.787796020507812,0.05746084079146385,0.07900865375995636
1716738162506554000,6.84955419921875,9.787796020507812,0.0454898327589035,0.06703764945268631
1716738162516554200,6.85955419921875,9.78061294555664,0.05746084079146385,0.07661445438861847
1716738162526554000,6.86955419921875,9.771036148071289,0.05985504388809204,0.0694318488240242
1716738162536554200,6.87955419921875,9.790189743041992,0.05506663769483566,0.0694318488240242
1716738162546554000,6.88955419921875,9.787796020507812,0.047884032130241394,0.05746084079146385
1716738162556554200,6.89955419921875,9.773430824279785,0.06224924325942993,0.05985504388809204
1716738162566554000,6.90955419921875,9.792584419250488,0.06224924325942993,0.0694318488240242
1716738162576554200,6.91955419921875,9.785401344299316,0.05985504388809204,0.06703764945268631
1716738162586554000,6.92955419921875,9.80216121673584,0.05267243832349777,0.05506663769483566
1716738162596554200,6.93955419921875,9.797372817993164,0.06224924325942993,0.07422025501728058
1716738162606554000,6.94955419921875,9.797372817993164,0.05746084079146385,0.06224924325942993
1716738162616554200,6.95955419921875,9.783007621765137,0.06464344263076782,0.05746084079146385
1716738162626554000,6.96955419921875,9.790189743041992,0.05506663769483566,0.07661445438861847
1716738162636554200,6.97955419921875,9.778219223022461,0.06224924325942993,0.05027823522686958
1716738162646554000,6.98955419921875,9.778219223022461,0.05027823522686958,0.05985504388809204
1716738162656554200,6.99955419921875,9.785401344299316,0.043095629662275314,0.05506663769483566
1716738162666554000,7.00955419921875,9.78061294555664,0.06224924325942993,0.06464344263076782
1716738162676554200,7.01955419921875,9.787796020507812,0.05267243832349777,0.07182604819536209
1716738162686554000,7.02955419921875,9.775824546813965,0.06224924325942993,0.05746084079146385
1716738162696554200,7.03955419921875,9.790189743041992,0.05267243832349777,0.06703764945268631
1716738162706554000,7.04955419921875,9.785401344299316,0.06224924325942993,0.06464344263076782
1716738162716554200,7.05955419921875,9.78061294555664,0.05027823522686958,0.0454898327589035
1716738162726554000,7.06955419921875,9.790189743041992,0.047884032130241394,0.06224924325942993
1716738162736554200,7.07955419921875,9.78061294555664,0.05506663769483566,0.06464344263076782
1716738162746554000,7.08955419921875,9.792584419250488,0.06224924325942993,0.05267243832349777
1716738162756554200,7.09955419921875,9.785401344299316,0.043095629662275314,0.05985504388809204
1716738162766554000,7.10955419921875,9.792584419250488,0.05746084079146385,0.033518824726343155
1716738162776554200,7.11955419921875,9.783007621765137,0.047884032130241394,0.06224924325942993
1716738162786554000,7.12955419921875,9.794978141784668,0.05027823522686958,0.07422025501728058
1716738162796554200,7.13955419921875,9.773430824279785,0.0454898327589035,0.07182604819536209
1716738162806554000,7.14955419921875,9.78061294555664,0.05027823522686958,0.05027823522686958
1716738162816554200,7.15955419921875,9.790189743041992,0.05267243832349777,0.05985504388809204
1716738162826554000,7.16955419921875,9.783007621765137,0.06224924325942993,0.06224924325942993
1716738162836554200,7.17955419921875,9.778219223022461,0.06464344263076782,0.05267243832349777
1716738162846554000,7.18955419921875,9.76864242553711,0.047884032130241394,0.06464344263076782
1716738162856554200,7.19955419921875,9.818920135498047,0.0454898327589035,0.05506663769483566
1716738162866554000,7.20955419921875,9.799766540527344,0.047884032130241394,0.07182604819536209
1716738162876554200,7.21955419921875,9.74470043182373,0.0454898327589035,0.05746084079146385
1716738162886554000,7.22955419921875,9.773430824279785,0.05506663769483566,0.05267243832349777
1716738162896554200,7.23955419921875,9.828496932983398,0.06703764945268631,0.05985504388809204
1716738162906554000,7.24955419921875,9.799766540527344,0.05746084079146385,0.0454898327589035
1716738162916554200,7.25955419921875,9.771036148071289,0.0454898327589035,0.0694318488240242
1716738162926554000,7.26955419921875,9.775824546813965,0.043095629662275314,0.07182604819536209
1716738162936554200,7.27955419921875,9.818920135498047,0.05506663769483566,0.05267243832349777
1716738162946554000,7.28955419921875,9.799766540527344,0.05027823522686958,0.05267243832349777
1716738162956554200,7.29955419921875,9.759065628051758,0.05506663769483566,0.05985504388809204
1716738162966554000,7.30955419921875,9.720758438110352,0.06224924325942993,0.0694318488240242
1716738162976554200,7.31955419921875,9.814131736755371,0.05746084079146385,0.06224924325942993
1716738162986554000,7.32955419921875,9.830891609191895,0.0454898327589035,0.08140286058187485
1716738162996554200,7.33955419921875,9.778219223022461,0.043095629662275314,0.05506663769483566
1716738163006554000,7.34955419921875,9.739912033081055,0.038307227194309235,0.0694318488240242
1716738163016554200,7.35955419921875,9.792584419250488,0.05746084079146385,0.06224924325942993
1716738163026554000,7.36955419921875,9.840468406677246,0.040701430290937424,0.07900865375995636
1716738163036554200,7.37955419921875,9.775824546813965,0.05746084079146385,0.038307227194309235
1716738163046554000,7.38955419921875,9.74709415435791,0.05746084079146385,0.05985504388809204
1716738163056554200,7.39955419921875,9.806949615478516,0.06703764945268631,0.07422025501728058
1716738163066554000,7.40955419921875,9.818920135498047,0.05506663769483566,0.07182604819536209
1716738163076554200,7.41955419921875,9.771036148071289,0.06703764945268631,0.07900865375995636
1716738163086554000,7.42955419921875,9.766247749328613,0.05027823522686958,0.07900865375995636
1716738163096554200,7.43955419921875,9.794978141784668,0.06703764945268631,0.07422025501728058
1716738163106554000,7.44955419921875,9.80216121673584,0.0694318488240242,0.043095629662275314
1716738163116554200,7.45955419921875,9.790189743041992,0.05267243832349777,0.047884032130241394
1716738163126554000,7.46955419921875,9.761459350585938,0.05985504388809204,0.05746084079146385
1716738163136554200,7.47955419921875,9.809343338012695,0.05506663769483566,0.05267243832349777
1716738163146554000,7.48955419921875,9.823708534240723,0.0694318488240242,0.0454898327589035
1716738163156554200,7.49955419921875,9.785401344299316,0.0694318488240242,0.06464344263076782
1716738163166554000,7.50955419921875,9.763854026794434,0.05746084079146385,0.06224924325942993
1716738163176554200,7.51955419921875,9.792584419250488,0.07182604819536209,0.05985504388809204
1716738163186554000,7.52955419921875,9.797372817993164,0.05746084079146385,0.07182604819536209
1716738163196554200,7.53955419921875,9.787796020507812,0.05746084079146385,0.05746084079146385
1716738163206554000,7.54955419921875,9.759065628051758,0.05267243832349777,0.08619125932455063
1716738163216554200,7.55955419921875,9.787796020507812,0.043095629662275314,0.06464344263076782
1716738163226554000,7.56955419921875,9.80455493927002,0.047884032130241394,0.05746084079146385
1716738163236554200,7.57955419921875,9.773430824279785,0.05985504388809204,0.07422025501728058
1716738163246554000,7.58955419921875,9.771036148071289,0.05506663769483566,0.06703764945268631
1716738163256554200,7.59955419921875,9.775824546813965,0.0694318488240242,0.07182604819536209
1716738163266554000,7.60955419921875,9.806949615478516,0.05506663769483566,0.07182604819536209
1716738163276554200,7.61955419921875,9.80216121673584,0.05027823522686958,0.07900865375995636
1716738163286554000,7.62955419921875,9.76864242553711,0.0454898327589035,0.05746084079146385
1716738163296554200,7.63955419921875,9.794978141784668,0.06703764945268631,0.047884032130241394
1716738163306554000,7.64955419921875,9.80455493927002,0.05267243832349777,0.05267243832349777
1716738163316554200,7.65955419921875,9.787796020507812,0.05746084079146385,0.05746084079146385
1716738163326554000,7.66955419921875,9.773430824279785,0.05027823522686958,0.05027823522686958
1716738163336554200,7.67955419921875,9.783007621765137,0.05027823522686958,0.06703764945268631
1716738163346554000,7.68955419921875,9.794978141784668,0.05746084079146385,0.07422025501728058
1716738163356554200,7.69955419921875,9.78061294555664,0.0454898327589035,0.05267243832349777
1716738163366554000,7.70955419921875,9.775824546813965,0.05985504388809204,0.07422025501728058
1716738163376554200,7.71955419921875,9.775824546813965,0.047884032130241394,0.07182604819536209
1716738163386554000,7.72955419921875,9.790189743041992,0.05027823522686958,0.0454898327589035
1716738163396554200,7.73955419921875,9.790189743041992,0.07661445438861847,0.07182604819536209
1716738163406554000,7.74955419921875,9.763854026794434,0.06224924325942993,0.05985504388809204
1716738163416554200,7.75955419921875,9.775824546813965,0.047884032130241394,0.038307227194309235
1716738163426554000,7.76955419921875,9.797372817993164,0.05985504388809204,0.05746084079146385
1716738163436554200,7.77955419921875,9.790189743041992,0.043095629662275314,0.0694318488240242
1716738163446554000,7.78955419921875,9.78061294555664,0.038307227194309235,0.05746084079146385
1716738163456554200,7.79955419921875,9.76864242553711,0.05985504388809204,0.06464344263076782
1716738163466554000,7.80955419921875,9.775824546813965,0.05985504388809204,0.0694318488240242
1716738163476554200,7.81955419921875,9.763854026794434,0.05027823522686958,0.05746084079146385
1716738163486554000,7.82955419921875,9.766247749328613,0.06703764945268631,0.05985504388809204
1716738163496554200,7.83955419921875,9.785401344299316,0.06703764945268631,0.05985504388809204
1716738163506554000,7.84955419921875,9.787796020507812,0.0454898327589035,0.043095629662275314
1716738163516554200,7.85955419921875,9.787796020507812,0.047884032130241394,0.05506663769483566
1716738163526553900,7.869553955078125,9.773430824279785,0.05027823522686958,0.06224924325942993
1716738163536553700,7.8795537109375,9.78061294555664,0.05267243832349777,0.05985504388809204
1716738163546553900,7.889553955078125,9.794978141784668,0.05027823522686958,0.0694318488240242
1716738163556553700,7.8995537109375,9.78061294555664,0.05746084079146385,0.06703764945268631
1716738163566553900,7.909553955078125,9.794978141784668,0.05027823522686958,0.07182604819536209
1716738163576553700,7.9195537109375,9.785401344299316,0.043095629662275314,0.07661445438861847
1716738163586553900,7.929553955078125,9.771036148071289,0.047884032130241394,0.05267243832349777
1716738163596553700,7.9395537109375,9.785401344299316,0.0454898327589035,0.07182604819536209
1716738163606553900,7.949553955078125,9.778219223022461,0.05746084079146385,0.07661445438861847
1716738163616553700,7.9595537109375,9.778219223022461,0.033518824726343155,0.07900865375995636
1716738163626553900,7.969553955078125,9.787796020507812,0.038307227194309235,0.06703764945268631
1716738163636553700,7.9795537109375,9.792584419250488,0.040701430290937424,0.06224924325942993
1716738163646553900,7.989553955078125,9.78061294555664,0.05267243832349777,0.05985504388809204
1716738163656553700,7.9995537109375,9.790189743041992,0.05746084079146385,0.05027823522686958
1716738163666553900,8.009553955078125,9.78061294555664,0.05985504388809204,0.05506663769483566
1716738163676553700,8.0195537109375,9.773430824279785,0.05267243832349777,0.07182604819536209
1716738163686553900,8.029553955078125,9.771036148071289,0.07182604819536209,0.05506663769483566
1716738163696553700,8.0395537109375,9.790189743041992,0.043095629662275314,0.05985504388809204
1716738163706553900,8.049553955078125,9.794978141784668,0.047884032130241394,0.07182604819536209
1716738163716553700,8.0595537109375,9.787796020507812,0.05267243832349777,0.07900865375995636
1716738163726553900,8.069553955078124,9.787796020507812,0.040701430290937424,0.07661445438861847
1716738163736553700,8.0795537109375,9.787796020507812,0.05027823522686958,0.07422025501728058
1716738163746553900,8.089553955078125,9.787796020507812,0.0454898327589035,0.06464344263076782
1716738163756553700,8.0995537109375,9.775824546813965,0.05506663769483566,0.05746084079146385
1716738163766553900,8.109553955078125,9.792584419250488,0.05746084079146385,0.05267243832349777
1716738163776553700,8.1195537109375,9.785401344299316,0.05267243832349777,0.06464344263076782
1716738163786553900,8.129553955078125,9.790189743041992,0.040701430290937424,0.07182604819536209
1716738163796553700,8.1395537109375,9.790189743041992,0.043095629662275314,0.07182604819536209
1716738163806553900,8.149553955078124,9.78061294555664,0.06224924325942993,0.0694318488240242
1716738163816553700,8.1595537109375,9.797372817993164,0.0454898327589035,0.05506663769483566
1716738163826554000,8.16955419921875,9.790189743041992,0.0694318488240242,0.05985504388809204
1716738163836554200,8.17955419921875,9.723152160644531,0.06703764945268631,0.06224924325942993
1716738163846554000,8.18955419921875,9.936236381530762,0.05267243832349777,0.05746084079146385
1716738163856554200,8.19955419921875,9.78061294555664,0.043095629662275314,0.043095629662275314
1716738163866554000,8.20955419921875,9.646537780761719,0.05506663769483566,0.06464344263076782
1716738163876554200,8.21955419921875,9.778219223022461,0.05027823522686958,0.07661445438861847
1716738163886554000,8.22955419921875,9.933841705322266,0.05746084079146385,0.06464344263076782
1716738163896554200,8.23955419921875,9.83807373046875,0.0454898327589035,0.06464344263076782
1716738163906554000,8.24955419921875,9.670479774475098,0.06464344263076782,0.0694318488240242
1716738163916554200,8.25955419921875,9.751882553100586,0.08140286058187485,0.06703764945268631
1716738163926554000,8.26955419921875,9.883563995361328,0.07182604819536209,0.05267243832349777
1716738163936554200,8.27955419921875,9.80455493927002,0.05267243832349777,0.0454898327589035
1716738163946554000,8.28955419921875,9.668086051940918,0.043095629662275314,0.06703764945268631
1716738163956554200,8.29955419921875,9.76864242553711,0.05985504388809204,0.05985504388809204
1716738163966554000,8.30955419921875,9.897929191589355,0.05985504388809204,0.07182604819536209
1716738163976554200,8.31955419921875,9.809343338012695,0.06703764945268631,0.07182604819536209
1716738163986554000,8.32955419921875,9.6896333694458,0.06224924325942993,0.0694318488240242
1716738163996554200,8.33955419921875,9.751882553100586,0.0694318488240242,0.0694318488240242
1716738164006554000,8.34955419921875,9.876380920410156,0.06224924325942993,0.06224924325942993
1716738164016554200,8.35955419921875,9.790189743041992,0.043095629662275314,0.05985504388809204
1716738164026554000,8.36955419921875,9.696816444396973,0.047884032130241394,0.06464344263076782
1716738164036554200,8.37955419921875,9.771036148071289,0.06224924325942993,0.043095629662275314
1716738164046554000,8.38955419921875,9.862015724182129,0.06703764945268631,0.05267243832349777
1716738164056554200,8.39955419921875,9.821314811706543,0.06224924325942993,0.06703764945268631
1716738164066554000,8.40955419921875,9.725546836853027,0.07422025501728058,0.05746084079146385
1716738164076554200,8.41955419921875,9.742305755615234,0.07422025501728058,0.05746084079146385
1716738164086554000,8.42955419921875,9.850045204162598,0.05746084079146385,0.047884032130241394
1716738164096554200,8.43955419921875,9.814131736755371,0.040701430290937424,0.05746084079146385
1716738164106554000,8.44955419921875,9.739912033081055,0.0694318488240242,0.05746084079146385
1716738164116554200,8.45955419921875,9.756670951843262,0.05985504388809204,0.07182604819536209
1716738164126554000,8.46955419921875,9.840468406677246,0.06224924325942993,0.07422025501728058
1716738164136554200,8.47955419921875,9.814131736755371,0.06224924325942993,0.05746084079146385
1716738164146554000,8.48955419921875,9.749488830566406,0.05027823522686958,0.07900865375995636
1716738164156554200,8.49955419921875,9.756670951843262,0.05267243832349777,0.05746084079146385
1716738164166554000,8.50955419921875,9.823708534240723,0.05985504388809204,0.05027823522686958
1716738164176554200,8.51955419921875,9.814131736755371,0.047884032130241394,0.06703764945268631
1716738164186554000,8.52955419921875,9.761459350585938,0.0454898327589035,0.06464344263076782
1716738164196554200,8.53955419921875,9.759065628051758,0.05746084079146385,0.05746084079146385
1716738164206554000,8.54955419921875,9.809343338012695,0.0694318488240242,0.043095629662275314
1716738164216554200,8.55955419921875,9.814131736755371,0.05746084079146385,0.06224924325942993
1716738164226554000,8.56955419921875,9.751882553100586,0.07661445438861847,0.0694318488240242
1716738164236554200,8.57955419921875,9.754277229309082,0.05985504388809204,0.05985504388809204
1716738164246553900,8.589553955078125,9.818920135498047,0.08140286058187485,0.0454898327589035
1716738164256553700,8.5995537109375,9.797372817993164,0.06224924325942993,0.05746084079146385
1716738164266553900,8.609553955078125,9.751882553100586,0.047884032130241394,0.06224924325942993
1716738164276553700,8.6195537109375,9.761459350585938,0.05506663769483566,0.06703764945268631
1716738164286553900,8.629553955078125,9.80216121673584,0.0694318488240242,0.05985504388809204
1716738164296553700,8.6395537109375,9.809343338012695,0.05746084079146385,0.05506663769483566
1716738164306553900,8.649553955078124,9.778219223022461,0.0454898327589035,0.05985504388809204
1716738164316553700,8.6595537109375,9.771036148071289,0.06464344263076782,0.06703764945268631
1716738164326553900,8.669553955078126,9.785401344299316,0.06224924325942993,0.06224924325942993
1716738164336553700,8.6795537109375,9.797372817993164,0.05267243832349777,0.05267243832349777
1716738164346553900,8.689553955078125,9.778219223022461,0.047884032130241394,0.0694318488240242
1716738164356553700,8.6995537109375,9.771036148071289,0.07182604819536209,0.06464344263076782
1716738164366553900,8.709553955078125,9.790189743041992,0.038307227194309235,0.08140286058187485
1716738164376553700,8.7195537109375,9.797372817993164,0.05985504388809204,0.07182604819536209
1716738164386553900,8.729553955078124,9.790189743041992,0.05985504388809204,0.05267243832349777
1716738164396553700,8.7395537109375,9.773430824279785,0.05027823522686958,0.07661445438861847
1716738164406553900,8.749553955078126,9.794978141784668,0.07422025501728058,0.07661445438861847
1716738164416553700,8.7595537109375,9.794978141784668,0.05746084079146385,0.0694318488240242
1716738164426553900,8.769553955078125,9.78061294555664,0.05985504388809204,0.07182604819536209
1716738164436553700,8.7795537109375,9.771036148071289,0.05267243832349777,0.05506663769483566
1716738164446553900,8.789553955078125,9.799766540527344,0.05746084079146385,0.05985504388809204
1716738164456553700,8.7995537109375,9.787796020507812,0.05746084079146385,0.047884032130241394
1716738164466553900,8.809553955078124,9.761459350585938,0.06464344263076782,0.06224924325942993
1716738164476553700,8.8195537109375,9.773430824279785,0.06224924325942993,0.047884032130241394
1716738164486553900,8.829553955078126,9.794978141784668,0.043095629662275314,0.043095629662275314
1716738164496553700,8.8395537109375,9.80455493927002,0.047884032130241394,0.06464344263076782
1716738164506553900,8.849553955078125,9.778219223022461,0.05746084079146385,0.0694318488240242
1716738164516553700,8.8595537109375,9.783007621765137,0.06703764945268631,0.07182604819536209
1716738164526553900,8.869553955078125,9.799766540527344,0.05746084079146385,0.0694318488240242
1716738164536553700,8.8795537109375,9.785401344299316,0.0454898327589035,0.05267243832349777
1716738164546554000,8.88955419921875,9.778219223022461,0.05746084079146385,0.05267243832349777
1716738164556554200,8.89955419921875,9.771036148071289,0.05027823522686958,0.05985504388809204
1716738164566554000,8.90955419921875,9.799766540527344,0.06464344263076782,0.06224924325942993
1716738164576554200,8.91955419921875,9.794978141784668,0.05506663769483566,0.08140286058187485
1716738164586554000,8.92955419921875,9.785401344299316,0.043095629662275314,0.05985504388809204
1716738164596554200,8.93955419921875,9.787796020507812,0.05985504388809204,0.0694318488240242
1716738164606554000,8.94955419921875,9.778219223022461,0.05027823522686958,0.06703764945268631
1716738164616554200,8.95955419921875,9.792584419250488,0.0454898327589035,0.05746084079146385
1716738164626554000,8.96955419921875,9.778219223022461,0.05027823522686958,0.06224924325942993
1716738164636554200,8.97955419921875,9.78061294555664,0.047884032130241394,0.047884032130241394
1716738164646554000,8.98955419921875,9.787796020507812,0.06224924325942993,0.06703764945268631
1716738164656554200,8.99955419921875,9.794978141784668,0.06464344263076782,0.06224924325942993
1716738164666554000,9.00955419921875,9.790189743041992,0.05985504388809204,0.06464344263076782
1716738164676554200,9.01955419921875,9.792584419250488,0.043095629662275314,0.05985504388809204
1716738164686554000,9.02955419921875,9.790189743041992,0.05746084079146385,0.06464344263076782
1716738164696554200,9.03955419921875,9.778219223022461,0.0454898327589035,0.05985504388809204
1716738164706554000,9.04955419921875,9.761459350585938,0.05746084079146385,0.07422025501728058
1716738164716554200,9.05955419921875,9.783007621765137,0.0454898327589035,0.06464344263076782
1716738164726554000,9.06955419921875,9.790189743041992,0.05506663769483566,0.0694318488240242
1716738164736554200,9.07955419921875,9.785401344299316,0.05027823522686958,0.07182604819536209
1716738164746554000,9.08955419921875,9.773430824279785,0.05746084079146385,0.05506663769483566
1716738164756554200,9.09955419921875,9.778219223022461,0.05267243832349777,0.05746084079146385
1716738164766554000,9.10955419921875,9.785401344299316,0.06703764945268631,0.047884032130241394
1716738164776554200,9.11955419921875,9.787796020507812,0.0694318488240242,0.05746084079146385
1716738164786554000,9.12955419921875,9.794978141784668,0.040701430290937424,0.0454898327589035
1716738164796554200,9.13955419921875,9.783007621765137,0.05746084079146385,0.0694318488240242
1716738164806554000,9.14955419921875,9.778219223022461,0.06464344263076782,0.05746084079146385
1716738164816554200,9.15955419921875,9.78061294555664,0.05267243832349777,0.05506663769483566
1716738164826554000,9.16955419921875,9.771036148071289,0.06464344263076782,0.06703764945268631
1716738164836554200,9.17955419921875,9.76864242553711,0.07182604819536209,0.06703764945268631
1716738164846554000,9.18955419921875,9.773430824279785,0.05506663769483566,0.05506663769483566
1716738164856554200,9.19955419921875,9.703998565673828,0.07422025501728058,0.06703764945268631
1716738164866554000,9.20955419921875,9.914688110351562,0.06224924325942993,0.06703764945268631
1716738164876554200,9.21955419921875,9.87159252166748,0.033518824726343155,0.0694318488240242
1716738164886554000,9.22955419921875,9.634567260742188,0.047884032130241394,0.06703764945268631
1716738164896554200,9.23955419921875,9.732728958129883,0.05267243832349777,0.08619125932455063
1716738164906554000,9.24955419921875,9.938630104064941,0.05746084079146385,0.07661445438861847
1716738164916554200,9.25955419921875,9.8691987991333,0.05985504388809204,0.07182604819536209
1716738164926554000,9.26955419921875,9.694421768188477,0.05746084079146385,0.05985504388809204
1716738164936554200,9.27955419921875,9.708786964416504,0.06224924325942993,0.040701430290937424
1716738164946554000,9.28955419921875,9.864410400390625,0.06703764945268631,0.06464344263076782
1716738164956554200,9.29955419921875,9.873987197875977,0.043095629662275314,0.05027823522686958
1716738164966554000,9.30955419921875,9.692028045654297,0.035913024097681046,0.05985504388809204
1716738164976554200,9.31955419921875,9.706393241882324,0.05985504388809204,0.05267243832349777
1716738164986554000,9.32955419921875,9.888352394104004,0.0454898327589035,0.05027823522686958
1716738164996554200,9.33955419921875,9.857227325439453,0.05985504388809204,0.06703764945268631
1716738165006554000,9.34955419921875,9.703998565673828,0.05506663769483566,0.06224924325942993
1716738165016554200,9.35955419921875,9.711181640625,0.05746084079146385,0.0694318488240242
1716738165026554000,9.36955419921875,9.852438926696777,0.05746084079146385,0.06703764945268631
1716738165036554200,9.37955419921875,9.854833602905273,0.05506663769483566,0.05506663769483566
1716738165046554000,9.38955419921875,9.732728958129883,0.047884032130241394,0.05746084079146385
1716738165056554200,9.39955419921875,9.715970039367676,0.05027823522686958,0.06703764945268631
1716738165066554000,9.40955419921875,9.828496932983398,0.05506663769483566,0.06464344263076782
1716738165076554200,9.41955419921875,9.845256805419922,0.07900865375995636,0.07661445438861847
1716738165086554000,9.42955419921875,9.74709415435791,0.043095629662275314,0.07422025501728058
1716738165096554200,9.43955419921875,9.730335235595703,0.07182604819536209,0.0694318488240242
1716738165106554000,9.44955419921875,9.821314811706543,0.0454898327589035,0.05267243832349777
1716738165116554200,9.45955419921875,9.852438926696777,0.05506663769483566,0.05267243832349777
1716738165126554000,9.46955419921875,9.754277229309082,0.05985504388809204,0.043095629662275314
1716738165136554200,9.47955419921875,9.742305755615234,0.05985504388809204,0.06224924325942993
1716738165146554000,9.48955419921875,9.814131736755371,0.06464344263076782,0.035913024097681046
1716738165156554200,9.49955419921875,9.83807373046875,0.06464344263076782,0.043095629662275314
1716738165166554000,9.50955419921875,9.759065628051758,0.05506663769483566,0.05985504388809204
1716738165176554200,9.51955419921875,9.74470043182373,0.06703764945268631,0.06224924325942993
1716738165186554000,9.52955419921875,9.816526412963867,0.06224924325942993,0.05267243832349777
1716738165196554200,9.53955419921875,9.821314811706543,0.06224924325942993,0.06464344263076782
1716738165206554000,9.54955419921875,9.773430824279785,0.047884032130241394,0.05506663769483566
1716738165216554200,9.55955419921875,9.74470043182373,0.06224924325942993,0.047884032130241394
1716738165226554000,9.56955419921875,9.794978141784668,0.06224924325942993,0.06224924325942993
1716738165236554200,9.57955419921875,9.833285331726074,0.06224924325942993,0.05985504388809204
1716738165246554000,9.58955419921875,9.773430824279785,0.05985504388809204,0.05746084079146385
1716738165256554200,9.59955419921875,9.754277229309082,0.05027823522686958,0.08140286058187485
1716738165266554000,9.60955419921875,9.799766540527344,0.06464344263076782,0.07422025501728058
1716738165276554200,9.61955419921875,9.821314811706543,0.06464344263076782,0.05267243832349777
1716738165286554000,9.62955419921875,9.766247749328613,0.040701430290937424,0.07422025501728058
1716738165296554200,9.63955419921875,9.76864242553711,0.043095629662275314,0.08858546614646912
1716738165306554000,9.64955419921875,9.806949615478516,0.047884032130241394,0.05746084079146385
1716738165316554200,9.65955419921875,9.806949615478516,0.05746084079146385,0.06464344263076782
1716738165326554000,9.66955419921875,9.76864242553711,0.047884032130241394,0.05506663769483566
1716738165336554200,9.67955419921875,9.771036148071289,0.05267243832349777,0.06703764945268631
1716738165346554000,9.68955419921875,9.80216121673584,0.06464344263076782,0.05985504388809204
1716738165356554200,9.69955419921875,9.809343338012695,0.038307227194309235,0.06464344263076782
1716738165366554000,9.70955419921875,9.78061294555664,0.05985504388809204,0.06464344263076782
1716738165376554200,9.71955419921875,9.766247749328613,0.043095629662275314,0.05506663769483566
1716738165386554000,9.72955419921875,9.797372817993164,0.05746084079146385,0.06224924325942993
1716738165396554200,9.73955419921875,9.797372817993164,0.06703764945268631,0.05267243832349777
1716738165406554000,9.74955419921875,9.783007621765137,0.06464344263076782,0.05746084079146385
1716738165416554200,9.75955419921875,9.766247749328613,0.05267243832349777,0.05506663769483566
1716738165426554000,9.76955419921875,9.785401344299316,0.05506663769483566,0.06464344263076782
1716738165436554200,9.77955419921875,9.816526412963867,0.05027823522686958,0.05267243832349777
1716738165446554000,9.78955419921875,9.792584419250488,0.05267243832349777,0.07900865375995636
1716738165456554200,9.79955419921875,9.778219223022461,0.07182604819536209,0.07661445438861847
1716738165466554000,9.80955419921875,9.799766540527344,0.06224924325942993,0.05746084079146385
1716738165476554200,9.81955419921875,9.80455493927002,0.05985504388809204,0.07422025501728058
1716738165486554000,9.82955419921875,9.785401344299316,0.031124621629714966,0.07661445438861847
1716738165496554200,9.83955419921875,9.763854026794434,0.05985504388809204,0.05027823522686958
1716738165506554000,9.84955419921875,9.787796020507812,0.05506663769483566,0.06464344263076782
1716738165516554200,9.85955419921875,9.794978141784668,0.07900865375995636,0.05985504388809204
1716738165526553900,9.869553955078125,9.787796020507812,0.040701430290937424,0.06703764945268631
1716738165536553700,9.8795537109375,9.773430824279785,0.038307227194309235,0.05746084079146385
1716738165546553900,9.889553955078124,9.794978141784668,0.07182604819536209,0.06703764945268631
1716738165556553700,9.8995537109375,9.80455493927002,0.05027823522686958,0.0454898327589035
1716738165566553900,9.909553955078126,9.80216121673584,0.05985504388809204,0.06703764945268631
1716738165576553700,9.9195537109375,9.775824546813965,0.05506663769483566,0.06224924325942993
1716738165586553900,9.929553955078125,9.794978141784668,0.05506663769483566,0.06224924325942993
1716738165596553700,9.9395537109375,9.792584419250488,0.05985504388809204,0.05746084079146385
1716738165606553900,9.949553955078125,9.797372817993164,0.06224924325942993,0.06703764945268631
1716738165616553700,9.9595537109375,9.785401344299316,0.035913024097681046,0.05506663769483566
1716738165626553900,9.969553955078124,9.797372817993164,0.06703764945268631,0.047884032130241394
1716738165636553700,9.9795537109375,9.797372817993164,0.05746084079146385,0.06703764945268631
1716738165646553900,9.989553955078126,9.771036148071289,0.05506663769483566,0.05506663769483566
1716738165656553700,9.9995537109375,9.773430824279785,0.035913024097681046,0.0454898327589035
1716738165666553900,10.009553955078125,9.792584419250488,0.06703764945268631,0.06464344263076782
1716738165676553700,10.0195537109375,9.787796020507812,0.05746084079146385,0.05985504388809204
1716738165686553900,10.029553955078125,9.80216121673584,0.07661445438861847,0.0454898327589035
1716738165696553700,10.0395537109375,9.778219223022461,0.06464344263076782,0.05746084079146385
1716738165706553900,10.049553955078125,9.797372817993164,0.05027823522686958,0.07182604819536209
1716738165716553700,10.0595537109375,9.785401344299316,0.06703764945268631,0.047884032130241394
1716738165726553900,10.069553955078124,9.790189743041992,0.05267243832349777,0.047884032130241394
1716738165736553700,10.0795537109375,9.785401344299316,0.043095629662275314,0.06224924325942993
1716738165746553900,10.089553955078125,9.799766540527344,0.05267243832349777,0.07422025501728058
1716738165756553700,10.0995537109375,9.794978141784668,0.047884032130241394,0.05267243832349777
1716738165766553900,10.109553955078125,9.794978141784668,0.06224924325942993,0.05985504388809204
1716738165776553700,10.1195537109375,9.785401344299316,0.0694318488240242,0.05267243832349777
1716738165786553900,10.129553955078125,9.785401344299316,0.05506663769483566,0.08379705995321274
1716738165796553700,10.1395537109375,9.792584419250488,0.06464344263076782,0.06464344263076782
1716738165806553900,10.149553955078124,9.785401344299316,0.05985504388809204,0.06224924325942993
1716738165816553700,10.1595537109375,9.790189743041992,0.06224924325942993,0.043095629662275314
1716738165826554000,10.16955419921875,9.783007621765137,0.07422025501728058,0.05506663769483566
1716738165836554200,10.17955419921875,9.787796020507812,0.05506663769483566,0.07661445438861847
1716738165846554000,10.18955419921875,9.797372817993164,0.06464344263076782,0.06464344263076782
1716738165856554200,10.19955419921875,9.658509254455566,0.047884032130241394,0.0694318488240242
1716738165866554000,10.20955419921875,9.83807373046875,0.07182604819536209,0.07422025501728058
1716738165876554200,10.21955419921875,9.862015724182129,0.040701430290937424,0.07661445438861847
1716738165886554000,10.22955419921875,9.730335235595703,0.05027823522686958,0.0694318488240242
1716738165896554200,10.23955419921875,9.742305755615234,0.06224924325942993,0.05746084079146385
1716738165906554000,10.24955419921875,9.845256805419922,0.05027823522686958,0.043095629662275314
1716738165916554200,10.25955419921875,9.840468406677246,0.06703764945268631,0.0454898327589035
1716738165926554000,10.26955419921875,9.756670951843262,0.05506663769483566,0.07900865375995636
1716738165936554200,10.27955419921875,9.756670951843262,0.0694318488240242,0.047884032130241394
1716738165946554000,10.28955419921875,9.828496932983398,0.05267243832349777,0.05506663769483566
1716738165956554200,10.29955419921875,9.845256805419922,0.06224924325942993,0.06703764945268631
1716738165966554000,10.30955419921875,9.766247749328613,0.05746084079146385,0.05506663769483566
1716738165976554200,10.31955419921875,9.687239646911621,0.05267243832349777,0.05746084079146385
1716738165986554000,10.32955419921875,9.816526412963867,0.05506663769483566,0.06703764945268631
1716738165996554200,10.33955419921875,9.883563995361328,0.05506663769483566,0.07661445438861847
1716738166006554000,10.34955419921875,9.771036148071289,0.05506663769483566,0.06464344263076782
1716738166016554200,10.35955419921875,9.718363761901855,0.0454898327589035,0.06464344263076782
1716738166026554000,10.36955419921875,9.806949615478516,0.06464344263076782,0.05985504388809204
1716738166036554200,10.37955419921875,9.857227325439453,0.07182604819536209,0.0694318488240242
1716738166046554000,10.38955419921875,9.778219223022461,0.06224924325942993,0.05506663769483566
1716738166056554200,10.39955419921875,9.74470043182373,0.05985504388809204,0.05027823522686958
1716738166066554000,10.40955419921875,9.785401344299316,0.06224924325942993,0.05746084079146385
1716738166076554200,10.41955419921875,9.847650527954102,0.05985504388809204,0.07900865375995636
1716738166086554000,10.42955419921875,9.792584419250488,0.05746084079146385,0.05267243832349777
1716738166096554200,10.43955419921875,9.737517356872559,0.05027823522686958,0.0694318488240242
1716738166106554000,10.44955419921875,9.785401344299316,0.0694318488240242,0.05027823522686958
1716738166116554200,10.45955419921875,9.833285331726074,0.05746084079146385,0.05027823522686958
1716738166126554000,10.46955419921875,9.790189743041992,0.06464344263076782,0.06464344263076782
1716738166136554200,10.47955419921875,9.74470043182373,0.05506663769483566,0.05267243832349777
1716738166146554000,10.48955419921875,9.797372817993164,0.06464344263076782,0.0694318488240242
1716738166156554200,10.49955419921875,9.83807373046875,0.043095629662275314,0.06224924325942993
1716738166166554000,10.50955419921875,9.790189743041992,0.05506663769483566,0.05267243832349777
1716738166176554200,10.51955419921875,9.751882553100586,0.040701430290937424,0.07661445438861847
1716738166186554000,10.52955419921875,9.785401344299316,0.05985504388809204,0.07422025501728058
1716738166196554200,10.53955419921875,9.814131736755371,0.06224924325942993,0.06703764945268631
1716738166206554000,10.54955419921875,9.814131736755371,0.05267243832349777,0.05985504388809204
1716738166216554200,10.55955419921875,9.763854026794434,0.06464344263076782,0.06703764945268631
1716738166226554000,10.56955419921875,9.797372817993164,0.05027823522686958,0.06464344263076782
1716738166236554200,10.57955419921875,9.818920135498047,0.05506663769483566,0.06464344263076782
1716738166246554000,10.58955419921875,9.80455493927002,0.047884032130241394,0.06703764945268631
1716738166256554200,10.59955419921875,9.766247749328613,0.0694318488240242,0.05267243832349777
1716738166266554000,10.60955419921875,9.794978141784668,0.07182604819536209,0.05267243832349777
1716738166276554200,10.61955419921875,9.816526412963867,0.05985504388809204,0.05746084079146385
1716738166286554000,10.62955419921875,9.790189743041992,0.05746084079146385,0.05506663769483566
1716738166296554200,10.63955419921875,9.775824546813965,0.05985504388809204,0.05746084079146385
1716738166306554000,10.64955419921875,9.794978141784668,0.05267243832349777,0.05506663769483566
1716738166316554200,10.65955419921875,9.809343338012695,0.05746084079146385,0.05985504388809204
1716738166326554000,10.66955419921875,9.794978141784668,0.06224924325942993,0.05506663769483566
1716738166336554200,10.67955419921875,9.778219223022461,0.043095629662275314,0.05506663769483566
1716738166346554000,10.68955419921875,9.80216121673584,0.06224924325942993,0.06464344263076782
1716738166356554200,10.69955419921875,9.814131736755371,0.06464344263076782,0.06464344263076782
1716738166366554000,10.70955419921875,9.799766540527344,0.05746084079146385,0.06703764945268631
1716738166376554200,10.71955419921875,9.76864242553711,0.05746084079146385,0.06703764945268631
1716738166386554000,10.72955419921875,9.783007621765137,0.05506663769483566,0.0694318488240242
1716738166396554200,10.73955419921875,9.794978141784668,0.05985504388809204,0.06224924325942993
1716738166406554000,10.74955419921875,9.785401344299316,0.05506663769483566,0.05506663769483566
1716738166416554200,10.75955419921875,9.790189743041992,0.06464344263076782,0.07661445438861847
1716738166426554000,10.76955419921875,9.792584419250488,0.07182604819536209,0.05985504388809204
1716738166436554200,10.77955419921875,9.80216121673584,0.05267243832349777,0.047884032130241394
1716738166446554000,10.78955419921875,9.785401344299316,0.0454898327589035,0.05746084079146385
1716738166456554200,10.79955419921875,9.783007621765137,0.06224924325942993,0.05985504388809204
1716738166466554000,10.80955419921875,9.790189743041992,0.06224924325942993,0.05746084079146385
1716738166476554200,10.81955419921875,9.799766540527344,0.05746084079146385,0.06703764945268631
1716738166486554000,10.82955419921875,9.799766540527344,0.05746084079146385,0.05027823522686958
1716738166496554200,10.83955419921875,9.787796020507812,0.0454898327589035,0.06224924325942993
1716738166506554000,10.84955419921875,9.792584419250488,0.06224924325942993,0.05746084079146385
1716738166516554200,10.85955419921875,9.809343338012695,0.05027823522686958,0.05506663769483566
1716738166526554000,10.86955419921875,9.799766540527344,0.05267243832349777,0.07422025501728058
1716738166536554200,10.87955419921875,9.797372817993164,0.05506663769483566,0.06703764945268631
1716738166546554000,10.88955419921875,9.799766540527344,0.05746084079146385,0.07422025501728058
1716738166556554200,10.89955419921875,9.80455493927002,0.05985504388809204,0.05267243832349777
1716738166566554000,10.90955419921875,9.787796020507812,0.06224924325942993,0.06224924325942993
1716738166576554200,10.91955419921875,9.794978141784668,0.06703764945268631,0.05267243832349777
1716738166586554000,10.92955419921875,9.797372817993164,0.05506663769483566,0.06703764945268631
1716738166596554200,10.93955419921875,9.792584419250488,0.043095629662275314,0.06703764945268631
1716738166606554000,10.94955419921875,9.792584419250488,0.05506663769483566,0.07182604819536209
1716738166616554200,10.95955419921875,9.790189743041992,0.047884032130241394,0.07900865375995636
1716738166626554000,10.96955419921875,9.78061294555664,0.06703764945268631,0.06224924325942993
1716738166636554200,10.97955419921875,9.794978141784668,0.07422025501728058,0.05746084079146385
1716738166646554000,10.98955419921875,9.794978141784668,0.06224924325942993,0.06224924325942993
1716738166656554200,10.99955419921875,9.785401344299316,0.047884032130241394,0.06464344263076782
1716738166666554000,11.00955419921875,9.783007621765137,0.05506663769483566,0.05746084079146385
1716738166676554200,11.01955419921875,9.797372817993164,0.05506663769483566,0.07661445438861847
1716738166686554000,11.02955419921875,9.80216121673584,0.05746084079146385,0.047884032130241394
1716738166696554200,11.03955419921875,9.785401344299316,0.05027823522686958,0.07661445438861847
1716738166706554000,11.04955419921875,9.787796020507812,0.06703764945268631,0.0694318488240242
1716738166716554200,11.05955419921875,9.794978141784668,0.07661445438861847,0.06224924325942993
1716738166726554000,11.06955419921875,9.785401344299316,0.06464344263076782,0.07900865375995636
1716738166736554200,11.07955419921875,9.790189743041992,0.07182604819536209,0.05985504388809204
1716738166746554000,11.08955419921875,9.797372817993164,0.047884032130241394,0.06464344263076782
1716738166756554200,11.09955419921875,9.80216121673584,0.05985504388809204,0.06464344263076782
1716738166766554000,11.10955419921875,9.80216121673584,0.05506663769483566,0.043095629662275314
1716738166776554200,11.11955419921875,9.797372817993164,0.05267243832349777,0.05746084079146385
1716738166786554000,11.12955419921875,9.799766540527344,0.06224924325942993,0.05027823522686958
1716738166796554200,11.13955419921875,9.787796020507812,0.07182604819536209,0.05267243832349777
1716738166806554000,11.14955419921875,9.794978141784668,0.06464344263076782,0.07182604819536209
1716738166816554200,11.15955419921875,9.78061294555664,0.05267243832349777,0.05506663769483566
1716738166826554000,11.16955419921875,9.80216121673584,0.05267243832349777,0.06464344263076782
1716738166836554200,11.17955419921875,9.797372817993164,0.06703764945268631,0.05985504388809204
1716738166846554000,11.18955419921875,9.80216121673584,0.05506663769483566,0.06703764945268631
1716738166856554200,11.19955419921875,9.792584419250488,0.05267243832349777,0.05027823522686958
1716738166866554000,11.20955419921875,9.797372817993164,0.05746084079146385,0.06224924325942993
1716738166876554200,11.21955419921875,9.783007621765137,0.06464344263076782,0.06224924325942993
1716738166886554000,11.22955419921875,9.785401344299316,0.035913024097681046,0.05746084079146385
1716738166896554200,11.23955419921875,9.775824546813965,0.05267243832349777,0.0454898327589035
1716738166906554000,11.24955419921875,9.601048469543457,0.035913024097681046,0.07661445438861847
1716738166916554200,11.25955419921875,9.938630104064941,0.05267243832349777,0.05506663769483566
1716738166926554000,11.26955419921875,9.881169319152832,0.047884032130241394,0.06703764945268631
1716738166936554200,11.27955419921875,9.670479774475098,0.047884032130241394,0.06224924325942993
1716738166946554000,11.28955419921875,9.732728958129883,0.07422025501728058,0.07182604819536209
1716738166956554200,11.29955419921875,9.909899711608887,0.06464344263076782,0.06464344263076782
1716738166966554000,11.30955419921875,9.864410400390625,0.05746084079146385,0.07900865375995636
1716738166976554200,11.31955419921875,9.727940559387207,0.05027823522686958,0.047884032130241394
1716738166986554000,11.32955419921875,9.71357536315918,0.06224924325942993,0.0454898327589035
1716738166996554200,11.33955419921875,9.847650527954102,0.0694318488240242,0.07661445438861847
1716738167006554000,11.34955419921875,9.87159252166748,0.06703764945268631,0.043095629662275314
1716738167016554200,11.35955419921875,9.735123634338379,0.05746084079146385,0.0454898327589035
1716738167026554000,11.36955419921875,9.703998565673828,0.06464344263076782,0.047884032130241394
1716738167036554200,11.37955419921875,9.83807373046875,0.05506663769483566,0.06464344263076782
1716738167046554000,11.38955419921875,9.864410400390625,0.06224924325942993,0.06703764945268631
1716738167056554200,11.39955419921875,9.751882553100586,0.0694318488240242,0.06464344263076782
1716738167066554000,11.40955419921875,9.735123634338379,0.0454898327589035,0.040701430290937424
1716738167076554200,11.41955419921875,9.80455493927002,0.05985504388809204,0.07422025501728058
1716738167086554000,11.42955419921875,9.845256805419922,0.06224924325942993,0.06703764945268631
1716738167096554200,11.43955419921875,9.761459350585938,0.05267243832349777,0.07661445438861847
1716738167106554000,11.44955419921875,9.739912033081055,0.038307227194309235,0.05985504388809204
1716738167116554200,11.45955419921875,9.814131736755371,0.05267243832349777,0.07422025501728058
1716738167126554000,11.46955419921875,9.83568000793457,0.06703764945268631,0.07900865375995636
1716738167136554200,11.47955419921875,9.783007621765137,0.047884032130241394,0.035913024097681046
1716738167146554000,11.48955419921875,9.756670951843262,0.05267243832349777,0.07182604819536209
1716738167156554200,11.49955419921875,9.80455493927002,0.05027823522686958,0.06224924325942993
1716738167166554000,11.50955419921875,9.845256805419922,0.06224924325942993,0.05746084079146385
1716738167176554200,11.51955419921875,9.785401344299316,0.05267243832349777,0.06703764945268631
1716738167186554000,11.52955419921875,9.751882553100586,0.0694318488240242,0.06224924325942993
1716738167196554200,11.53955419921875,9.792584419250488,0.05985504388809204,0.06703764945268631
1716738167206554000,11.54955419921875,9.830891609191895,0.05985504388809204,0.05746084079146385
1716738167216554200,11.55955419921875,9.790189743041992,0.06703764945268631,0.0694318488240242
1716738167226554000,11.56955419921875,9.773430824279785,0.05506663769483566,0.0694318488240242
1716738167236554200,11.57955419921875,9.818920135498047,0.05985504388809204,0.07422025501728058
1716738167246554000,11.58955419921875,9.828496932983398,0.05985504388809204,0.05027823522686958
1716738167256554200,11.59955419921875,9.778219223022461,0.0694318488240242,0.05506663769483566
1716738167266554000,11.60955419921875,9.766247749328613,0.0454898327589035,0.0694318488240242
1716738167276554200,11.61955419921875,9.809343338012695,0.07182604819536209,0.047884032130241394
1716738167286554000,11.62955419921875,9.814131736755371,0.05746084079146385,0.05506663769483566
1716738167296554200,11.63955419921875,9.783007621765137,0.05746084079146385,0.0694318488240242
1716738167306554000,11.64955419921875,9.773430824279785,0.05267243832349777,0.05506663769483566
1716738167316554200,11.65955419921875,9.799766540527344,0.05267243832349777,0.06224924325942993
1716738167326554000,11.66955419921875,9.816526412963867,0.06224924325942993,0.06464344263076782
1716738167336554200,11.67955419921875,9.799766540527344,0.05027823522686958,0.05027823522686958
1716738167346554000,11.68955419921875,9.773430824279785,0.06703764945268631,0.05267243832349777
1716738167356554200,11.69955419921875,9.797372817993164,0.043095629662275314,0.06224924325942993
1716738167366554000,11.70955419921875,9.806949615478516,0.05506663769483566,0.043095629662275314
1716738167376554200,11.71955419921875,9.794978141784668,0.05746084079146385,0.05027823522686958
1716738167386554000,11.72955419921875,9.783007621765137,0.0454898327589035,0.06703764945268631
1716738167396554200,11.73955419921875,9.794978141784668,0.05746084079146385,0.05746084079146385
1716738167406554000,11.74955419921875,9.814131736755371,0.0694318488240242,0.07900865375995636
1716738167416554200,11.75955419921875,9.790189743041992,0.0694318488240242,0.0694318488240242
1716738167426554000,11.76955419921875,9.775824546813965,0.05746084079146385,0.05746084079146385
1716738167436554200,11.77955419921875,9.790189743041992,0.05267243832349777,0.06224924325942993
1716738167446554000,11.78955419921875,9.80216121673584,0.07900865375995636,0.05267243832349777
1716738167456554200,11.79955419921875,9.787796020507812,0.05267243832349777,0.06224924325942993
1716738167466554000,11.80955419921875,9.775824546813965,0.047884032130241394,0.06703764945268631
1716738167476554200,11.81955419921875,9.785401344299316,0.05506663769483566,0.06464344263076782
1716738167486554000,11.82955419921875,9.794978141784668,0.05985504388809204,0.05746084079146385
1716738167496554200,11.83955419921875,9.797372817993164,0.0454898327589035,0.05506663769483566
1716738167506554000,11.84955419921875,9.792584419250488,0.05267243832349777,0.05027823522686958
1716738167516554200,11.85955419921875,9.790189743041992,0.06464344263076782,0.06224924325942993
1716738167526554000,11.86955419921875,9.80216121673584,0.047884032130241394,0.047884032130241394
1716738167536554200,11.87955419921875,9.792584419250488,0.05506663769483566,0.05746084079146385
1716738167546554000,11.88955419921875,9.797372817993164,0.0454898327589035,0.05985504388809204
1716738167556554200,11.89955419921875,9.799766540527344,0.05506663769483566,0.043095629662275314
1716738167566554000,11.90955419921875,9.818920135498047,0.0694318488240242,0.0694318488240242
1716738167576554200,11.91955419921875,9.787796020507812,0.05267243832349777,0.0694318488240242
1716738167586554000,11.92955419921875,9.794978141784668,0.05027823522686958,0.05027823522686958
1716738167596554200,11.93955419921875,9.785401344299316,0.05267243832349777,0.05027823522686958
1716738167606554000,11.94955419921875,9.806949615478516,0.06703764945268631,0.0694318488240242
1716738167616554200,11.95955419921875,9.783007621765137,0.040701430290937424,0.05027823522686958
1716738167626554000,11.96955419921875,9.78061294555664,0.07661445438861847,0.05985504388809204
1716738167636554200,11.97955419921875,9.799766540527344,0.06703764945268631,0.06224924325942993
1716738167646554000,11.98955419921875,9.799766540527344,0.05027823522686958,0.06703764945268631
1716738167656554200,11.99955419921875,9.80216121673584,0.05746084079146385,0.09576806426048279
1716738167666554000,12.00955419921875,9.794978141784668,0.07661445438861847,0.047884032130241394
1716738167676554200,12.01955419921875,9.792584419250488,0.05985504388809204,0.06464344263076782
1716738167686554000,12.02955419921875,9.80216121673584,0.05267243832349777,0.07661445438861847
1716738167696554200,12.03955419921875,9.797372817993164,0.05985504388809204,0.05985504388809204
1716738167706554000,12.04955419921875,9.785401344299316,0.06224924325942993,0.0694318488240242
1716738167716554200,12.05955419921875,9.792584419250488,0.05506663769483566,0.06224924325942993
1716738167726554000,12.06955419921875,9.787796020507812,0.05985504388809204,0.07182604819536209
1716738167736554200,12.07955419921875,9.797372817993164,0.05985504388809204,0.06464344263076782
1716738167746554000,12.08955419921875,9.771036148071289,0.05746084079146385,0.038307227194309235
1716738167756554200,12.09955419921875,9.790189743041992,0.06224924325942993,0.07900865375995636
1716738167766554000,12.10955419921875,9.809343338012695,0.05027823522686958,0.05985504388809204
1716738167776554200,12.11955419921875,9.797372817993164,0.05985504388809204,0.05746084079146385
1716738167786554000,12.12955419921875,9.792584419250488,0.05267243832349777,0.05985504388809204
1716738167796554200,12.13955419921875,9.785401344299316,0.05267243832349777,0.05027823522686958
1716738167806554000,12.14955419921875,9.783007621765137,0.05267243832349777,0.05746084079146385
1716738167816554200,12.15955419921875,9.787796020507812,0.05267243832349777,0.05267243832349777
1716738167826554000,12.16955419921875,9.787796020507812,0.05506663769483566,0.07182604819536209
1716738167836554200,12.17955419921875,9.792584419250488,0.05267243832349777,0.047884032130241394
1716738167846554000,12.18955419921875,9.794978141784668,0.05267243832349777,0.06703764945268631
1716738167856554200,12.19955419921875,9.792584419250488,0.05506663769483566,0.06703764945268631
1716738167866554000,12.20955419921875,9.790189743041992,0.07422025501728058,0.08379705995321274
1716738167876554200,12.21955419921875,9.785401344299316,0.05985504388809204,0.07422025501728058
1716738167886554000,12.22955419921875,9.790189743041992,0.05985504388809204,0.05027823522686958
1716738167896554200,12.23955419921875,9.80216121673584,0.0694318488240242,0.047884032130241394
1716738167906554000,12.24955419921875,9.799766540527344,0.043095629662275314,0.08379705995321274
1716738167916554200,12.25955419921875,9.794978141784668,0.05506663769483566,0.0454898327589035
1716738167926554000,12.26955419921875,9.799766540527344,0.06464344263076782,0.07182604819536209
1716738167936554200,12.27955419921875,9.787796020507812,0.08140286058187485,0.05267243832349777
1716738167946554000,12.28955419921875,9.787796020507812,0.05027823522686958,0.043095629662275314
1716738167956554200,12.29955419921875,9.797372817993164,0.040701430290937424,0.05267243832349777
1716738167966554000,12.30955419921875,9.792584419250488,0.038307227194309235,0.08140286058187485
1716738167976554200,12.31955419921875,9.737517356872559,0.05267243832349777,0.0694318488240242
1716738167986554000,12.32955419921875,9.83807373046875,0.0694318488240242,0.06703764945268631
1716738167996554200,12.33955419921875,9.821314811706543,0.05267243832349777,0.06464344263076782
1716738168006554000,12.34955419921875,9.766247749328613,0.05506663769483566,0.0694318488240242
1716738168016554200,12.35955419921875,9.778219223022461,0.047884032130241394,0.08619125932455063
1716738168026554000,12.36955419921875,9.852438926696777,0.06464344263076782,0.06464344263076782
1716738168036554200,12.37955419921875,9.811738014221191,0.05985504388809204,0.07661445438861847
1716738168046554000,12.38955419921875,9.763854026794434,0.06224924325942993,0.08619125932455063
1716738168056554200,12.39955419921875,9.78061294555664,0.047884032130241394,0.05746084079146385
1716738168066554000,12.40955419921875,9.818920135498047,0.0694318488240242,0.07422025501728058
1716738168076554200,12.41955419921875,9.80216121673584,0.06703764945268631,0.05746084079146385
1716738168086554000,12.42955419921875,9.78061294555664,0.07182604819536209,0.07422025501728058
1716738168096554200,12.43955419921875,9.773430824279785,0.0454898327589035,0.05267243832349777
1716738168106554000,12.44955419921875,9.787796020507812,0.06224924325942993,0.05027823522686958
1716738168116554200,12.45955419921875,9.785401344299316,0.05506663769483566,0.07182604819536209
1716738168126554000,12.46955419921875,9.797372817993164,0.05506663769483566,0.06224924325942993
1716738168136554200,12.47955419921875,9.794978141784668,0.06224924325942993,0.07900865375995636
1716738168146554000,12.48955419921875,9.792584419250488,0.06703764945268631,0.06464344263076782
1716738168156554200,12.49955419921875,9.783007621765137,0.05027823522686958,0.0933738648891449
1716738168166554000,12.50955419921875,9.783007621765137,0.047884032130241394,0.08140286058187485
1716738168176554200,12.51955419921875,9.80216121673584,0.06224924325942993,0.05746084079146385
1716738168186554000,12.52955419921875,9.790189743041992,0.06464344263076782,0.0694318488240242
1716738168196554200,12.53955419921875,9.785401344299316,0.05027823522686958,0.06224924325942993
1716738168206554000,12.54955419921875,9.797372817993164,0.06224924325942993,0.05027823522686958
1716738168216554200,12.55955419921875,9.80216121673584,0.06464344263076782,0.07422025501728058
1716738168226554000,12.56955419921875,9.792584419250488,0.07900865375995636,0.05506663769483566
1716738168236554200,12.57955419921875,9.790189743041992,0.047884032130241394,0.06703764945268631
1716738168246554000,12.58955419921875,9.794978141784668,0.06224924325942993,0.06224924325942993
1716738168256554200,12.59955419921875,9.792584419250488,0.047884032130241394,0.05506663769483566
1716738168266554000,12.60955419921875,9.799766540527344,0.05985504388809204,0.0694318488240242
1716738168276554200,12.61955419921875,9.790189743041992,0.06464344263076782,0.0454898327589035
1716738168286554000,12.62955419921875,9.778219223022461,0.05506663769483566,0.05267243832349777
1716738168296554200,12.63955419921875,9.787796020507812,0.05985504388809204,0.07182604819536209
1716738168306554000,12.64955419921875,9.806949615478516,0.05506663769483566,0.05506663769483566
1716738168316554200,12.65955419921875,9.799766540527344,0.06224924325942993,0.06703764945268631
1716738168326554000,12.66955419921875,9.785401344299316,0.05267243832349777,0.06224924325942993
1716738168336554200,12.67955419921875,9.785401344299316,0.0454898327589035,0.05746084079146385
1716738168346554000,12.68955419921875,9.792584419250488,0.031124621629714966,0.05506663769483566
1716738168356554200,12.69955419921875,9.783007621765137,0.047884032130241394,0.07182604819536209
1716738168366554000,12.70955419921875,9.787796020507812,0.06224924325942993,0.07422025501728058
1716738168376554200,12.71955419921875,9.790189743041992,0.0694318488240242,0.07661445438861847
1716738168386554000,12.72955419921875,9.792584419250488,0.05506663769483566,0.047884032130241394
1716738168396554200,12.73955419921875,9.790189743041992,0.05506663769483566,0.06703764945268631
1716738168406554000,12.74955419921875,9.797372817993164,0.05506663769483566,0.07900865375995636
1716738168416554200,12.75955419921875,9.783007621765137,0.06224924325942993,0.06703764945268631
1716738168426554000,12.76955419921875,9.792584419250488,0.05985504388809204,0.05985504388809204
1716738168436554200,12.77955419921875,9.78061294555664,0.05746084079146385,0.05746084079146385
1716738168446554000,12.78955419921875,9.783007621765137,0.05506663769483566,0.06224924325942993
1716738168456554200,12.79955419921875,9.792584419250488,0.05506663769483566,0.040701430290937424
1716738168466554000,12.80955419921875,9.794978141784668,0.0694318488240242,0.05506663769483566
1716738168476554200,12.81955419921875,9.797372817993164,0.06703764945268631,0.05985504388809204
1716738168486554000,12.82955419921875,9.792584419250488,0.05746084079146385,0.07422025501728058
1716738168496554200,12.83955419921875,9.794978141784668,0.08619125932455063,0.05027823522686958
1716738168506554000,12.84955419921875,9.794978141784668,0.06224924325942993,0.0694318488240242
1716738168516554200,12.85955419921875,9.794978141784668,0.033518824726343155,0.06224924325942993
1716738168526554000,12.86955419921875,9.797372817993164,0.05985504388809204,0.06464344263076782
1716738168536554200,12.87955419921875,9.790189743041992,0.05267243832349777,0.06224924325942993
1716738168546554000,12.88955419921875,9.790189743041992,0.05027823522686958,0.05985504388809204
1716738168556554200,12.89955419921875,9.80216121673584,0.05267243832349777,0.0454898327589035
1716738168566554000,12.90955419921875,9.792584419250488,0.05985504388809204,0.05985504388809204
1716738168576554200,12.91955419921875,9.792584419250488,0.05746084079146385,0.07182604819536209
1716738168586554000,12.92955419921875,9.783007621765137,0.05985504388809204,0.06464344263076782
1716738168596554200,12.93955419921875,9.78061294555664,0.06703764945268631,0.07182604819536209
1716738168606554000,12.94955419921875,9.783007621765137,0.06224924325942993,0.06703764945268631
1716738168616554200,12.95955419921875,9.792584419250488,0.06464344263076782,0.06464344263076782
1716738168626554000,12.96955419921875,9.792584419250488,0.06224924325942993,0.06464344263076782
1716738168636554200,12.97955419921875,9.794978141784668,0.05027823522686958,0.05746084079146385
1716738168646554000,12.98955419921875,9.792584419250488,0.06224924325942993,0.0694318488240242
