time,seconds_elapsed,z,y,x
1717858231764613400,0.09461328125,0.004688761197030544,0.008796953596174717,-0.005175587255507708
1717858231774654500,0.104654541015625,0.004521248396486044,0.008246212266385555,-0.0060919807292521
1717858231784694300,0.1146943359375,0.004340153653174639,0.009153018705546856,-0.005834453273564577
1717858231794735000,0.124735107421875,0.0034445326309651136,0.009362875483930111,-0.005056543741375208
1717858231804776200,0.134776123046875,0.0036932716611772776,0.009691243059933186,-0.00649598240852356
1717858231814816300,0.144816162109375,0.0034357442054897547,0.00905474741011858,-0.005048554390668869
1717858231824857300,0.154857421875,0.004339088220149279,0.008694687858223915,-0.006476008798927069
1717858231834897200,0.164897216796875,0.004291683901101351,0.009394566528499126,-0.006874950136989355
1717858231844938200,0.174938232421875,0.0032775523141026497,0.009311743080615997,-0.005887716542929411
1717858231854979300,0.184979248046875,0.0036477316170930862,0.010695787146687508,-0.005453621037304401
1717858231865019400,0.195019287109375,0.004007524810731411,0.008145811036229134,-0.005758020561188459
1717858231875060200,0.205060302734375,0.004720719531178474,0.008522914722561836,-0.006918626371771097
1717858231885101300,0.215101318359375,0.0034381409641355276,0.008266984485089779,-0.006120743229985237
1717858231895141400,0.225141357421875,0.0026109630707651377,0.00962759368121624,-0.006072539836168289
1717858231905182500,0.235182373046875,0.0031649006996303797,0.008377505466341972,-0.005869074258953333
1717858231915222500,0.245222412109375,0.002688460983335972,0.009698700159788132,-0.006762298755347729
1717858231925263400,0.255263427734375,0.004566788673400879,0.00839827861636877,-0.005338306538760662
1717858231935304400,0.265304443359375,0.003704989794641733,0.009399893693625927,-0.006136988289654255
1717858231945344300,0.27534423828125,0.0036756948102265596,0.008828379213809967,-0.00566880451515317
1717858231955385000,0.285385009765625,0.0038860845379531384,0.00737429317086935,-0.006683735176920891
1717858231965425200,0.295425048828125,0.004968659486621618,0.01022440753877163,-0.004476773552596569
1717858231975466200,0.30546630859375,0.00472498033195734,0.00879002921283245,-0.006217948626726866
1717858231985507300,0.31550732421875,0.002907639369368553,0.008225439116358757,-0.00717748561874032
1717858231995547400,0.32554736328125,0.0029670277144759893,0.00888057705014944,-0.005795571021735668
1717858232005588200,0.335588134765625,0.005122323986142874,0.00923264678567648,-0.005633384454995394
1717858232015629300,0.34562939453125,0.0036048549227416515,0.006688262801617384,-0.0057348511181771755
1717858232025669400,0.35566943359375,0.003516171593219042,0.00890640914440155,-0.005110872443765402
1717858232035710200,0.365710205078125,0.0031161648221313953,0.008347677998244762,-0.0056712012737989426
1717858232045750300,0.375750244140625,0.004147873260080814,0.007421164773404598,-0.004761732183396816
1717858232055791400,0.385791259765625,0.0025957829784601927,0.009029979817569256,-0.0054845139384269714
1717858232065832400,0.39583251953125,0.004406199790537357,0.009970076382160187,-0.005855758674442768
1717858232075872300,0.405872314453125,0.002414954360574484,0.00944782979786396,-0.005058940965682268
1717858232085913000,0.4159130859375,0.004347078036516905,0.00808961782604456,-0.006234992761164904
1717858232095954200,0.4259541015625,0.002290052128955722,0.0095698032528162,-0.00592686515301466
1717858232105994200,0.435994140625,0.004851480480283499,0.008985505439341068,-0.005119128152728081
1717858232116035300,0.446035400390625,0.0053553506731987,0.010221744887530804,-0.00612234091386199
1717858232126075400,0.456075439453125,0.0019238675013184547,0.010416688397526741,-0.005487443413585424
1717858232136116200,0.4661162109375,0.0049308426678180695,0.009047024883329868,-0.004851480480283499
1717858232146157300,0.4761572265625,0.003144660498946905,0.00851252768188715,-0.00538331363350153
1717858232156197400,0.486197265625,0.003072755178436637,0.010142115876078606,-0.006406234111636877
1717858232166238200,0.49623828125,0.00202267081476748,0.009521599858999252,-0.007796936668455601
1717858232176279300,0.506279296875,0.004790227860212326,0.009069128893315792,-0.004028830211609602
1717858232186319400,0.5163193359375,0.0031585090328007936,0.009604956954717636,-0.005842708982527256
1717858232196360400,0.5263603515625,0.004268780816346407,0.009836651384830475,-0.005694104824215174
1717858232206400500,0.536400390625,0.0029582392890006304,0.00797057431191206,-0.005538309924304485
1717858232216441300,0.54644140625,0.0032115059439092875,0.009405752643942833,-0.0052112736739218235
1717858232226482400,0.556482421875,0.0041002025827765465,0.008986304514110088,-0.006131928414106369
1717858232236522200,0.566522216796875,0.003282079705968499,0.009369267150759697,-0.004394481889903545
1717858232246563000,0.57656298828125,0.005550294183194637,0.009674731642007828,-0.00512951472774148
1717858232256604200,0.586604248046875,0.004542820155620575,0.009767942130565643,-0.005759618245065212
1717858232266644200,0.596644287109375,0.003641606541350484,0.008867527358233929,-0.004911668132990599
1717858232276685300,0.606685302734375,0.00330338510684669,0.008219047449529171,-0.006995059084147215
1717858232286725400,0.616725341796875,0.004309793468564749,0.010506968945264816,-0.005917011294513941
1717858232296766200,0.62676611328125,0.005031776614487171,0.009035573340952396,-0.006374276243150234
1717858232306807300,0.636807373046875,0.00484215933829546,0.010122142732143402,-0.00552206439897418
1717858232316847400,0.646847412109375,0.004920722916722298,0.008563128300011158,-0.00749200489372015
1717858232326888400,0.656888427734375,0.004396346397697926,0.009425725787878036,-0.006561762653291225
1717858232336929300,0.66692919921875,0.002978213131427765,0.009230515919625759,-0.0062573631294071674
1717858232346969300,0.67696923828125,0.0030988543294370174,0.008297078311443329,-0.00461765518411994
1717858232357010400,0.687010498046875,0.004024568945169449,0.009223059751093388,-0.006421413738280535
1717858232367050200,0.69705029296875,0.0034104441292583942,0.009246229194104671,-0.006435795221477747
1717858232377091300,0.70709130859375,0.002924683503806591,0.00896872766315937,-0.006047239992767572
1717858232387132400,0.71713232421875,0.0035116442013531923,0.007811850402504206,-0.0051878378726542
1717858232397172200,0.727172119140625,0.0033989925868809223,0.009050752967596054,-0.0070070428773760796
1717858232407213300,0.73721337890625,0.004039216320961714,0.0091732582077384,-0.0054269894026219845
1717858232417254100,0.747254150390625,0.004325506277382374,0.008855010382831097,-0.005568936001509428
1717858232427294200,0.757294189453125,0.0021515677217394114,0.009553025476634502,-0.004721518140286207
1717858232437335300,0.767335205078125,0.003367833560332656,0.009106945246458054,-0.004853078629821539
1717858232447375400,0.777375244140625,0.002784601179882884,0.0089993542060256,-0.00572979124262929
1717858232457416200,0.787416259765625,0.004710332956165075,0.008793491870164871,-0.006244580261409283
1717858232467457300,0.797457275390625,0.003117230022326112,0.00857564527541399,-0.0065103634260594845
1717858232477497300,0.807497314453125,0.003947869874536991,0.00857644435018301,-0.00512924836948514
1717858232487538400,0.817538330078125,0.004969991277903318,0.009663812816143036,-0.006184658966958523
1717858232497579300,0.827579345703125,0.00443842401728034,0.008259261026978493,-0.004779575392603874
1717858232507619300,0.837619384765625,0.0036072516813874245,0.009237973019480705,-0.006086920853704214
1717858232517660400,0.847660400390625,0.004181429278105497,0.009465939365327358,-0.005001150071620941
1717858232527701500,0.857701416015625,0.0034503915812820196,0.009081379510462284,-0.005033640656620264
1717858232537741300,0.8677412109375,0.004531901329755783,0.009111206978559494,-0.005022455472499132
1717858232547782100,0.8777822265625,0.003973436541855335,0.009793775156140327,-0.003727892879396677
1717858232557822200,0.887822265625,0.004179564770311117,0.008925850503146648,-0.004089283756911755
1717858232567863300,0.89786328125,0.0038655782118439674,0.008078166283667088,-0.005586512852460146
1717858232577904000,0.907904052734375,0.003978762775659561,0.008505604229867458,-0.00686030276119709
1717858232587944200,0.917944091796875,0.0030149647500365973,0.008915464393794537,-0.0065226140432059765
1717858232597985300,0.9279853515625,0.0025829998776316643,0.00842837244272232,-0.006367884576320648
1717858232608025300,0.938025390625,0.0044016726315021515,0.0075796227902174,-0.006478139199316502
1717858232618066200,0.948066162109375,0.004546815063804388,0.009404953569173813,-0.006388124544173479
1717858232628107000,0.95810693359375,0.005370264407247305,0.008057394064962864,-0.006194779183715582
1717858232638147000,0.96814697265625,0.0062970444560050964,0.008109325543045998,-0.006821953225880861
1717858232648188200,0.978188232421875,0.003573163179680705,0.009401490911841393,-0.0035390746779739857
1717858232658229000,0.98822900390625,0.0027827369049191475,0.009446232579648495,-0.006936735473573208
1717858232668269000,0.99826904296875,0.0037875475827604532,0.01011202298104763,-0.003997670952230692
1717858232678310100,1.00831005859375,0.003727626521140337,0.009823069907724857,-0.005684783682227135
1717858232688351200,1.018351318359375,0.003171558491885662,0.007797203026711941,-0.005945506971329451
1717858232698391000,1.02839111328125,0.0032980586402118206,0.009462477639317513,-0.006609965581446886
1717858232708432000,1.038431884765625,0.0037787591572850943,0.009592173621058464,-0.0046666571870446205
1717858232718472000,1.048471923828125,0.003912982530891895,0.01047474518418312,-0.006250705569982529
1717858232728513000,1.058512939453125,0.0030810111202299595,0.009337042458355427,-0.0054365769028663635
1717858232738554000,1.06855419921875,0.003543602069839835,0.008074438199400902,-0.00498117646202445
1717858232748594000,1.078593994140625,0.0031201594974845648,0.009972472675144672,-0.006988667417317629
1717858232758635000,1.088635009765625,0.004257861990481615,0.009037170559167862,-0.006048038601875305
1717858232768676000,1.098676025390625,0.004518052563071251,0.00929176900535822,-0.004758802708238363
1717858232778716200,1.108716064453125,0.006386526394635439,0.009346896782517433,-0.005150287412106991
1717858232788757000,1.118757080078125,0.004189152270555496,0.008976451121270657,-0.00458596320822835
1717858232798797000,1.128797119140625,0.003593935864046216,0.006914631463587284,-0.00541260838508606
1717858232808838100,1.138838134765625,0.004221642855554819,0.008534366264939308,-0.0054605454206466675
1717858232818879200,1.148879150390625,0.0031374699901789427,0.009818541817367077,-0.008313589729368687
1717858232828919000,1.1589189453125,0.004094077739864588,0.009529856033623219,-0.005096225067973137
1717858232838959900,1.1689599609375,0.004777444526553154,0.009110674262046814,-0.005026716738939285
1717858232849001000,1.1790009765625,0.005845638457685709,0.009868077002465725,-0.005721535068005323
1717858232859041000,1.189041015625,0.003835750976577401,0.008265119977295399,-0.005658951122313738
1717858232869081900,1.199081787109375,0.003215500619262457,0.008894159458577633,-0.006184126250445843
1717858232879122000,1.209121826171875,0.0030562435276806355,0.009013468399643898,-0.005894108209758997
1717858232889163000,1.2191630859375,0.0027332021854817867,0.009647035039961338,-0.0058094197884202
1717858232899204000,1.2292041015625,0.004369981121271849,0.009669671766459942,-0.006947122048586607
1717858232909244200,1.239244140625,0.0022128205746412277,0.010018279775977135,-0.007101318798959255
1717858232919285000,1.249284912109375,0.004443484358489513,0.009404420852661133,-0.005542304366827011
1717858232929326000,1.259326171875,0.004933505784720182,0.008581770583987236,-0.004246144089847803
1717858232939366100,1.2693662109375,0.0036277580074965954,0.009968478232622147,-0.005459214095026255
1717858232949407000,1.279406982421875,0.0033726270776242018,0.008079231716692448,-0.0057473680935800076
1717858232959447000,1.289447021484375,0.0032418658956885338,0.008055263198912144,-0.005618737079203129
1717858232969488100,1.299488037109375,0.003756921272724867,0.008897088468074799,-0.006325007416307926
1717858232979529200,1.309529296875,0.00526640098541975,0.008405202999711037,-0.006328735966235399
1717858232989569000,1.319569091796875,0.003955326974391937,0.009150621481239796,-0.006154565140604973
1717858232999609900,1.32960986328125,0.003817907767370343,0.008623847737908363,-0.007084541022777557
1717858233009651000,1.33965087890625,0.0030045784078538418,0.009345564991235733,-0.004088218789547682
1717858233019691000,1.34969091796875,0.005078648217022419,0.01013785507529974,-0.0057407100684940815
1717858233029732000,1.359732177734375,0.0031350732315331697,0.009380718693137169,-0.005811283830553293
1717858233039772200,1.369772216796875,0.003603257006034255,0.008565524592995644,-0.005197957623749971
1717858233049813000,1.37981298828125,0.0028993834275752306,0.010313623584806919,-0.007458448875695467
1717858233059854000,1.38985400390625,0.0038000645581632853,0.008444617502391338,-0.004973187111318111
1717858233069894100,1.39989404296875,0.004831506870687008,0.009303220547735691,-0.004512992687523365
1717858233079935000,1.40993505859375,0.0049156625755131245,0.008606270886957645,-0.005865079816430807
1717858233089976000,1.41997607421875,0.004987035412341356,0.009093630127608776,-0.005568403284996748
1717858233100016000,1.43001611328125,0.004710599314421415,0.009358614683151245,-0.006884271278977394
1717858233110057200,1.44005712890625,0.0048799761570990086,0.009221727959811687,-0.004780374001711607
1717858233120097000,1.450096923828125,0.0023521038237959146,0.00914156623184681,-0.005577458068728447
1717858233130137900,1.460137939453125,0.0038890140131115913,0.008466721512377262,-0.005112736485898495
1717858233140179200,1.47017919921875,0.004012318328022957,0.008116249926388264,-0.00697881355881691
1717858233150219000,1.480218994140625,0.004215251188725233,0.00914369709789753,-0.005042162723839283
1717858233160259800,1.490259765625,0.0036993969697505236,0.00920228660106659,-0.005872003734111786
1717858233170301000,1.500301025390625,0.003951864782720804,0.008217982016503811,-0.005854426883161068
1717858233180341000,1.510341064453125,0.003394731320440769,0.009041165933012962,-0.006316751707345247
1717858233190382000,1.520382080078125,0.0038482677191495895,0.009469135664403439,-0.004270112607628107
1717858233200422100,1.530422119140625,0.0034844798501580954,0.010247045196592808,-0.007256581448018551
1717858233210463000,1.540462890625,0.004296211525797844,0.010379403829574585,-0.006121275946497917
1717858233220504000,1.550504150390625,0.0028365328907966614,0.008981777355074883,-0.006051767151802778
1717858233230544100,1.560544189453125,0.0035145736765116453,0.008976184763014317,-0.006086920853704214
1717858233240585200,1.570585205078125,0.003973702434450388,0.009939449839293957,-0.0065077003091573715
1717858233250626000,1.5806259765625,0.003870105603709817,0.009047823026776314,-0.004252003040164709
1717858233260666000,1.590666015625,0.004508731886744499,0.00939163751900196,-0.0046751792542636395
1717858233270707200,1.600707275390625,0.003653324441984296,0.009289904497563839,-0.0051931641064584255
1717858233280747000,1.6107470703125,0.0035457327030599117,0.008481102995574474,-0.006328735966235399
1717858233290787800,1.620787841796875,0.005091697443276644,0.0079173119738698,-0.006272543221712112
1717858233300829000,1.630828857421875,0.004101534374058247,0.008540757931768894,-0.005169461946934462
1717858233310869000,1.640868896484375,0.005308479070663452,0.008621717803180218,-0.006135124247521162
1717858233320910000,1.65091015625,0.004566788673400879,0.008431567810475826,-0.005907157436013222
1717858233330951000,1.660950927734375,0.0041611893102526665,0.009441439062356949,-0.005239769350737333
1717858233340991000,1.670990966796875,0.003575826296582818,0.007939415983855724,-0.005130579695105553
1717858233351032000,1.681031982421875,0.0033244239166378975,0.009463809430599213,-0.004295412451028824
1717858233361072000,1.691072021484375,0.004728975240141153,0.010293384082615376,-0.005841644015163183
1717858233371113000,1.701113037109375,0.0034149715211242437,0.009401224553585052,-0.006432865746319294
1717858233381154000,1.711154052734375,0.0037760960403829813,0.009035573340952396,-0.005330583080649376
1717858233391194000,1.721194091796875,0.005849633365869522,0.00933065079152584,-0.005109274294227362
1717858233401235200,1.731235107421875,0.004047205671668053,0.008342351764440536,-0.005286108236759901
1717858233411276000,1.741276123046875,0.004022704903036356,0.009592706337571144,-0.0060357884503901005
1717858233421316000,1.751316162109375,0.003888215171173215,0.00984251033514738,-0.007068828213959932
1717858233431357200,1.761357177734375,0.0034226945135742426,0.009456618689000607,-0.006134591531008482
1717858233441397000,1.77139697265625,0.003850398352369666,0.008236624300479889,-0.006365753710269928
1717858233451437800,1.781437744140625,0.0037878139410167933,0.008653408847749233,-0.00367143377661705
1717858233461479000,1.79147900390625,0.0027955202385783195,0.0082483422011137,-0.005294098053127527
1717858233471519000,1.80151904296875,0.0037060549948364496,0.009432916529476643,-0.005371063016355038
1717858233481560000,1.81156005859375,0.002775280037894845,0.008058193139731884,-0.00646562222391367
1717858233491601000,1.821600830078125,0.0030631679110229015,0.009306682273745537,-0.004856806714087725
1717858233501641000,1.831640869140625,0.0026636936236172915,0.007890147157013416,-0.006384662352502346
1717858233511682000,1.84168212890625,0.00375958438962698,0.00974450632929802,-0.0049406965263187885
1717858233521722000,1.85172216796875,0.004509530495852232,0.008438758552074432,-0.006384395994246006
1717858233531763200,1.86176318359375,0.0034011229872703552,0.008637962862849236,-0.005437375977635384
1717858233541804000,1.871803955078125,0.003315103007480502,0.009604157879948616,-0.006068544927984476
1717858233551844000,1.881843994140625,0.004022971261292696,0.008255799300968647,-0.005437375977635384
1717858233561885200,1.89188525390625,0.003562244353815913,0.009426524862647057,-0.005071191117167473
1717858233571926000,1.901926025390625,0.004034955520182848,0.00893969926983118,-0.005618204362690449
1717858233581965800,1.9119658203125,0.004345479886978865,0.008507467806339264,-0.005687979515641928
1717858233592007000,1.9220068359375,0.005058141890913248,0.008861135691404343,-0.005488774739205837
1717858233602048000,1.932048095703125,0.005140699911862612,0.00902625173330307,-0.006244580261409283
1717858233612087600,1.942087646484375,0.0035920715890824795,0.008675780147314072,-0.005624596029520035
1717858233622128400,1.95212841796875,0.0032551817130297422,0.009856359101831913,-0.005898635368794203
1717858233632168400,1.96216845703125,0.00464641721919179,0.008803611621260643,-0.006569219287484884
1717858233642209500,1.97220947265625,0.0026581010315567255,0.007990015670657158,-0.0041763694025576115
1717858233652250600,1.982250732421875,0.0037819549906998873,0.009398828260600567,-0.005019792355597019
1717858233662290400,1.99229052734375,0.004841360729187727,0.009278186596930027,-0.004549744538962841
1717858233672331300,2.002331298828125,0.0034109766129404306,0.008628642186522484,-0.005774798337370157
1717858233682371300,2.012371337890625,0.003674629610031843,0.010065151378512383,-0.006070675794035196
1717858233692412400,2.022412353515625,0.0041822283528745174,0.009820406325161457,-0.0070611052215099335
1717858233702453200,2.032453369140625,0.0033036512322723866,0.008494418114423752,-0.006485862657427788
1717858233712493300,2.042493408203125,0.004485561978071928,0.008259527385234833,-0.005621666554361582
1717858233722534400,2.052534423828125,0.004640291910618544,0.009440906345844269,-0.0035654399544000626
1717858233732575500,2.062575439453125,0.0037318875547498465,0.008723982609808445,-0.0057044909335672855
1717858233742615600,2.072615478515625,0.003457848448306322,0.009278985671699047,-0.005795304663479328
1717858233752656400,2.082656494140625,0.004178499802947044,0.008705074898898602,-0.00472444761544466
1717858233762697500,2.092697509765625,0.004848018288612366,0.00845420453697443,-0.006154565140604973
1717858233772737500,2.102737548828125,0.004451740067452192,0.010075271129608154,-0.005561213009059429
1717858233782778600,2.112778564453125,0.0033041839487850666,0.010011089034378529,-0.005417935084551573
1717858233792818400,2.122818359375,0.0031558459158986807,0.008866195566952229,-0.0049164616502821445
1717858233802859300,2.132859375,0.0036551884841173887,0.009067797102034092,-0.005285575985908508
1717858233812900400,2.142900390625,0.00330231967382133,0.008915997110307217,-0.0051960935816168785
1717858233822940400,2.1529404296875,0.0023957795929163694,0.009240636602044106,-0.007159376051276922
1717858233832981200,2.162981201171875,0.005375590641051531,0.008899219334125519,-0.006162554491311312
1717858233843022300,2.173022216796875,0.004993160720914602,0.008852880448102951,-0.007921839132905006
1717858233853062400,2.1830625,0.005081311333924532,0.009734652936458588,-0.006046707276254892
1717858233863103500,2.193103515625,0.0034378746058791876,0.009950635023415089,-0.005880259443074465
1717858233873143600,2.2031435546875,0.005363073665648699,0.009767409414052963,-0.005536711774766445
1717858233883184400,2.213184326171875,0.0038365498185157776,0.00897059217095375,-0.005691175349056721
1717858233893225500,2.2232255859375,0.005335110705345869,0.008523979224264622,-0.00615270109847188
1717858233903265500,2.233265625,0.0033806166611611843,0.008762865327298641,-0.006191849708557129
1717858233913306400,2.243306396484375,0.00355851580388844,0.009289105422794819,-0.006262689363211393
1717858233923347500,2.253347412109375,0.0029585056472569704,0.008176437579095364,-0.00544350128620863
1717858233933387500,2.263387451171875,0.004482632502913475,0.009347694925963879,-0.00612367270514369
1717858233943428600,2.2734287109375,0.003972637467086315,0.010233462788164616,-0.005261873826384544
1717858233953469400,2.283469482421875,0.0052296495996415615,0.009324259124696255,-0.0056983656249940395
1717858233963509200,2.29350927734375,0.0021736719645559788,0.008081895299255848,-0.0057532270438969135
1717858233973550300,2.30355029296875,0.004190750420093536,0.0076185050420463085,-0.004523379262536764
1717858233983590400,2.31359033203125,0.005097024142742157,0.00902705080807209,-0.005625927820801735
1717858233993631500,2.323631591796875,0.005082643125206232,0.007727694697678089,-0.00353428116068244
1717858234003672300,2.33367236328125,0.0035473306197673082,0.007926366291940212,-0.006145776715129614
1717858234013712400,2.34371240234375,0.0025595640763640404,0.008374043740332127,-0.007420898415148258
1717858234023753500,2.35375341796875,0.0029995182994753122,0.008243815042078495,-0.005690908990800381
1717858234033794300,2.363794189453125,0.003366768127307296,0.008666991256177425,-0.004524710588157177
1717858234043834400,2.37383447265625,0.00293267285451293,0.009017197415232658,-0.005927930120378733
1717858234053875500,2.38387548828125,0.00458729499951005,0.008431035093963146,-0.007090399973094463
1717858234063915500,2.39391552734375,0.005190767347812653,0.00809281412512064,-0.004038683604449034
1717858234073956600,2.40395654296875,0.0025827335193753242,0.007935420610010624,-0.006205964367836714
1717858234083997400,2.41399755859375,0.0043742419220507145,0.00977513287216425,-0.006286657880991697
1717858234094037500,2.42403759765625,0.0024650217965245247,0.008836634457111359,-0.0064805359579622746
1717858234104078600,2.43407861328125,0.004995024763047695,0.009558085352182388,-0.0051652006804943085
1717858234114119400,2.444119384765625,0.0034559841733425856,0.009224656969308853,-0.005409146659076214
1717858234124159200,2.4541591796875,0.00336117553524673,0.008349009789526463,-0.0056712012737989426
1717858234134200300,2.464200439453125,0.004312989301979542,0.009470467455685139,-0.006584399379789829
1717858234144240400,2.474240478515625,0.003978496417403221,0.009223326109349728,-0.006906908005475998
1717858234154281500,2.484281494140625,0.004996356554329395,0.00951121374964714,-0.006937268190085888
1717858234164322300,2.494322265625,0.005977198481559753,0.007863782346248627,-0.006322344299405813
1717858234174362400,2.5043623046875,0.0039265644736588,0.009216668084263802,-0.005172391422092915
1717858234184403500,2.514403564453125,0.003632019041106105,0.009795638732612133,-0.004111920483410358
1717858234194444500,2.524444580078125,0.0026844663079828024,0.009018261916935444,-0.00646588858217001
1717858234204484400,2.534484375,0.0024919197894632816,0.00869202520698309,-0.006654440425336361
1717858234214525400,2.544525390625,0.0035334820859134197,0.008606537245213985,-0.004828577395528555
1717858234224566500,2.55456640625,0.004342816770076752,0.010003898292779922,-0.006375873927026987
1717858234234606600,2.564606689453125,0.005624329671263695,0.008440889418125153,-0.0073356772772967815
1717858234244647400,2.5746474609375,0.005134840961545706,0.008776979520916939,-0.004999019671231508
1717858234254687200,2.584687255859375,0.003739344421774149,0.009455553255975246,-0.005767341703176498
1717858234264728300,2.594728271484375,0.004316984210163355,0.008868592791259289,-0.005815012380480766
1717858234274769400,2.604769287109375,0.0028160265646874905,0.008385761640965939,-0.005910619627684355
1717858234284809500,2.6148095703125,0.0021057615522295237,0.007241134997457266,-0.003108175238594413
1717858234294850300,2.624850341796875,0.004520982038229704,0.008887501433491707,-0.0059750680811703205
1717858234304891400,2.634891357421875,0.0046882289461791515,0.009345831349492073,-0.006220611743628979
1717858234314931500,2.644931396484375,0.004288754425942898,0.009772202931344509,-0.005763080436736345
1717858234324972300,2.65497216796875,0.0027289411518722773,0.00968804769217968,-0.005483182147145271
1717858234335012400,2.665012451171875,0.004457332659512758,0.008357532322406769,-0.004083158448338509
1717858234345053400,2.675053466796875,0.005333512555807829,0.00875141378492117,-0.004727909807115793
1717858234355094500,2.685094482421875,0.005496498197317123,0.009909622371196747,-0.004799549002200365
1717858234365134600,2.695134521484375,0.005094094667583704,0.007407050114125013,-0.005075452383607626
1717858234375175400,2.705175537109375,0.0038754320703446865,0.007661648094654083,-0.005331115797162056
1717858234385216500,2.715216552734375,0.0028248149901628494,0.009769540280103683,-0.006019010208547115
1717858234395256600,2.725256591796875,0.004416053649038076,0.009935189038515091,-0.004426972474902868
1717858234405297400,2.73529736328125,0.004364654887467623,0.009022790007293224,-0.004358529578894377
1717858234415337200,2.745337158203125,0.0041585261933505535,0.010010289959609509,-0.006465089973062277
1717858234425378300,2.75537841796875,0.0036064526066184044,0.009229185059666634,-0.0057132793590426445
1717858234435419400,2.76541943359375,0.003510579001158476,0.008230498991906643,-0.006671218667179346
1717858234445459500,2.77545947265625,0.003314836649224162,0.009634518064558506,-0.006302104331552982
1717858234455500300,2.785500244140625,0.0034317492973059416,0.009153816848993301,-0.005041630007326603
1717858234465541400,2.795541259765625,0.003370496677234769,0.009195362217724323,-0.004763862583786249
1717858234475581400,2.80558154296875,0.004193413536995649,0.008416388183832169,-0.006651244591921568
1717858234485622500,2.81562255859375,0.004018443636596203,0.007809187285602093,-0.006015548016875982
1717858234495663400,2.825663330078125,0.004125502891838551,0.009630522690713406,-0.005218197591602802
1717858234505703400,2.835703369140625,0.0032826124224811792,0.010364756919443607,-0.005090099759399891
1717858234515744500,2.84574462890625,0.005889314226806164,0.011081413365900517,-0.0054879761300981045
1717858234525784600,2.85578466796875,0.005203816574066877,0.00848349928855896,-0.006928213406354189
1717858234535825400,2.865825439453125,0.003865045728161931,0.008104798384010792,-0.005405950825661421
1717858234545866500,2.875866455078125,0.0036250948905944824,0.008623582310974598,-0.006905043963342905
1717858234555906300,2.88590625,0.0041547976434230804,0.008892827667295933,-0.005916744936257601
1717858234565947600,2.89594775390625,0.003385144053027034,0.00785659160465002,-0.004232561681419611
1717858234575988500,2.905988525390625,0.004415254574269056,0.008915997110307217,-0.005001416429877281
1717858234586028300,2.9160283203125,0.003689809702336788,0.008841694332659245,-0.006450176239013672
1717858234596069400,2.9260693359375,0.005097024142742157,0.00893623661249876,-0.006565757095813751
1717858234606110200,2.936110107421875,0.003442668356001377,0.008717857301235199,-0.007012635935097933
1717858234616151600,2.946151611328125,0.002823217073455453,0.010989533737301826,-0.004968925844877958
1717858234626192600,2.956192626953125,0.004935636185109615,0.007778294384479523,-0.005230181850492954
1717858234636232400,2.966232421875,0.0044394894503057,0.009297894313931465,-0.005367068573832512
1717858234646273300,2.976273193359375,0.0041761030443012714,0.009818808175623417,-0.005864014383405447
1717858234656314400,2.986314453125,0.003582217963412404,0.008832373656332493,-0.005874400492757559
1717858234666354400,2.9963544921875,0.0025276062078773975,0.008116249926388264,-0.005329251755028963
1717858234676395500,3.0063955078125,0.004107659682631493,0.010221744887530804,-0.005660548806190491
1717858234686436400,3.016436279296875,0.00506826164200902,0.009047556668519974,-0.005957757588475943
1717858234696476400,3.026476318359375,0.004866394214332104,0.008674448356032372,-0.005025917664170265
1717858234706517500,3.036517578125,0.0030477214604616165,0.008280833251774311,-0.005803826730698347
1717858234716558300,3.046558349609375,0.004945223685353994,0.008317052386701107,-0.006706106010824442
1717858234726598400,3.056598388671875,0.00512818293645978,0.008220645599067211,-0.005838980432599783
1717858234736639500,3.066639404296875,0.0046967510133981705,0.009957559406757355,-0.006899717729538679
1717858234746679600,3.076679443359375,0.003593403147533536,0.007873902097344398,-0.005456550512462854
1717858234756720600,3.086720703125,0.004779309034347534,0.009791910648345947,-0.005839246790856123
1717858234766761500,3.096761474609375,0.0025300029665231705,0.007876299321651459,-0.005112470127642155
1717858234776801300,3.10680126953125,0.002356098499149084,0.00839481595903635,-0.006380933802574873
1717858234786842400,3.11684228515625,0.00504029868170619,0.009837983176112175,-0.006132993847131729
1717858234796883500,3.126883544921875,0.0033100428991019726,0.009981527924537659,-0.007208644412457943
1717858234806923300,3.13692333984375,0.003948668949306011,0.010084858164191246,-0.007539941463619471
1717858234816964400,3.14696435546875,0.0032232238445430994,0.008742891252040863,-0.006386260036379099
1717858234827004400,3.15700439453125,0.004689560271799564,0.009860087186098099,-0.005822202656418085
1717858234837045500,3.16704541015625,0.00535455159842968,0.007736749015748501,-0.006428338121622801
1717858234847086300,3.17708642578125,0.005408613942563534,0.009104548953473568,-0.005062669049948454
1717858234857126400,3.18712646484375,0.003260774305090308,0.009126652963459492,-0.006098905112594366
1717858234867167500,3.19716748046875,0.004719654098153114,0.009849967435002327,-0.005123123060911894
1717858234877208600,3.20720849609375,0.0034730283077806234,0.008197209797799587,-0.006176403257995844
1717858234887248600,3.21724853515625,0.003674097126349807,0.00920441746711731,-0.005915413144975901
1717858234897289500,3.22728955078125,0.0037087181117385626,0.010046242736279964,-0.006780407857149839
1717858234907330600,3.23733056640625,0.001982190879061818,0.01013838779181242,-0.006876015570014715
1717858234917370600,3.24737060546875,0.0030093719251453876,0.008218514733016491,-0.006738596595823765
1717858234927411500,3.257411376953125,0.00449781259521842,0.009886452928185463,-0.004858937580138445
1717858234937451300,3.267451171875,0.00412417110055685,0.010280334390699863,-0.005793174263089895
1717858234947492400,3.277492431640625,0.003850398352369666,0.00848802737891674,-0.005360144190490246
1717858234957533400,3.287533447265625,0.00299259414896369,0.008411594666540623,-0.004865861497819424
1717858234967573500,3.297573486328125,0.0030027141328901052,0.008332232013344765,-0.005718073341995478
1717858234977614300,3.3076142578125,0.004420847166329622,0.01011015847325325,-0.006749781779944897
1717858234987655400,3.317655517578125,0.0018607506062835455,0.010206032544374466,-0.0046152579598128796
1717858234997695500,3.327695556640625,0.003605920122936368,0.009186041541397572,-0.005606486462056637
1717858235007736300,3.337736328125,0.001725728390738368,0.008413724601268768,-0.006059490609914064
1717858235017777400,3.34777734375,0.006386526394635439,0.0105328019708395,-0.005905826110392809
1717858235027817500,3.3578173828125,0.003055977402254939,0.009320264682173729,-0.005592638161033392
1717858235037858600,3.367858642578125,0.004449076950550079,0.008612662553787231,-0.005076251458376646
1717858235047898600,3.377898681640625,0.003356115659698844,0.009946107864379883,-0.005796902813017368
1717858235057939500,3.387939453125,0.004788097459822893,0.00888057705014944,-0.005599828902631998
1717858235067980500,3.39798046875,0.004204865079373121,0.007977232336997986,-0.005672533065080643
1717858235078020600,3.4080205078125,0.003611246356740594,0.009837716817855835,-0.004501807503402233
1717858235088061700,3.418061767578125,0.005501558072865009,0.009727994911372662,-0.006125270389020443
1717858235098102500,3.4281025390625,0.002882871776819229,0.009435047395527363,-0.0057066213339567184
1717858235108142300,3.438142333984375,0.0016676714876666665,0.009634784422814846,-0.004193946253508329
1717858235118183400,3.448183349609375,0.0032314795535057783,0.008980711922049522,-0.0062853265553712845
1717858235128224300,3.458224365234375,0.005846437532454729,0.008625978603959084,-0.00717482203617692
1717858235138264300,3.468264404296875,0.002630936913192272,0.007245662156492472,-0.006086121778935194
1717858235148305400,3.478305419921875,0.0038253646343946457,0.008318116888403893,-0.006597715429961681
1717858235158345500,3.488345458984375,0.0028218855150043964,0.008820123039186,-0.004866926930844784
1717858235168386600,3.498386474609375,0.004290618933737278,0.008087221533060074,-0.005081311333924532
1717858235178427400,3.508427490234375,0.0012855078093707561,0.008510131388902664,-0.005952164996415377
1717858235188467500,3.518467529296875,0.002409628126770258,0.008892827667295933,-0.004962534178048372
1717858235198508500,3.528508544921875,0.004133225884288549,0.008776181377470493,-0.004533499013632536
1717858235208549400,3.53854931640625,0.004560397006571293,0.009884588420391083,-0.006003564223647118
1717858235218589400,3.54858935546875,0.003829625668004155,0.009286709129810333,-0.00430207047611475
1717858235228630500,3.558630615234375,0.004275438841432333,0.006690659560263157,-0.006655239500105381
1717858235238671600,3.568671630859375,0.003403253620490432,0.008809204213321209,-0.00580755528062582
1717858235248711400,3.57871142578125,0.003753725439310074,0.01107475534081459,-0.006842193193733692
1717858235258752300,3.588752197265625,0.005066930316388607,0.00908404216170311,-0.00583685003221035
1717858235268792300,3.598792236328125,0.0035534559283405542,0.009862484410405159,-0.005052282940596342
1717858235278833400,3.60883349609375,0.004077033139765263,0.008817194029688835,-0.0057497648522257805
1717858235288874500,3.61887451171875,0.00523577444255352,0.009922672063112259,-0.005534315016120672
1717858235298914600,3.62891455078125,0.004376638680696487,0.010357299819588661,-0.006620085798203945
1717858235308955400,3.638955322265625,0.0036788906436413527,0.009048355743288994,-0.005440838169306517
1717858235318996500,3.64899658203125,0.004198207054287195,0.00950908288359642,-0.005805158521980047
1717858235329036500,3.65903662109375,0.0030751521699130535,0.008292551152408123,-0.0068211546167731285
1717858235339077400,3.669077392578125,0.003525758860632777,0.00959696713835001,-0.006101035512983799
1717858235349118500,3.679118408203125,0.0024370586033910513,0.009581254795193672,-0.003953995183110237
1717858235359158500,3.689158447265625,0.00361763802357018,0.008711998350918293,-0.005481318105012178
1717858235369199600,3.69919970703125,0.0037292244378477335,0.008934639394283295,-0.006618754006922245
1717858235379239700,3.70923974609375,0.004186489153653383,0.008688828907907009,-0.005735916085541248
1717858235389280500,3.719280517578125,0.004028031136840582,0.009388442151248455,-0.004984372295439243
1717858235399321600,3.729321533203125,0.0031704932916909456,0.008494950830936432,-0.005145493429154158
1717858235409361400,3.739361328125,0.004202468320727348,0.00863423477858305,-0.006131928414106369
1717858235419402200,3.74940234375,0.002519350266084075,0.008357265964150429,-0.005739644635468721
1717858235429443300,3.759443359375,0.0034562505315989256,0.009754093363881111,-0.005690908990800381
1717858235439483400,3.7694833984375,0.003932157531380653,0.010309629142284393,-0.005477855913341045
1717858235449524500,3.7795244140625,0.004804076161235571,0.00944782979786396,-0.006592122372239828
1717858235459565300,3.7895654296875,0.002438922878354788,0.008867260999977589,-0.006199039984494448
1717858235469605400,3.79960546875,0.002965163439512253,0.00957060232758522,-0.004490888677537441
1717858235479646500,3.809646484375,0.004185423720628023,0.00824780948460102,-0.004042412154376507
1717858235489686500,3.8196865234375,0.003763046581298113,0.010128534398972988,-0.00618252856656909
1717858235499727400,3.829727294921875,0.004148405976593494,0.009003881365060806,-0.006927414797246456
1717858235509768400,3.8397685546875,0.0031372036319226027,0.009120261296629906,-0.0073013221845030785
1717858235519808500,3.84980859375,0.003822701284661889,0.009241701103746891,-0.005685582756996155
1717858235529849600,3.859849609375,0.006146842148154974,0.008746620267629623,-0.005359079223126173
1717858235539890400,3.869890380859375,0.005181978922337294,0.008971923030912876,-0.006448578089475632
1717858235549930500,3.879930419921875,0.0036788906436413527,0.008285094052553177,-0.005264803301542997
1717858235559971600,3.8899716796875,0.005053082015365362,0.009023589082062244,-0.005893309134989977
1717858235570012700,3.9000126953125,0.0029933929909020662,0.009192433208227158,-0.0051873051561415195
1717858235580052500,3.910052490234375,0.003194994293153286,0.009149289689958096,-0.006119145080447197
1717858235590093300,3.92009326171875,0.003868241561576724,0.008555138483643532,-0.00592526700347662
1717858235600133400,3.93013330078125,0.004238686989992857,0.010043046437203884,-0.006607835181057453
1717858235610174500,3.940174560546875,0.005736448802053928,0.008538627065718174,-0.006386792752891779
1717858235620214300,3.95021435546875,0.005035505164414644,0.009584450162947178,-0.0056741307489573956
1717858235630254300,3.96025439453125,0.004387291613966227,0.008668855763971806,-0.005568403284996748
1717858235640295200,3.970295166015625,0.002704440150409937,0.008987103588879108,-0.006344981025904417
1717858235650336300,3.980336181640625,0.00333161442540586,0.008851282298564911,-0.007331149652600288
1717858235660376300,3.990376220703125,0.0037465349305421114,0.008137288503348827,-0.005791576579213142
1717858235670417400,4.00041748046875,0.0036575854755938053,0.008194812573492527,-0.006626477465033531
1717858235680458200,4.010458251953125,0.004288754425942898,0.008442220278084278,-0.005074120592325926
1717858235690498300,4.020498291015625,0.005262938793748617,0.008809204213321209,-0.0054672034457325935
1717858235700539400,4.030539306640625,0.0025185514241456985,0.009157279506325722,-0.00515774404630065
1717858235710579500,4.040579345703125,0.004459463059902191,0.008979912847280502,-0.006299707572907209
1717858235720620300,4.050620361328125,0.002397377509623766,0.009356483817100525,-0.006455768831074238
1717858235730661400,4.060661376953125,0.005459479987621307,0.009337042458355427,-0.005819273181259632
1717858235740701200,4.070701171875,0.0037033918779343367,0.008642490021884441,-0.004711132030934095
1717858235750742300,4.0807421875,0.0036160401068627834,0.008946623653173447,-0.005432049743831158
1717858235760783000,4.090783203125,0.004186755511909723,0.008385228924453259,-0.006103166379034519
1717858235770823200,4.1008232421875,0.004823251161724329,0.008111456409096718,-0.0065191518515348434
1717858235780864300,4.1108642578125,0.0038860845379531384,0.009647566825151443,-0.0071127708069980145
1717858235790905300,4.1209052734375,0.0034557178150862455,0.010867294855415821,-0.006266151554882526
1717858235800945400,4.1309453125,0.003969441633671522,0.00848669558763504,-0.0067969197407364845
1717858235810986200,4.140986328125,0.003367034485563636,0.009523996151983738,-0.006864031311124563
1717858235821027300,4.15102734375,0.004025634378194809,0.008891229517757893,-0.00612367270514369
1717858235831067400,4.1610673828125,0.0032431974541395903,0.01034531556069851,-0.004897020757198334
1717858235841108200,4.171108154296875,0.0022085595410317183,0.009490174241364002,-0.00632048025727272
1717858235851148300,4.181148193359375,0.0037768951151520014,0.009403089061379433,-0.005121791269630194
1717858235861189400,4.191189453125,0.004087419714778662,0.008301072753965855,-0.004739094991236925
1717858235871230500,4.20123046875,0.002983539365231991,0.008376440964639187,-0.006488792132586241
1717858235881270300,4.211270263671875,0.0030834078788757324,0.008800415322184563,-0.005972671322524548
1717858235891311400,4.221311279296875,0.004735632799565792,0.00905661191791296,-0.004818723537027836
1717858235901352400,4.2313525390625,0.0031318773981183767,0.008415056392550468,-0.004854942671954632
1717858235911392300,4.241392333984375,0.003910319413989782,0.00893863383680582,-0.00478303711861372
1717858235921433000,4.25143310546875,0.0035270904190838337,0.009675264358520508,-0.00558225205168128
1717858235931474200,4.26147412109375,0.004451207350939512,0.008979113772511482,-0.005362807307392359
1717858235941514200,4.27151416015625,0.003371029393747449,0.00818123109638691,-0.005768406670540571
1717858235951555300,4.281555419921875,0.004343349486589432,0.00768907880410552,-0.005573729984462261
1717858235961595400,4.291595458984375,0.004705273080617189,0.00863237027078867,-0.004969458561390638
1717858235971636200,4.30163623046875,0.0035752938129007816,0.009096559137105942,-0.0051992894150316715
1717858235981677300,4.31167724609375,0.004473045468330383,0.00993438996374607,-0.00749200489372015
1717858235991717400,4.32171728515625,0.003989415243268013,0.00996048841625452,-0.006108226254582405
1717858236001758500,4.331758544921875,0.004324707202613354,0.008896555751562119,-0.005817941855639219
1717858236011799300,4.34179931640625,0.003952131140977144,0.010674215853214264,-0.005888781975954771
1717858236021839400,4.35183935546875,0.002246376359835267,0.008827047422528267,-0.006137254647910595
1717858236031880400,4.36188037109375,0.0049098036251962185,0.008475244045257568,-0.007582818623632193
1717858236041921300,4.37192138671875,0.005596100352704525,0.008467520587146282,-0.007254983298480511
1717858236051961000,4.381961181640625,0.003178216516971588,0.009124788455665112,-0.004751878324896097
1717858236062002200,4.392002197265625,0.0035334820859134197,0.010310428217053413,-0.00512844929471612
1717858236072043300,4.402043212890625,0.0038101845420897007,0.009414007887244225,-0.005774531979113817
1717858236082083300,4.412083251953125,0.004603540059179068,0.010471283458173275,-0.007164169568568468
1717858236092124200,4.422124267578125,0.004448277875781059,0.009240103885531425,-0.00558145297691226
1717858236102164200,4.432164306640625,0.004365986213088036,0.007992945611476898,-0.007072024047374725
1717858236112205300,4.442205322265625,0.004476773552596569,0.009019060991704464,-0.004788097459822893
1717858236122246100,4.45224609375,0.005891977343708277,0.008993495255708694,-0.00561101408675313
1717858236132286200,4.4622861328125,0.002400573343038559,0.00902838259935379,-0.006736199837177992
1717858236142327300,4.472327392578125,0.0032629049383103848,0.009918943047523499,-0.004607268609106541
1717858236152368400,4.482368408203125,0.0035952674224972725,0.009641974233090878,-0.00803475733846426
1717858236162408400,4.492408447265625,0.0032147017773240805,0.0102553004398942,-0.0063034361228346825
1717858236172449300,4.50244921875,0.003468234557658434,0.010455570183694363,-0.005368932615965605
1717858236182490400,4.512490478515625,0.003035471076145768,0.008528507314622402,-0.006229133810847998
1717858236192530400,4.522530517578125,0.004160123877227306,0.009178850799798965,-0.0041057956404984
1717858236202571500,4.532571533203125,0.00500940578058362,0.010018013417720795,-0.00689199473708868
1717858236212611000,4.542611083984375,0.004002464935183525,0.009797769598662853,-0.006145510356873274
1717858236222652200,4.552652099609375,0.0036245621740818024,0.009152752347290516,-0.004221376497298479
1717858236232693200,4.562693359375,0.003944940399378538,0.008392419666051865,-0.006608900614082813
1717858236242733300,4.5727333984375,0.0032288164366036654,0.010402839630842209,-0.004906075540930033
1717858236252774100,4.582774169921875,0.004125502891838551,0.009887252002954483,-0.005179848056286573
1717858236262815200,4.592815185546875,0.0034591800067573786,0.010440390557050705,-0.006560697220265865
1717858236272855300,4.602855224609375,0.002129463478922844,0.008102667517960072,-0.005091431550681591
1717858236282896400,4.612896484375,0.002493784064427018,0.005625661462545395,-0.005275722127407789
1717858236292937200,4.622937255859375,0.005401156842708588,0.009030778892338276,-0.005415804218500853
1717858236302977300,4.632977294921875,0.00398781755939126,0.010394584387540817,-0.006071208510547876
1717858236313018400,4.643018310546875,0.003602990647777915,0.007967112585902214,-0.007492537144571543
1717858236323059200,4.65305908203125,0.00321869645267725,0.008106395602226257,-0.006600910797715187
1717858236333099300,4.663099365234375,0.002758768619969487,0.009399360977113247,-0.005143363028764725
1717858236343140400,4.673140380859375,0.004667456261813641,0.00833729188889265,-0.006188920233398676
1717858236353180200,4.68318017578125,0.006366286426782608,0.00920468382537365,-0.006235525477677584
1717858236363221500,4.693221435546875,0.005139368120580912,0.009289371781051159,-0.005089567042887211
1717858236373262300,4.703262451171875,0.005690642632544041,0.00896979309618473,-0.008020109497010708
1717858236383302100,4.71330224609375,0.004540689755231142,0.010223076678812504,-0.005154814571142197
1717858236393343200,4.72334326171875,0.004225105047225952,0.00878150761127472,-0.0057345847599208355
1717858236403384300,4.73338427734375,0.0037023264449089766,0.008953015320003033,-0.005532983224838972
1717858236413424000,4.743424072265625,0.0034088462125509977,0.0096273273229599,-0.00561101408675313
1717858236423465200,4.75346533203125,0.0036770266015082598,0.009770605713129044,-0.0057585532777011395
1717858236433506300,4.76350634765625,0.0032730249222368,0.009815612807869911,-0.0065015750005841255
1717858236443546400,4.77354638671875,0.003973436541855335,0.009767675772309303,-0.0070733558386564255
1717858236453587200,4.783587158203125,0.005411277059465647,0.008326639421284199,-0.006380667444318533
1717858236463628300,4.793628173828125,0.0029609024059027433,0.008991098031401634,-0.005667473189532757
1717858236473668400,4.80366845703125,0.004054130055010319,0.009214270859956741,-0.007006510626524687
1717858236483709400,4.81370947265625,0.004732171073555946,0.008827047422528267,-0.004309793468564749
1717858236493749500,4.82374951171875,0.004063717555254698,0.008645952679216862,-0.0067828050814569
1717858236503790300,4.833790283203125,0.004226702731102705,0.008171909488737583,-0.0062584285624325275
1717858236513831400,4.84383154296875,0.004570250865072012,0.007901332341134548,-0.0062800003215670586
1717858236523871200,4.853871337890625,0.004232561681419611,0.007121825125068426,-0.005258411634713411
1717858236533912000,4.863912109375,0.00350392097607255,0.008988967165350914,-0.007053382229059935
1717858236543953200,4.873953125,0.002569684060290456,0.00878976285457611,-0.005766808986663818
1717858236553993200,4.8839931640625,0.003311640815809369,0.009061405435204506,-0.005591573193669319
1717858236564034300,4.894034423828125,0.003951332066208124,0.008905078284442425,-0.006196643225848675
1717858236574075100,4.9040751953125,0.004148405976593494,0.008688297122716904,-0.0062554990872740746
1717858236584115200,4.914115234375,0.0034061830956488848,0.007733819540590048,-0.005917544011026621
1717858236594156300,4.92415625,0.002782204421237111,0.008162855170667171,-0.0057289921678602695
1717858236604197400,4.934197265625,0.0034314829390496016,0.009290437214076519,-0.005209143273532391
1717858236614237200,4.9442373046875,0.003939880523830652,0.009823868982493877,-0.0059961071237921715
1717858236624278500,4.954278564453125,0.0038663772866129875,0.009268865920603275,-0.004524177871644497
1717858236634318300,4.964318359375,0.0028426581993699074,0.008254201151430607,-0.006881874520331621
1717858236644359400,4.974359375,0.002739860210567713,0.008766060695052147,-0.0073167686350643635
1717858236654400300,4.984400146484375,0.003988349810242653,0.009891246445477009,-0.0052291168831288815
1717858236664440300,4.9944404296875,0.003921504598110914,0.008403871208429337,-0.00631914846599102
1717858236674481400,5.0044814453125,0.004261590540409088,0.007643538527190685,-0.006055495701730251
1717858236684522500,5.0145224609375,0.004163319710642099,0.008972189389169216,-0.0073804184794425964
1717858236694562600,5.0245625,0.0030631679110229015,0.008026234805583954,-0.00631994754076004
1717858236704603400,5.034603271484375,0.0028703550342470407,0.00857591163367033,-0.006594519596546888
1717858236714644500,5.04464453125,0.0013672668719664216,0.00860041193664074,-0.005805158521980047
1717858236724684500,5.0546845703125,0.0026818031910806894,0.00945129245519638,-0.007473628968000412
1717858236734725400,5.064725341796875,0.005254150368273258,0.00800093449652195,-0.00592606607824564
1717858236744766500,5.074766357421875,0.0038043255917727947,0.01014131773263216,-0.006057626102119684
1717858236754806500,5.084806640625,0.0028445222415030003,0.008417453616857529,-0.00549250328913331
1717858236764847600,5.09484765625,0.0036077843979001045,0.009468336589634418,-0.0054879761300981045
1717858236774887700,5.1048876953125,0.004388622939586639,0.008921323344111443,-0.006918093655258417
1717858236784928500,5.114928466796875,0.0051963599398732185,0.008393485099077225,-0.0067599015310406685
1717858236794969600,5.124969482421875,0.004311657976359129,0.009170861914753914,-0.005511145573109388
1717858236805009400,5.135009521484375,0.0033784860279411077,0.010547716170549393,-0.004504470620304346
1717858236815050200,5.14505029296875,0.0033622407354414463,0.00905794370919466,-0.0070549799129366875
1717858236825091300,5.15509130859375,0.0038629150949418545,0.009014533832669258,-0.0037907434161752462
1717858236835131400,5.16513134765625,0.005087703000754118,0.007238738238811493,-0.006681871134787798
1717858236845172500,5.17517236328125,0.0034815503749996424,0.008644887246191502,-0.005513275973498821
1717858236855213300,5.18521337890625,0.0037763623986393213,0.009071791544556618,-0.005941512528806925
1717858236865253400,5.19525341796875,0.004165982827544212,0.008684568107128143,-0.006502906791865826
1717858236875294500,5.20529443359375,0.004159857518970966,0.009370066225528717,-0.005950034596025944
1717858236885335600,5.21533544921875,0.0031292142812162638,0.008886436000466347,-0.006432599388062954
1717858236895375600,5.225375732421875,0.004536428488790989,0.007967645302414894,-0.004575577098876238
1717858236905416400,5.23541650390625,0.0035928706638514996,0.00869069341570139,-0.005664543714374304
1717858236915456500,5.24545654296875,0.002511893631890416,0.009269398637115955,-0.004885302856564522
1717858236925497600,5.25549755859375,0.004575577098876238,0.00947765726596117,-0.005881058517843485
1717858236935538400,5.265538330078125,0.003829892026260495,0.00917299184948206,-0.0068240840919315815
1717858236945578200,5.275578125,0.003976898267865181,0.007756190374493599,-0.006719687953591347
1717858236955619600,5.28561962890625,0.005091431550681591,0.010294183157384396,-0.006642456166446209
1717858236965660700,5.29566064453125,0.004789695143699646,0.008771120570600033,-0.005782788153737783
1717858236975700500,5.305700439453125,0.002989664673805237,0.008696019649505615,-0.00544430036097765
1717858236985741300,5.3157412109375,0.0036615801509469748,0.008250206708908081,-0.0041460092179477215
1717858236995782400,5.325782470703125,0.003963582683354616,0.008912534452974796,-0.007136206608265638
1717858237005822500,5.335822509765625,0.0043502734042704105,0.009097890928387642,-0.006262423470616341
1717858237015863300,5.34586328125,0.0036847495939582586,0.008073639124631882,-0.005181712564080954
1717858237025903400,5.3559033203125,0.004080228973180056,0.008361793123185635,-0.005710882600396872
1717858237035944400,5.3659443359375,0.0037771612405776978,0.009729060344398022,-0.00603365758433938
1717858237045985500,5.375985595703125,0.003635747591033578,0.00866406224668026,-0.005379851907491684
1717858237056025600,5.386025634765625,0.00443869037553668,0.008524778299033642,-0.006109557580202818
1717858237066066400,5.39606640625,0.003081543603911996,0.009351956658065319,-0.006265618838369846
1717858237076107500,5.406107421875,0.004181429278105497,0.010313357226550579,-0.005894374568015337
1717858237086147600,5.416147705078125,0.005027781706303358,0.00990296434611082,-0.007719971239566803
1717858237096188700,5.426188720703125,0.003239735495299101,0.00996048841625452,-0.0070882695727050304
1717858237106229500,5.4362294921875,0.0037585191894322634,0.008833971805870533,-0.007010771427303553
1717858237116269300,5.446269287109375,0.004036286845803261,0.008529040031135082,-0.005056543741375208
1717858237126310400,5.456310302734375,0.004054662771522999,0.010101103223860264,-0.006672283634543419
1717858237136351200,5.466351318359375,0.0051564122550189495,0.009794041514396667,-0.0064866612665355206
1717858237146391300,5.476391357421875,0.004327370319515467,0.008477107621729374,-0.0052110073156654835
1717858237156432400,5.486432373046875,0.003691940102726221,0.008357265964150429,-0.005671733990311623
1717858237166473500,5.496473388671875,0.0035478631034493446,0.008294947445392609,-0.006090915761888027
1717858237176513500,5.506513427734375,0.004289819858968258,0.010598049499094486,-0.007101585157215595
1717858237186554400,5.516554443359375,0.004239486064761877,0.00932372733950615,-0.006699980702251196
1717858237196594400,5.526594482421875,0.003299656556919217,0.008954079821705818,-0.006698648910969496
1717858237206635500,5.536635498046875,0.003096990054473281,0.008279501460492611,-0.006163619924336672
1717858237216676400,5.54667626953125,0.004001133143901825,0.009092298336327076,-0.006053631659597158
1717858237226716400,5.55671630859375,0.004090881906449795,0.009701362811028957,-0.004649080336093903
1717858237236757500,5.566757568359375,0.0037169738207012415,0.010609501041471958,-0.006052033510059118
1717858237246798600,5.576798583984375,0.004737763665616512,0.008926915936172009,-0.00577826052904129
1717858237256838700,5.586838623046875,0.004254932515323162,0.008019843138754368,-0.005576659459620714
1717858237266879500,5.59687939453125,0.00401578051969409,0.009431584738194942,-0.004596083424985409
1717858237276920600,5.606920654296875,0.0033598439767956734,0.007988151162862778,-0.0065077003091573715
1717858237286960400,5.61696044921875,0.003381948219612241,0.010156497359275818,-0.005869873333722353
1717858237297001500,5.62700146484375,0.003610979998484254,0.00968698225915432,-0.0062608253210783005
1717858237307042300,5.637042236328125,0.0036935380194336176,0.009911486878991127,-0.006355101242661476
1717858237317082400,5.647082275390625,0.0035888757556676865,0.00942173134535551,-0.006174272391945124
1717858237327123500,5.65712353515625,0.003422162029892206,0.009164203889667988,-0.005185707006603479
1717858237337163500,5.66716357421875,0.004292216617614031,0.010047574527561665,-0.0057340520434081554
1717858237347204400,5.677204345703125,0.005347094964236021,0.009363408200442791,-0.006953780073672533
1717858237357245400,5.687245361328125,0.004424575716257095,0.00996128749102354,-0.004854143597185612
1717858237367285500,5.697285400390625,0.0034072482958436012,0.009899236261844635,-0.00620995881035924
1717858237377326600,5.70732666015625,0.003456516657024622,0.009618006646633148,-0.005870938766747713
1717858237387367400,5.717367431640625,0.005339637864381075,0.009408948011696339,-0.006726612336933613
1717858237397407500,5.727407470703125,0.003349990351125598,0.009131180122494698,-0.006095709279179573
1717858237407448600,5.737448486328125,0.0027949875220656395,0.008697351440787315,-0.005151086021214724
1717858237417489400,5.747489501953125,0.0017699368763715029,0.008973521180450916,-0.005072256550192833
1717858237427529500,5.757529541015625,0.0020567593164741993,0.00953677948564291,-0.005240568425506353
1717858237437570600,5.767570556640625,0.003067162586376071,0.007937817834317684,-0.005939381662756205
1717858237447611600,5.777611572265625,0.0037321539130061865,0.009441970847547054,-0.006022472400218248
1717858237457651500,5.7876513671875,0.004070109222084284,0.008415589109063148,-0.0062794676050543785
1717858237467692300,5.7976923828125,0.0023318638559430838,0.007646468002349138,-0.005951898638159037
1717858237477732400,5.807732421875,0.003894340479746461,0.010493121109902859,-0.00526560191065073
1717858237487773400,5.8177734375,0.0035148400347679853,0.008929579518735409,-0.0062608253210783005
1717858237497814500,5.827814453125,0.0046509443782269955,0.008287757635116577,-0.004944690968841314
1717858237507854300,5.837854248046875,0.004752411041408777,0.01028699241578579,-0.0062301987782120705
1717858237517895400,5.8478955078125,0.0012506204657256603,0.008986038155853748,-0.005281048361212015
1717858237527936500,5.8579365234375,0.0030482541769742966,0.008564460091292858,-0.004825381562113762
1717858237537976600,5.8679765625,0.003555586328729987,0.008485097438097,-0.004745486658066511
1717858237548017400,5.878017333984375,0.005043228156864643,0.010717625729739666,-0.0057319216430187225
1717858237558058500,5.88805859375,0.0044349622912704945,0.008162322454154491,-0.005565473809838295
1717858237568098600,5.8980986328125,0.0057284594513475895,0.009987386874854565,-0.006404103245586157
1717858237578139600,5.9081396484375,0.004417917691171169,0.009018528275191784,-0.006597182713449001
1717858237588180500,5.918180419921875,0.0021105550695210695,0.008465656079351902,-0.006675213109701872
1717858237598220300,5.92822021484375,0.004050135146826506,0.010183927603065968,-0.006395581178367138
1717858237608261400,5.938261474609375,0.003728425595909357,0.00987207144498825,-0.005810218397527933
1717858237618301400,5.948301513671875,0.004549744538962841,0.008612928912043571,-0.005873868241906166
1717858237628342300,5.95834228515625,0.004524177871644497,0.00977460015565157,-0.006562827620655298
1717858237638383400,5.96838330078125,0.0038301581516861916,0.010588462464511395,-0.006222209427505732
1717858237648423400,5.97842333984375,0.002406965009868145,0.00917352456599474,-0.005328719038516283
1717858237658464500,5.988464599609375,0.0038245655596256256,0.010056096129119396,-0.005397428758442402
1717858237668505300,5.99850537109375,0.0030828751623630524,0.0088789789006114,-0.006068544927984476
1717858237678545200,6.008545166015625,0.004485296085476875,0.008860336616635323,-0.007062703371047974
1717858237688586200,6.018586181640625,0.004826180636882782,0.010243049822747707,-0.004425374791026115
1717858237698627300,6.02862744140625,0.004474110435694456,0.008359395898878574,-0.006624879315495491
1717858237708667400,6.03866748046875,0.004142280668020248,0.00857431348413229,-0.00629065278917551
1717858237718708200,6.048708251953125,0.004021905828267336,0.007819839753210545,-0.006103964988142252
1717858237728749300,6.058749267578125,0.003320429241284728,0.00865980051457882,-0.0054914383217692375
1717858237738789400,6.068789306640625,0.00427144393324852,0.009162872098386288,-0.0062701464630663395
1717858237748830200,6.078830322265625,0.005096757784485817,0.00929443258792162,-0.006314088590443134
1717858237758871300,6.088871337890625,0.004010987002402544,0.009467271156609058,-0.004908205941319466
1717858237768911400,6.098911376953125,0.004368915688246489,0.008433165960013866,-0.006874683778733015
1717858237778952400,6.108952392578125,0.00478463526815176,0.009311210364103317,-0.005038434639573097
1717858237788992500,6.118992431640625,0.0035539884120225906,0.010559167712926865,-0.006572415120899677
1717858237799033300,6.129033447265625,0.003424558788537979,0.00951041467487812,-0.0052293832413852215
1717858237809074400,6.139074462890625,0.0034115093294531107,0.008790828287601471,-0.005477056838572025
1717858237819114500,6.149114501953125,0.003858920419588685,0.00905581284314394,-0.0062363240867853165
1717858237829155300,6.1591552734375,0.0035563854034990072,0.007880293764173985,-0.005702360533177853
1717858237839196400,6.169196533203125,0.002939064521342516,0.00902784988284111,-0.00564137427136302
1717858237849236200,6.179236328125,0.00364746549166739,0.008886968716979027,-0.005510879214853048
1717858237859277300,6.18927734375,0.0036645096261054277,0.007077350746840239,-0.0049066077917814255
1717858237869318100,6.199318115234375,0.003183809109032154,0.009664345532655716,-0.005250954534858465
1717858237879358200,6.209358154296875,0.003597131697461009,0.009158344939351082,-0.005810751114040613
1717858237889399300,6.2193994140625,0.003397927153855562,0.007772435434162617,-0.006149505265057087
1717858237899440400,6.2294404296875,0.0031009847298264503,0.009215069934725761,-0.006069610361009836
1717858237909480400,6.23948046875,0.003216566052287817,0.009975935332477093,-0.00589490681886673
1717858237919521300,6.249521240234375,0.0032919333316385746,0.008986837230622768,-0.006660033017396927
1717858237929561300,6.259561279296875,0.0034850125666707754,0.008982576429843903,-0.0068027786910533905
1717858237939602400,6.2696025390625,0.005294098053127527,0.009039035066962242,-0.00672288378700614
1717858237949643300,6.279643310546875,0.0033899378031492233,0.008460329845547676,-0.005317800212651491
1717858237959683300,6.289683349609375,0.0038432078436017036,0.009441970847547054,-0.005952964071184397
1717858237969724400,6.299724365234375,0.004782504867762327,0.009197493083775043,-0.0049460227601230145
1717858237979765500,6.309765625,0.0027300063520669937,0.010262491181492805,-0.006764961872249842
1717858237989805300,6.319805419921875,0.004729507956653833,0.009101619012653828,-0.007414773106575012
1717858237999846100,6.32984619140625,0.003917776048183441,0.009003082290291786,-0.005532184615731239
1717858238009887200,6.33988720703125,0.0027750139124691486,0.008886968716979027,-0.005928995553404093
1717858238019927300,6.34992724609375,0.004246144089847803,0.008912268094718456,-0.006219279952347279
1717858238029968400,6.359968505859375,0.00401604687795043,0.009649697691202164,-0.005608617328107357
1717858238040009200,6.37000927734375,0.0037979339249432087,0.009687514975667,-0.005893309134989977
1717858238050049300,6.38004931640625,0.0046823699958622456,0.008525843732059002,-0.0062547000125050545
1717858238060090400,6.39009033203125,0.0033723609521985054,0.008527708239853382,-0.006726878695189953
1717858238070130400,6.40013037109375,0.004260791465640068,0.010047308169305325,-0.006133526097983122
1717858238080171300,6.410171142578125,0.0034852789249271154,0.007940747775137424,-0.005534315016120672
1717858238090212400,6.42021240234375,0.002859169617295265,0.009702960960566998,-0.004393683280795813
1717858238100252400,6.43025244140625,0.005842975340783596,0.00917112734168768,-0.007201453670859337
1717858238110293500,6.44029345703125,0.0035976641811430454,0.008269115351140499,-0.006337790749967098
1717858238120334300,6.450334228515625,0.003899933071807027,0.010528008453547955,-0.006512494292110205
1717858238130374400,6.46037451171875,0.0033931334037333727,0.009030512534081936,-0.005370530765503645
1717858238140415500,6.47041552734375,0.0034677020739763975,0.010113087482750416,-0.005494633689522743
1717858238150456300,6.480456298828125,0.004339887294918299,0.009287241846323013,-0.005147890187799931
1717858238160496000,6.49049609375,0.005348426289856434,0.009886186569929123,-0.007225954905152321
1717858238170537200,6.500537109375,0.0036695697344839573,0.0091732582077384,-0.007289338391274214
1717858238180578300,6.510578369140625,0.003162770066410303,0.010482202284038067,-0.006256031803786755
1717858238190618400,6.520618408203125,0.003564907470718026,0.010162889026105404,-0.005073588341474533
1717858238200659200,6.5306591796875,0.003108707955107093,0.009100288152694702,-0.00700730923563242
1717858238210700300,6.5407001953125,0.004379035905003548,0.009784453548491001,-0.004746552091091871
1717858238220740400,6.550740234375,0.005042429082095623,0.008723982609808445,-0.005690908990800381
1717858238230781400,6.560781494140625,0.004455734975636005,0.008593222126364708,-0.005741775035858154
1717858238240821200,6.5708212890625,0.004987834487110376,0.007939415983855724,-0.005597165785729885
1717858238250862300,6.5808623046875,0.00475507415831089,0.008309861645102501,-0.0049430932849645615
1717858238260903400,6.5909033203125,0.004744953941553831,0.009153018705546856,-0.004835501778870821
1717858238270943500,6.600943603515625,0.002740659052506089,0.008468319661915302,-0.006344715133309364
1717858238280984300,6.610984375,0.00392762990668416,0.009623332880437374,-0.005636047571897507
1717858238291025400,6.621025390625,0.0037406759802252054,0.008349276147782803,-0.006322877015918493
1717858238301065500,6.6310654296875,0.0029904635157436132,0.008844624273478985,-0.004958007019013166
1717858238311106600,6.6411064453125,0.004024302586913109,0.00917166005820036,-0.007405718322843313
1717858238321147400,6.6511474609375,0.003852262394502759,0.009394832886755466,-0.0046362970024347305
1717858238331187200,6.661187255859375,0.006171875633299351,0.008256065659224987,-0.006572947837412357
1717858238341228300,6.671228271484375,0.0020900487434118986,0.009592706337571144,-0.004911668132990599
1717858238351269000,6.68126904296875,0.003966245800256729,0.008383098058402538,-0.006439523305743933
1717858238361309200,6.69130908203125,0.005600893869996071,0.00914156623184681,-0.005387308541685343
1717858238371350300,6.701350341796875,0.0028543761000037193,0.008469651453197002,-0.004298608284443617
1717858238381390300,6.711390380859375,0.0031217574141919613,0.009645703248679638,-0.006524478085339069
1717858238391431400,6.721431396484375,0.0036525253672152758,0.007657120935618877,-0.004708202555775642
1717858238401472300,6.73147216796875,0.004794488660991192,0.009621468372642994,-0.005594768561422825
1717858238411512300,6.74151220703125,0.005245628301054239,0.009224923327565193,-0.006201969459652901
1717858238421553400,6.751553466796875,0.006420082412660122,0.010367419570684433,-0.0054999603889882565
1717858238431594500,6.761594482421875,0.002981142606586218,0.009151420556008816,-0.005543636158108711
1717858238441634300,6.77163427734375,0.0037257622461766005,0.009018528275191784,-0.0052259210497140884
1717858238451675400,6.78167529296875,0.0029675604309886694,0.01005343347787857,-0.003599262097850442
1717858238461716500,6.791716552734375,0.00376064982265234,0.00833915639668703,-0.006400641519576311
1717858238471756300,6.80175634765625,0.004456267226487398,0.009434781037271023,-0.0057497648522257805
1717858238481797000,6.811797119140625,0.003245594445616007,0.00945155881345272,-0.00512844929471612
1717858238491838200,6.821838134765625,0.004631237126886845,0.008826514706015587,-0.004177434369921684
1717858238501878300,6.831878173828125,0.0034589136485010386,0.009614011272788048,-0.004479703027755022
1717858238511919400,6.84191943359375,0.004686364438384771,0.010877680964767933,-0.00458676228299737
1717858238521960200,6.851960205078125,0.003564907470718026,0.006170544307678938,-0.005309544038027525
1717858238532000300,6.862000244140625,0.003959321416914463,0.008795089088380337,-0.00472551304847002
1717858238542041300,6.872041259765625,0.004008057527244091,0.008919991552829742,-0.0059745353646576405
1717858238552081400,6.882081298828125,0.003778226673603058,0.008780442178249359,-0.0052203284576535225
1717858238562122200,6.892122314453125,0.002977414056658745,0.00700970645993948,-0.0041489386931061745
1717858238572163300,6.902163330078125,0.003394198836758733,0.008580172434449196,-0.005489573813974857
1717858238582203400,6.912203369140625,0.0036189695820212364,0.009663280099630356,-0.006234726402908564
1717858238592244500,6.922244384765625,0.0007424892974086106,0.009253153577446938,-0.0067545752972364426
1717858238602285300,6.932285400390625,0.003835750976577401,0.009583118371665478,-0.006652842741459608
1717858238612325400,6.942325439453125,0.005311142187565565,0.008423578925430775,-0.006632070057094097
1717858238622366200,6.9523662109375,0.0033217607997357845,0.008531969040632248,-0.005915945861488581
1717858238632407300,6.9624072265625,0.004036553204059601,0.009677660651504993,-0.006434463430196047
1717858238642447000,6.972447021484375,0.003765976056456566,0.00884808599948883,-0.006274407263845205
1717858238652488000,6.982488037109375,0.003837881376966834,0.00933011807501316,-0.006136721931397915
1717858238662529000,6.992529052734375,0.0027808728627860546,0.007744472473859787,-0.005122057627886534
1717858238672569000,7.002569091796875,0.004536162130534649,0.010305901058018208,-0.0054331147111952305
1717858238682610000,7.01260986328125,0.0035582494456321,0.011473430320620537,-0.006286924239248037
1717858238692650000,7.02264990234375,0.0034583809319883585,0.010239588096737862,-0.0043835630640387535
1717858238702691000,7.032691162109375,0.003597398055717349,0.009860353544354439,-0.0062110242433846
1717858238712732200,7.042732177734375,0.0054128747433424,0.009468602947890759,-0.007020092569291592
1717858238722772200,7.052772216796875,0.004313255660235882,0.00938897393643856,-0.004258394706994295
1717858238732813000,7.06281298828125,0.004210191313177347,0.009436644613742828,-0.006566023454070091
1717858238742854100,7.072854248046875,0.003507116809487343,0.00902651809155941,-0.005126585252583027
1717858238752894200,7.082894287109375,0.004624845460057259,0.009815080091357231,-0.006107693538069725
1717858238762935000,7.09293505859375,0.004627774935215712,0.007543403655290604,-0.006524212192744017
1717858238772976000,7.10297607421875,0.004206462763249874,0.00917538907378912,-0.005894374568015337
1717858238783016000,7.113015869140625,0.004626443609595299,0.010289122350513935,-0.0070131681859493256
1717858238793057000,7.12305712890625,0.004584099166095257,0.010321347042918205,-0.005466138012707233
1717858238803097900,7.133097900390625,0.004006725735962391,0.008550344966351986,-0.005391303449869156
1717858238813138000,7.143137939453125,0.004576908424496651,0.009841712191700935,-0.00392842898145318
1717858238823179000,7.153178955078125,0.004102866165339947,0.009709086269140244,-0.004856008104979992
1717858238833219000,7.163218994140625,0.003719104453921318,0.008100536651909351,-0.005017129238694906
1717858238843260200,7.17326025390625,0.004776113200932741,0.00993279181420803,-0.005464806687086821
1717858238853301000,7.183301025390625,0.003184075467288494,0.007923436351120472,-0.005813414230942726
1717858238863341000,7.193341064453125,0.0033182986080646515,0.009504822082817554,-0.005595567636191845
1717858238873382100,7.203382080078125,0.004548412747681141,0.010326140560209751,-0.005575061310082674
1717858238883423000,7.213423095703125,0.003510312642902136,0.008256598375737667,-0.005376123357564211
1717858238893463000,7.223463134765625,0.0044259075075387955,0.009662214666604996,-0.005387841258198023
1717858238903504100,7.233504150390625,0.00475480780005455,0.008787100203335285,-0.005429386626929045
1717858238913545200,7.243545166015625,0.003593403147533536,0.009868343360722065,-0.006359362509101629
1717858238923585300,7.253585205078125,0.004196875728666782,0.009564743377268314,-0.005537510849535465
1717858238933626000,7.263626220703125,0.002731071785092354,0.00881160143762827,-0.003451190423220396
1717858238943667200,7.273667236328125,0.0021582257468253374,0.008944492787122726,-0.005880792159587145
1717858238953707000,7.28370703125,0.0033862092532217503,0.008459264412522316,-0.006009689066559076
1717858238963748000,7.293748046875,0.00370072852820158,0.008863532915711403,-0.0049492185935378075
1717858238973789000,7.303788818359375,0.005008607171475887,0.009394832886755466,-0.0051984903402626514
1717858238983829000,7.3138291015625,0.0033193640410900116,0.009640110656619072,-0.004852545913308859
1717858238993870000,7.3238701171875,0.0038005972746759653,0.00929416622966528,-0.006429669912904501
1717858239003910100,7.33391015625,0.004239752423018217,0.008767658844590187,-0.005793973337858915
1717858239013951000,7.343950927734375,0.005030178464949131,0.009178318083286285,-0.005339637864381075
1717858239023992000,7.353991943359375,0.004555869847536087,0.008212655782699585,-0.005044293589890003
1717858239034032000,7.3640322265625,0.0037409423384815454,0.008657404221594334,-0.005557218100875616
1717858239044073200,7.3740732421875,0.0034557178150862455,0.009562878869473934,-0.006396912969648838
1717858239054114000,7.384114013671875,0.0035451999865472317,0.009642240591347218,-0.007256581448018551
1717858239064154000,7.394154052734375,0.00458756135776639,0.009816411882638931,-0.006185724399983883
1717858239074195200,7.4041953125,0.002007490722462535,0.010696319863200188,-0.006143912672996521
1717858239084236000,7.414236083984375,0.004309260752052069,0.008419583551585674,-0.005724464543163776
1717858239094276000,7.424276123046875,0.004597414750605822,0.009366337209939957,-0.007154848426580429
1717858239104317200,7.434317138671875,0.004815527703613043,0.008769789710640907,-0.00495054991915822
1717858239114358300,7.444358154296875,0.005453355144709349,0.010063819587230682,-0.00589677132666111
1717858239124398000,7.454398193359375,0.003067695302888751,0.009693107567727566,-0.006566822528839111
1717858239134439000,7.46443896484375,0.002573412610217929,0.009856891818344593,-0.0060328589752316475
1717858239144479000,7.47447900390625,0.004566788673400879,0.008923454210162163,-0.005595034919679165
1717858239154520000,7.48452001953125,0.003984888084232807,0.010212424211204052,-0.005818474106490612
1717858239164561200,7.49456103515625,0.0043295007199049,0.009121593087911606,-0.005497563164681196
1717858239174601000,7.50460107421875,0.004295678809285164,0.009750897996127605,-0.006088519003242254
1717858239184642000,7.51464208984375,0.0025246767327189445,0.008220645599067211,-0.006322344299405813
1717858239194683100,7.52468310546875,0.0036448021419346333,0.008142881095409393,-0.0054275221191346645
1717858239204723200,7.53472314453125,0.00484429020434618,0.009972472675144672,-0.006617156323045492
1717858239214764000,7.544763916015625,0.004781705792993307,0.009250489994883537,-0.006485063582658768
1717858239224805000,7.55480517578125,0.0021169467363506556,0.00893810112029314,-0.0056949034333229065
1717858239234845200,7.56484521484375,0.0035364115610718727,0.008738630451261997,-0.005849367007613182
1717858239244886300,7.57488623046875,0.0028157602064311504,0.009165002964437008,-0.0056770602241158485
1717858239254927000,7.584927001953125,0.0035539884120225906,0.0091130705550313,-0.005262140184640884
1717858239264967000,7.594966796875,0.0038301581516861916,0.009281915612518787,-0.005152417812496424
1717858239275008000,7.605008056640625,0.003908987622708082,0.009819074533879757,-0.0054184673354029655
1717858239285049000,7.615049072265625,0.0028844696935266256,0.009546633809804916,-0.004890629090368748
1717858239295089000,7.6250888671875,0.004504470620304346,0.009342635050415993,-0.007509049028158188
1717858239305130000,7.6351298828125,0.005441104527562857,0.00956873781979084,-0.006137521006166935
1717858239315170000,7.645170166015625,0.0017574200173839927,0.008884837850928307,-0.005649363622069359
1717858239325211100,7.655211181640625,0.0037204360123723745,0.009470201097428799,-0.0046328348107635975
1717858239335252000,7.665251953125,0.003263437654823065,0.008185225538909435,-0.00695085059851408
1717858239345292000,7.6752919921875,0.004096208140254021,0.008639294654130936,-0.004671184346079826
1717858239355333000,7.6853330078125,0.004342017695307732,0.009978331625461578,-0.004688761197030544
1717858239365374200,7.695374267578125,0.0032320122700184584,0.008254201151430607,-0.006728742737323046
1717858239375414000,7.7054140625,0.0030210898257791996,0.009640110656619072,-0.005322327371686697
1717858239385455000,7.715455078125,0.0015563513152301311,0.009266468696296215,-0.006500776391476393
1717858239395496200,7.72549609375,0.003412840887904167,0.00996448379009962,-0.005116198677569628
1717858239405536300,7.735536376953125,0.0021941782906651497,0.008296279236674309,-0.00455613574013114
1717858239415577000,7.7455771484375,0.00529676117002964,0.008922388777136803,-0.005717274267226458
1717858239425618200,7.7556181640625,0.006479470990598202,0.008709069341421127,-0.005764412228018045
1717858239435658000,7.765657958984375,0.0038368161767721176,0.008889098651707172,-0.0024402544368058443
1717858239445699000,7.775698974609375,0.005083175376057625,0.008620119653642178,-0.006274673622101545
1717858239455740000,7.785739990234375,0.00458622956648469,0.008566590026021004,-0.004759334959089756
1717858239465780000,7.795780029296875,0.005279717035591602,0.00893810112029314,-0.00606481684371829
1717858239475821000,7.805821044921875,0.0023813985753804445,0.010269415564835072,-0.005185707006603479
1717858239485861000,7.815861083984375,0.004481567535549402,0.008889365009963512,-0.00512871565297246
1717858239495902000,7.82590185546875,0.0030357372015714645,0.008197209797799587,-0.005642172880470753
1717858239505943000,7.835943115234375,0.0037143107037991285,0.010231331922113895,-0.005899700801819563
1717858239515983000,7.845983154296875,0.004047472029924393,0.009649697691202164,-0.005470665637403727
1717858239526024200,7.856024169921875,0.002971555106341839,0.008772718720138073,-0.005951365921646357
1717858239536065000,7.86606494140625,0.0026756778825074434,0.008648348972201347,-0.006354568526148796
1717858239546105000,7.87610498046875,0.0027630296535789967,0.00948165263980627,-0.004348942078649998
1717858239556146200,7.886146240234375,0.003204315435141325,0.008379369974136353,-0.004795021377503872
1717858239566187300,7.896187255859375,0.0043864925391972065,0.007727960590273142,-0.005252552684396505
1717858239576227000,7.90622705078125,0.004099137615412474,0.009488044306635857,-0.006351639050990343
1717858239586268200,7.91626806640625,0.0032658344134688377,0.00893570389598608,-0.0062331282533705235
1717858239596309200,7.926309326171875,0.0032144354190677404,0.009127718396484852,-0.005407814867794514
1717858239606349000,7.93634912109375,0.004231230355799198,0.009456885047256947,-0.006248041987419128
1717858239616390000,7.946389892578125,0.004579572007060051,0.008672583848237991,-0.006307696923613548
1717858239626431500,7.956431396484375,0.003591272747144103,0.009908290579915047,-0.005184642039239407
1717858239636471600,7.966471435546875,0.004600078333169222,0.00893597025424242,-0.0037822213489562273
1717858239646512400,7.976512451171875,0.00395665830001235,0.009186574257910252,-0.005459479987621307
1717858239656552200,7.98655224609375,0.005330583080649376,0.009317335672676563,-0.005307413637638092
1717858239666593300,7.99659326171875,0.00404614070430398,0.009197759442031384,-0.006261890754103661
1717858239676634400,8.00663427734375,0.0033965955954045057,0.008278968743979931,-0.004706604406237602
1717858239686674400,8.01667431640625,0.0025811356026679277,0.009588711895048618,-0.0062696137465536594
1717858239696715300,8.02671533203125,0.004376638680696487,0.0079159801825881,-0.006073338910937309
1717858239706756400,8.03675634765625,0.005107942968606949,0.009731722995638847,-0.006208094768226147
1717858239716796400,8.04679638671875,0.004413124173879623,0.00890800729393959,-0.00520727876573801
1717858239726837500,8.05683740234375,0.0034914042335003614,0.0095082838088274,-0.0065436530858278275
1717858239736878300,8.06687841796875,0.0041002025827765465,0.00953731220215559,-0.005480519030243158
1717858239746918400,8.07691845703125,0.004507400095462799,0.010890730656683445,-0.004960670135915279
1717858239756959500,8.08695947265625,0.004540423396974802,0.00923104863613844,-0.007511978503316641
1717858239767000300,8.097000244140625,0.005694637540727854,0.009815080091357231,-0.006772951222956181
1717858239777040400,8.107040283203125,0.003763046581298113,0.011274758726358414,-0.005044293589890003
1717858239787081500,8.11708154296875,0.0043561323545873165,0.008406267501413822,-0.00509835546836257
1717858239797122600,8.12712255859375,0.004062119405716658,0.00893836747854948,-0.006974552292376757
1717858239807162600,8.13716259765625,0.004650411661714315,0.009215069934725761,-0.006417685654014349
1717858239817203500,8.147203369140625,0.005405151750892401,0.008735700510442257,-0.0065559037029743195
1717858239827243300,8.1572431640625,0.0038924762047827244,0.00890640914440155,-0.0065039717592298985
1717858239837284400,8.167284423828125,0.0031180288642644882,0.008710933849215508,-0.005885319784283638
1717858239847325400,8.177325439453124,0.00330311874859035,0.010268083773553371,-0.0043532028794288635
1717858239857365200,8.187365234375,0.006551908794790506,0.009768208488821983,-0.006174538750201464
1717858239867406300,8.19740625,0.003562244353815913,0.009166866540908813,-0.005556685384362936
1717858239877447400,8.207447509765625,0.004642955027520657,0.007926366291940212,-0.005775064695626497
1717858239887487500,8.217487548828124,0.004010987002402544,0.010312026366591454,-0.0054360441863536835
1717858239897528300,8.2275283203125,0.0036602485924959183,0.007586546707898378,-0.0067993164993822575
1717858239907569400,8.2375693359375,0.0054453653283417225,0.008488825522363186,-0.006803844124078751
1717858239917609500,8.247609375,0.0027316042687743902,0.010582603514194489,-0.006048304960131645
1717858239927650600,8.257650634765625,0.002316950121894479,0.010113353841006756,-0.004484497010707855
1717858239937691400,8.26769140625,0.0035321505274623632,0.009474461898207664,-0.004852279555052519
1717858239947731500,8.2777314453125,0.004102866165339947,0.008388158865272999,-0.005899168085306883
1717858239957772500,8.2877724609375,0.0023299995809793472,0.009282448329031467,-0.006188653875142336
1717858239967813400,8.2978134765625,0.004304733593016863,0.008231564424932003,-0.006493585649877787
1717858239977853200,8.307853271484374,0.0027212179265916348,0.009794041514396667,-0.006418750621378422
1717858239987894300,8.317894287109375,0.003984621725976467,0.009929330088198185,-0.004858937580138445
1717858239997934300,8.327934326171874,0.0039020637050271034,0.009944509714841843,-0.005290635861456394
1717858240007975400,8.337975341796875,0.003020024625584483,0.00951201282441616,-0.005130846053361893
1717858240018016300,8.348016357421875,0.003650394966825843,0.00953704584389925,-0.005771336145699024
1717858240028056300,8.358056396484375,0.0032948628067970276,0.009976201690733433,-0.005347893573343754
1717858240038097400,8.368097412109375,0.004534298088401556,0.00908777117729187,-0.004811799619346857
1717858240048138500,8.378138427734376,0.004032026045024395,0.007637945935130119,-0.0052118063904345036
1717858240058178300,8.38817822265625,0.005643504671752453,0.008459530770778656,-0.005506884306669235
1717858240068219400,8.398219482421876,0.003834951901808381,0.00899695698171854,-0.006624080706387758
1717858240078260500,8.408260498046875,0.0020237360149621964,0.008657936938107014,-0.00657454552128911
1717858240088300500,8.418300537109374,0.003084206720814109,0.007505853194743395,-0.006070675794035196
1717858240098341400,8.42834130859375,0.0037555897142738104,0.009818275459110737,-0.004766259342432022
1717858240108382500,8.438382568359375,0.0033774208277463913,0.010408432222902775,-0.0054674698039889336
1717858240118422500,8.448422607421875,0.003394465195015073,0.010241186246275902,-0.005615008994936943
1717858240128463600,8.458463623046875,0.003959055058658123,0.008835303597152233,-0.006484797224402428
1717858240138504400,8.46850439453125,0.0058080879971385,0.007966047152876854,-0.005651760380715132
1717858240148544300,8.478544189453125,0.0031523837242275476,0.009254218079149723,-0.005902896635234356
1717858240158585300,8.48858544921875,0.0036826191935688257,0.009455553255975246,-0.005136705003678799
1717858240168625400,8.49862548828125,0.003154514357447624,0.009976734407246113,-0.0062336609698832035
1717858240178666200,8.508666259765626,0.0041065942496061325,0.008923720568418503,-0.00561021501198411
1717858240188707300,8.518707275390625,0.004142014309763908,0.009514409117400646,-0.006173473782837391
1717858240198747400,8.528747314453126,0.0024314660113304853,0.010493920184671879,-0.005673598498106003
1717858240208788500,8.53878857421875,0.005856025032699108,0.00953837763518095,-0.006095709279179573
1717858240218829300,8.548829345703124,0.003624029690399766,0.008235825225710869,-0.006204099860042334
1717858240228869400,8.558869384765625,0.005218197591602802,0.009370066225528717,-0.004195011220872402
1717858240238910500,8.568910400390624,0.003418966196477413,0.00914422981441021,-0.00628905463963747
1717858240248951600,8.57895166015625,0.006774016655981541,0.009731989353895187,-0.007029946427792311
1717858240258991400,8.588991455078125,0.005119927227497101,0.008570052683353424,-0.006521548610180616
1717858240269032400,8.599032470703126,0.004707936197519302,0.007812649011611938,-0.005614476278424263
1717858240279073500,8.609073486328125,0.003058107802644372,0.00851199496537447,-0.005216333549469709
1717858240289113600,8.619113525390626,0.0036368127912282944,0.009251022711396217,-0.005320729687809944
1717858240299154400,8.629154541015625,0.0036069853231310844,0.009299226105213165,-0.005306880921125412
1717858240309194200,8.6391943359375,0.004749215207993984,0.010263023898005486,-0.005616873037070036
1717858240319235300,8.6492353515625,0.0038695731200277805,0.007878429256379604,-0.005676261615008116
1717858240329276400,8.6592763671875,0.004771585576236248,0.008150071837008,-0.0049071405082941055
1717858240339316500,8.66931640625,0.004280498716980219,0.008817460387945175,-0.006957508157938719
1717858240349357300,8.679357421875,0.004298341926187277,0.009939716197550297,-0.006102900020778179
1717858240359398400,8.6893984375,0.004255997482687235,0.009290969930589199,-0.007240868639200926
1717858240369438500,8.6994384765625,0.004504736978560686,0.009311210364103317,-0.005464540328830481
1717858240379479300,8.709479248046875,0.0046757119707763195,0.008963135071098804,-0.004849083721637726
1717858240389520400,8.719520263671875,0.004729241598397493,0.008709335699677467,-0.005197159014642239
1717858240399560400,8.729560546875,0.0037201696541160345,0.010084858164191246,-0.0054429685696959496
1717858240409601500,8.7396015625,0.004070375580340624,0.00914689339697361,-0.006638461723923683
1717858240419642400,8.749642333984376,0.003900465788319707,0.008323975838720798,-0.007181213703006506
1717858240429682400,8.759682373046875,0.004942027851939201,0.008432899601757526,-0.005218730308115482
1717858240439723500,8.7697236328125,0.0035140409599989653,0.009297095239162445,-0.005061870440840721
1717858240449764600,8.7797646484375,0.004431500099599361,0.008687231689691544,-0.005874400492757559
1717858240459804400,8.789804443359374,0.003148389048874378,0.008801747113466263,-0.005813946947455406
1717858240469845200,8.79984521484375,0.0054301852360367775,0.010333331301808357,-0.004355866461992264
1717858240479886600,8.809886474609375,0.0037670412566512823,0.009282448329031467,-0.005918342620134354
1717858240489926400,8.819926513671875,0.003695135936141014,0.009830792434513569,-0.007620635442435741
1717858240499967200,8.82996728515625,0.003861583536490798,0.009516539983451366,-0.007440605666488409
1717858240510007300,8.84000732421875,0.003608583239838481,0.009491772390902042,-0.005681055132299662
1717858240520048400,8.85004833984375,0.004355333745479584,0.009272061288356781,-0.004805940669029951
1717858240530089500,8.86008935546875,0.004867459647357464,0.010184193961322308,-0.006740460637956858
1717858240540129500,8.870129638671875,0.004553738981485367,0.010392986238002777,-0.006274407263845205
1717858240550170400,8.88017041015625,0.0020242687314748764,0.009411345236003399,-0.00541340745985508
1717858240560211500,8.89021142578125,0.0026493126060813665,0.009267267771065235,-0.0062578958459198475
1717858240570251500,8.90025146484375,0.004070907831192017,0.010003898292779922,-0.0056863813661038876
1717858240580292400,8.910292236328125,0.004356931429356337,0.010569820180535316,-0.00612340634688735
1717858240590333400,8.92033349609375,0.005968144163489342,0.009035573340952396,-0.00424401368945837
1717858240600373500,8.93037353515625,0.003296993440017104,0.009351157583296299,-0.0054544201120734215
1717858240610414600,8.94041455078125,0.004884237423539162,0.009167132899165154,-0.00504056503996253
1717858240620455700,8.95045556640625,0.003930559381842613,0.009564210660755634,-0.006717024836689234
1717858240630495700,8.960495849609375,0.005058408249169588,0.009393502026796341,-0.005075718741863966
1717858240640536800,8.970536865234376,0.0036336169578135014,0.009750631637871265,-0.005065065808594227
1717858240650577700,8.98057763671875,0.0034906051587313414,0.008715993724763393,-0.005861617624759674
1717858240660617700,8.99061767578125,0.004743622615933418,0.00845713447779417,-0.005090632475912571
1717858240670658800,9.000658935546875,0.004729241598397493,0.009209477342665195,-0.006195844151079655
1717858240680699000,9.010698974609374,0.0031515848822891712,0.009501359425485134,-0.005253351293504238
1717858240690740000,9.020739990234375,0.004281830508261919,0.009971407242119312,-0.005044027231633663
1717858240700780800,9.03078076171875,0.003126284806057811,0.00833968911319971,-0.006400641519576311
1717858240710820600,9.040820556640625,0.004034689161926508,0.009060606360435486,-0.005570534151047468
1717858240720861700,9.05086181640625,0.006105030421167612,0.009236108511686325,-0.0070946612395346165
1717858240730902800,9.06090283203125,0.004052798729389906,0.009909888729453087,-0.006955910474061966
1717858240740942600,9.070942626953125,0.0034850125666707754,0.009739712812006474,-0.006085323169827461
1717858240750983700,9.080983642578126,0.004201669245958328,0.008177502080798149,-0.005976666230708361
1717858240761024800,9.091024658203125,0.004491420928388834,0.00824035331606865,-0.005514607764780521
1717858240771064800,9.10106494140625,0.0041792988777160645,0.010201504454016685,-0.007306116167455912
1717858240781105700,9.111105712890625,0.004192081745713949,0.008782838471233845,-0.00490181427448988
1717858240791146800,9.121146728515624,0.003808053908869624,0.010428939014673233,-0.005795837379992008
1717858240801186800,9.131186767578125,0.004163586068898439,0.008926383219659328,-0.00612180819734931
1717858240811228000,9.141227783203124,0.003724430687725544,0.008668589405715466,-0.006461095064878464
1717858240821268700,9.151268798828125,0.0029324067290872335,0.009312009438872337,-0.0044165863655507565
1717858240831308800,9.161308837890624,0.00455746753141284,0.0089404983446002,-0.004898884799331427
1717858240841350000,9.171349853515625,0.0046970173716545105,0.00857244897633791,-0.0043651871383190155
1717858240851390700,9.181390625,0.003823500359430909,0.009216401726007462,-0.006626211106777191
1717858240861430800,9.1914306640625,0.002922020386904478,0.011140269227325916,-0.006315154023468494
1717858240871471900,9.201471923828125,0.004992894362658262,0.008521849289536476,-0.006514624692499638
1717858240881511700,9.21151171875,0.005285841878503561,0.00788269005715847,-0.004520449787378311
1717858240891552800,9.221552734375,0.0060267336666584015,0.00752156600356102,-0.006203301250934601
1717858240901593600,9.231593505859376,0.005063468124717474,0.010184460319578648,-0.006670685950666666
1717858240911633700,9.241633544921875,0.003649862250313163,0.0083085298538208,-0.005513808690011501
1717858240921674800,9.2516748046875,0.0042733084410429,0.00887684803456068,-0.007133277133107185
1717858240931715800,9.2617158203125,0.005083708092570305,0.009579123929142952,-0.006296245381236076
1717858240941755600,9.271755615234374,0.0029859361238777637,0.009418003261089325,-0.005149221979081631
1717858240951796700,9.281796630859375,0.005309810396283865,0.009981794282793999,-0.005386775825172663
1717858240961837800,9.291837890625,0.005381982307881117,0.008382033556699753,-0.006842725910246372
1717858240971878000,9.3018779296875,0.003608849598094821,0.011441206559538841,-0.005893841851502657
1717858240981918700,9.311918701171875,0.004569718148559332,0.009489108808338642,-0.006419549696147442
1717858240991959800,9.321959716796876,0.00464694993570447,0.009552492760121822,-0.004818190820515156
1717858241002000000,9.331999755859375,0.004794222768396139,0.0075663067400455475,-0.006490123458206654
1717858241012041000,9.342041015625,0.0021763353142887354,0.011079282499849796,-0.0059995693154633045
1717858241022081800,9.352081787109375,0.0017528926255181432,0.007867510430514812,-0.006702910177409649
1717858241032121900,9.362121826171874,0.0039009982720017433,0.008980978280305862,-0.007068828213959932
1717858241042163000,9.372162841796875,0.005791576579213142,0.008524778299033642,-0.006904244888573885
1717858241052202800,9.38220263671875,0.0020793962758034468,0.00785392802208662,-0.0071037160232663155
1717858241062243600,9.39224365234375,0.0036253612488508224,0.008782572112977505,-0.006374276243150234
1717858241072284700,9.40228466796875,0.005583050660789013,0.009388175792992115,-0.005420864559710026
1717858241082324700,9.41232470703125,0.0049649314023554325,0.009165002964437008,-0.006330067757517099
1717858241092365800,9.42236572265625,0.003965446725487709,0.00956953689455986,-0.0049135321751236916
1717858241102406700,9.43240673828125,0.0038780951872467995,0.009092831052839756,-0.0057502975687384605
1717858241112446700,9.44244677734375,0.0035060516092926264,0.010104832239449024,-0.006138852797448635
1717858241122487800,9.45248779296875,0.004084756597876549,0.010919759050011635,-0.005532717332243919
1717858241132529000,9.46252880859375,0.0016146745765581727,0.0101362569257617,-0.004511395003646612
1717858241142568700,9.472568603515626,0.003290601773187518,0.008745821192860603,-0.00618172949180007
1717858241152609800,9.48260986328125,0.005404352676123381,0.009221994318068027,-0.006944725289940834
1717858241162651000,9.49265087890625,0.00390259618870914,0.009006012231111526,-0.004486094694584608
1717858241172691000,9.50269091796875,0.003728159237653017,0.009350358508527279,-0.004475175868719816
1717858241182731800,9.512731689453124,0.0035691685043275356,0.009739712812006474,-0.0051897019147872925
1717858241192772900,9.52277294921875,0.004326038993895054,0.008900816552340984,-0.006975351367145777
1717858241202812700,9.532812744140625,0.0033771544694900513,0.008477906696498394,-0.005288239102810621
1717858241212853800,9.542853759765626,0.003430684097111225,0.009334379807114601,-0.005906891077756882
1717858241222893800,9.552893798828125,0.004794222768396139,0.0102592958137393,-0.0068238177336752415
1717858241232934700,9.5629345703125,0.005145493429154158,0.006848584860563278,-0.005416336935013533
1717858241242975700,9.572975830078125,0.004189684987068176,0.008328503929078579,-0.006870955694466829
1717858241253015800,9.583015869140626,0.003060770919546485,0.008871255442500114,-0.005164934787899256
1717858241263056600,9.593056640625,0.0030032468494027853,0.008668323047459126,-0.005248824134469032
1717858241273097700,9.60309765625,0.0044171190820634365,0.009554089978337288,-0.006816360633820295
1717858241283137800,9.6131376953125,0.004172374494373798,0.00836711935698986,-0.006022472400218248
1717858241293179000,9.623178955078124,0.00421391986310482,0.009974070824682713,-0.005244030617177486
1717858241303219700,9.6332197265625,0.0038211036007851362,0.010364490561187267,-0.005148156546056271
1717858241313259800,9.643259765625,0.004611796233803034,0.009247028268873692,-0.006401706486940384
1717858241323300900,9.65330078125,0.0040735709480941296,0.00968538410961628,-0.0062736086547374725
1717858241333342000,9.663342041015625,0.003934820648282766,0.008212389424443245,-0.005786249879747629
1717858241343381800,9.6733818359375,0.004850947763770819,0.009668606333434582,-0.006985737942159176
1717858241353422800,9.6834228515625,0.0044264402240514755,0.008963135071098804,-0.005905826110392809
1717858241363464000,9.6934638671875,0.0035052525345236063,0.009308014065027237,-0.005557484459131956
1717858241373503700,9.703503662109375,0.0035888757556676865,0.00911520142108202,-0.006582801695913076
1717858241383544600,9.713544677734374,0.004083957523107529,0.00948111992329359,-0.005830458365380764
1717858241393585700,9.723585693359375,0.0035089810844510794,0.008494418114423752,-0.005298358853906393
1717858241403625700,9.733625732421874,0.0034077810123562813,0.008914665319025517,-0.006335127633064985
1717858241413666800,9.743666748046875,0.0034059167373925447,0.009346097707748413,-0.00555189186707139
1717858241423707000,9.753706787109374,0.003480751533061266,0.010702445171773434,-0.006384662352502346
1717858241433747700,9.763747802734375,0.004529770463705063,0.009469402022659779,-0.006016879808157682
1717858241443788800,9.773788818359375,0.00401737866923213,0.00884781964123249,-0.0067724185064435005
1717858241453828900,9.783828857421875,0.004428304266184568,0.008342351764440536,-0.00654551712796092
1717858241463869700,9.79386962890625,0.004411792848259211,0.009435845538973808,-0.0037832865491509438
1717858241473910800,9.803910888671876,0.004466920159757137,0.009380185976624489,-0.006188121158629656
1717858241483950800,9.813950927734375,0.004624579101800919,0.008733304217457771,-0.006852313410490751
1717858241493992000,9.823991943359376,0.005143895745277405,0.00980549305677414,-0.006000634748488665
1717858241504032800,9.83403271484375,0.004425108432769775,0.00917112734168768,-0.005853361915796995
1717858241514072800,9.84407275390625,0.0041039311327040195,0.007731955498456955,-0.006037119776010513
1717858241524114000,9.854114013671875,0.0046424223110079765,0.009927465580403805,-0.006563093978911638
1717858241534155000,9.864155029296874,0.003867975203320384,0.007538610137999058,-0.006209426559507847
1717858241544194800,9.87419482421875,0.004006992094218731,0.007880293764173985,-0.004715392831712961
1717858241554235600,9.884235595703124,0.0028762139845639467,0.008535963483154774,-0.006689327768981457
1717858241564276700,9.89427685546875,0.005231513641774654,0.008711200207471848,-0.005508216097950935
1717858241574316800,9.90431689453125,0.004268248099833727,0.008986570872366428,-0.006139385048300028
1717858241584357600,9.914357666015626,0.003206445835530758,0.008527441881597042,-0.005952431354671717
1717858241594397700,9.924397705078125,0.0036336169578135014,0.008777512237429619,-0.006630471907556057
1717858241604438800,9.934438720703126,0.0036546560004353523,0.009348227642476559,-0.005638711154460907
1717858241614480000,9.94447998046875,0.0028415927663445473,0.009882724843919277,-0.00552366254851222
1717858241624520000,9.95452001953125,0.0032895365729928017,0.009857424534857273,-0.005378520116209984
1717858241634561000,9.96456103515625,0.004489290527999401,0.008899219334125519,-0.005760683678090572
1717858241644602000,9.97460205078125,0.005055745132267475,0.009225189685821533,-0.005801429972052574
1717858241654642200,9.98464208984375,0.0029316076543182135,0.009251022711396217,-0.006325273774564266
1717858241664683000,9.99468310546875,0.003254649229347706,0.009221727959811687,-0.006193447392433882
1717858241674724000,10.00472412109375,0.004465854726731777,0.007862450554966927,-0.007509581744670868
1717858241684764200,10.01476416015625,0.0040916805155575275,0.009019593708217144,-0.006166283041238785
1717858241694805200,10.02480517578125,0.002603506203740835,0.00983345601707697,-0.004431500099599361
1717858241704846000,10.03484619140625,0.003765976056456566,0.010318949818611145,-0.004526575095951557
1717858241714886000,10.044885986328126,0.005403553601354361,0.00857111718505621,-0.005600095260888338
1717858241724927000,10.054927001953125,0.0036418726667761803,0.008607069961726665,-0.006277336739003658
1717858241734968000,10.064968017578124,0.004905276466161013,0.009060872718691826,-0.008587096817791462
1717858241745007900,10.0750078125,0.0029704899061471224,0.009216401726007462,-0.005234443116933107
1717858241755049000,10.085049072265624,0.0018956380663439631,0.010093647055327892,-0.004712196998298168
1717858241765090000,10.095090087890625,0.00358860963024199,0.008992429822683334,-0.005018993280827999
1717858241775130000,10.105130126953124,0.0034325483720749617,0.009228119626641273,-0.005374525208026171
1717858241785171000,10.1151708984375,0.004631237126886845,0.009524262510240078,-0.005222458858042955
1717858241795211000,10.1252109375,0.004024835303425789,0.00899882148951292,-0.005088502075523138
1717858241805252000,10.135252197265626,0.005209675524383783,0.008859803900122643,-0.004874117206782103
1717858241815293200,10.145293212890625,0.004738562274724245,0.009065666235983372,-0.006866960786283016
1717858241825333000,10.1553330078125,0.0046786414459347725,0.009810286574065685,-0.006732471287250519
1717858241835374000,10.1653740234375,0.003922303672879934,0.009545568376779556,-0.005477056838572025
1717858241845415200,10.175415283203124,0.004597148858010769,0.009488310664892197,-0.006503173150122166
1717858241855455000,10.185455078125,0.003029079409316182,0.00960042979568243,-0.005409146659076214
1717858241865495800,10.195495849609374,0.0036826191935688257,0.008469651453197002,-0.006228334736078978
1717858241875537200,10.205537109375,0.00440939562395215,0.009923471137881279,-0.005395297892391682
1717858241885577000,10.215576904296874,0.0029401297215372324,0.01082601584494114,-0.00589570589363575
1717858241895618000,10.2256181640625,0.002368615474551916,0.010173275135457516,-0.005262938793748617
1717858241905659000,10.235658935546875,0.005163869354873896,0.009381784126162529,-0.006235525477677584
1717858241915699000,10.245698974609375,0.0036336169578135014,0.009097890928387642,-0.005312207154929638
1717858241925740000,10.255739990234375,0.004686098080128431,0.00905900914222002,-0.0046842340379953384
1717858241935781000,10.265781005859376,0.0036796897184103727,0.00936047825962305,-0.006446181330829859
1717858241945821000,10.275821044921875,0.0036618465092033148,0.00944916158914566,-0.004567853640764952
1717858241955862000,10.285862060546876,0.004303668159991503,0.00899509247392416,-0.005142031237483025
1717858241965903000,10.295903076171875,0.0040823593735694885,0.00908350944519043,-0.006037652492523193
1717858241975943200,10.305943115234374,0.0015928366919979453,0.01010829396545887,-0.0059657469391822815
1717858241985984000,10.31598388671875,0.004593686666339636,0.009579123929142952,-0.005148422904312611
1717858241996024000,10.326024169921874,0.004312722943723202,0.008580971509218216,-0.006427006796002388
1717858242006065200,10.336065185546875,0.00455800024792552,0.008931709453463554,-0.005910086911171675
1717858242016106200,10.346106201171875,0.003948668949306011,0.008566323667764664,-0.006384662352502346
1717858242026146000,10.35614599609375,0.005495166406035423,0.008791361004114151,-0.0065167550928890705
1717858242036187000,10.366186767578125,0.0032384039368480444,0.009098423644900322,-0.006441920530050993
1717858242046228000,10.37622802734375,0.004746818449348211,0.009250489994883537,-0.004833903629332781
1717858242056268000,10.38626806640625,0.0027593011036515236,0.009111739695072174,-0.005616606678813696
1717858242066308900,10.396308837890626,0.004550276789814234,0.010151171125471592,-0.006767358630895615
1717858242076350000,10.406349853515625,0.004221909213811159,0.009398561902344227,-0.006591590121388435
1717858242086390000,10.41639013671875,0.003623230615630746,0.010732006281614304,-0.006626477465033531
1717858242096431000,10.42643115234375,0.003888481529429555,0.007336209993809462,-0.00538357999175787
1717858242106472000,10.436471923828124,0.003543335711583495,0.00811784714460373,-0.005690908990800381
1717858242116512000,10.446511962890625,0.003953728824853897,0.009518403559923172,-0.004575843457132578
1717858242126553000,10.456552978515624,0.0030125677585601807,0.009972472675144672,-0.006640858482569456
1717858242136594200,10.46659423828125,0.004447212442755699,0.008704009465873241,-0.006018743850290775
1717858242146634000,10.476634033203124,0.005438175052404404,0.007930627092719078,-0.005399026442319155
1717858242156675000,10.486675048828126,0.002028529765084386,0.010517888702452183,-0.005154281854629517
1717858242166715100,10.496715087890625,0.00375985074788332,0.010342651978135109,-0.005277586169540882
1717858242176756200,10.506756103515626,0.0031731564085930586,0.00797563511878252,-0.006311425473541021
1717858242186797000,10.516797119140625,0.004208060912787914,0.009009207598865032,-0.006298109423369169
1717858242196836900,10.5268369140625,0.004801679402589798,0.008251804858446121,-0.007321562618017197
1717858242206878000,10.5368779296875,0.004290352575480938,0.010029731318354607,-0.004831773228943348
1717858242216919000,10.5469189453125,0.00469515286386013,0.008683236315846443,-0.004817924462258816
1717858242226959000,10.556958984375,0.003683151677250862,0.008156197145581245,-0.006852846127003431
1717858242237000000,10.567,0.003650394966825843,0.009818010032176971,-0.005774265620857477
1717858242247041000,10.577041015625,0.0028445222415030003,0.008637163788080215,-0.004805141594260931
1717858242257081000,10.5870810546875,0.002370745874941349,0.008420382626354694,-0.005799832288175821
1717858242267122000,10.597121826171875,0.0029848709236830473,0.009326922707259655,-0.0064714811742305756
1717858242277163000,10.6071630859375,0.003855990944430232,0.008791893720626831,-0.005817941855639219
1717858242287203000,10.617203125,0.006041913293302059,0.00851599033921957,-0.006010221783071756
1717858242297244200,10.627244140625,0.002922286745160818,0.009525594301521778,-0.005992378573864698
1717858242307285000,10.637284912109376,0.0023853934835642576,0.01010856032371521,-0.005225654691457748
1717858242317325000,10.647324951171875,0.004304999951273203,0.009735452011227608,-0.0057473680935800076
1717858242327366100,10.6573662109375,0.002139317337423563,0.009346364066004753,-0.006169745232909918
1717858242337407200,10.6674072265625,0.003221625927835703,0.009124522097408772,-0.005789978429675102
1717858242347447000,10.677447021484374,0.004446680191904306,0.00845500361174345,-0.006403038278222084
1717858242357488000,10.687488037109375,0.00424374733120203,0.010313090868294239,-0.005179848056286573
1717858242367528000,10.69752783203125,0.004334028344601393,0.009269664995372295,-0.005823534447699785
1717858242377569000,10.707569091796875,0.004543352872133255,0.00939217023551464,-0.006262689363211393
1717858242387609900,10.71760986328125,0.0036858150269836187,0.009308813139796257,-0.005673598498106003
1717858242397650000,10.72764990234375,0.0031185615807771683,0.009705091826617718,-0.006045109126716852
1717858242407691000,10.73769091796875,0.0034961977507919073,0.00891040451824665,-0.004985703621059656
1717858242417732000,10.747732177734376,0.0051750545389950275,0.009750897996127605,-0.005789445713162422
1717858242427772200,10.757772216796875,0.00407596817240119,0.006636863574385643,-0.00475560687482357
1717858242437813000,10.76781298828125,0.0046882289461791515,0.009250756353139877,-0.005138036794960499
1717858242447854000,10.77785400390625,0.005116198677569628,0.009605223312973976,-0.004791293293237686
1717858242457894100,10.78789404296875,0.0036578518338501453,0.008526909165084362,-0.0062128882855176926
1717858242467935000,10.79793505859375,0.004366518929600716,0.008674981072545052,-0.00555242458358407
1717858242477976000,10.80797607421875,0.0032056469935923815,0.009036904200911522,-0.006135124247521162
1717858242488016100,10.81801611328125,0.003055977402254939,0.008628908544778824,-0.006127400789409876
1717858242498057200,10.82805712890625,0.004336957819759846,0.010370083153247833,-0.005387042183429003
1717858242508098000,10.83809814453125,0.004279699642211199,0.009000951424241066,-0.005487177055329084
1717858242518137900,10.848137939453125,0.005486377980560064,0.008206796832382679,-0.006440855097025633
1717858242528179000,10.858178955078126,0.00387276872061193,0.01059112511575222,-0.007527957204729319
1717858242538219000,10.868218994140625,0.0030453247018158436,0.009453955106437206,-0.005281847435981035
1717858242548260000,10.878260009765626,0.0037494644057005644,0.00879002921283245,-0.007960720919072628
1717858242558301000,10.888301025390625,0.005625395104289055,0.008648348972201347,-0.0068184914998710155
1717858242568341000,10.898341064453126,0.004037352278828621,0.00936021190136671,-0.007453655358403921
1717858242578382000,10.908382080078125,0.003242398612201214,0.008766327053308487,-0.00569969741627574
1717858242588423000,10.9184228515625,0.005154548212885857,0.008898952975869179,-0.005274656694382429
1717858242598463000,10.928462890625,0.0026077672373503447,0.007703726179897785,-0.0057345847599208355
1717858242608504000,10.938504150390624,0.003757187630981207,0.009365006349980831,-0.007229949813336134
1717858242618545200,10.948545166015625,0.004860002547502518,0.008074171841144562,-0.005028580781072378
1717858242628584200,10.958584228515624,0.0034179009962826967,0.008627576753497124,-0.005607285536825657
1717858242638625000,10.968625,0.004551075864583254,0.009379120543599129,-0.0065593658946454525
1717858242648666000,10.978666015625,0.004411792848259211,0.00890667550265789,-0.006797718815505505
1717858242658706200,10.9887060546875,0.0037350833881646395,0.008962335996329784,-0.0046722497791051865
1717858242668747300,10.998747314453125,0.004540689755231142,0.009437443688511848,-0.005429386626929045
1717858242678788000,11.0087880859375,0.005788114387542009,0.009258746169507504,-0.006200638134032488
1717858242688828200,11.018828125,0.003138535423204303,0.008799350820481777,-0.006216883193701506
1717858242698869200,11.028869140625,0.0032490564044564962,0.009033708833158016,-0.0052200620993971825
1717858242708910300,11.038910400390625,0.004043211229145527,0.009312009438872337,-0.0049348375760018826
1717858242718950100,11.0489501953125,0.003177950158715248,0.008550877682864666,-0.005058674607425928
1717858242728991200,11.0589912109375,0.003958788700401783,0.008888832293450832,-0.004712463356554508
1717858242739031300,11.06903125,0.0034021881874650717,0.008988967165350914,-0.006472280248999596
1717858242749072400,11.079072265625,0.0036610474344342947,0.007755124941468239,-0.0062392535619437695
1717858242759113200,11.08911328125,0.004108192399144173,0.009305085055530071,-0.006868026219308376
1717858242769153000,11.099153076171875,0.005120992194861174,0.009399893693625927,-0.006443251855671406
1717858242779194000,11.109194091796875,0.004571049474179745,0.008220911957323551,-0.005589708685874939
1717858242789235200,11.119235107421876,0.004011253360658884,0.009220662526786327,-0.006086654495447874
1717858242799275300,11.129275146484375,0.004507932811975479,0.00887817982584238,-0.00577719509601593
1717858242809316000,11.139316162109376,0.003832821501418948,0.00899562519043684,-0.006896255537867546
1717858242819357200,11.149357177734375,0.0037236318457871675,0.009643039666116238,-0.005175587255507708
1717858242829397200,11.159397216796876,0.0029473204631358385,0.009141034446656704,-0.006399842444807291
1717858242839438000,11.16943798828125,0.003540406236425042,0.009077384136617184,-0.005024319514632225
1717858242849479200,11.179479248046874,0.004319647327065468,0.007795072626322508,-0.006779609248042107
1717858242859519200,11.189519287109375,0.004195011220872402,0.007606787141412497,-0.007586014457046986
1717858242869560300,11.199560302734374,0.0027598338201642036,0.008890696801245213,-0.005754025653004646
1717858242879601200,11.20960107421875,0.003480485174804926,0.009298693388700485,-0.0059257997199893
1717858242889641200,11.21964111328125,0.005012335255742073,0.009338906966149807,-0.006715693045407534
1717858242899682300,11.229682373046876,0.00555056007578969,0.009311743080615997,-0.006800914648920298
1717858242909723400,11.239723388671875,0.0030804784037172794,0.008846755139529705,-0.006676811259239912
1717858242919763200,11.24976318359375,0.0029619678389281034,0.008296279236674309,-0.0068123661912977695
1717858242929804000,11.259803955078125,0.004188087303191423,0.009709885343909264,-0.005928196478635073
1717858242939844000,11.269843994140626,0.0038248319178819656,0.009157812222838402,-0.006714361719787121
1717858242949885200,11.27988525390625,0.002472212305292487,0.00968831405043602,-0.004320978652685881
1717858242959926000,11.289926025390624,0.0029561088886111975,0.00908830389380455,-0.004708468914031982
1717858242969966000,11.299966064453125,0.004168113227933645,0.009256615303456783,-0.005319930613040924
1717858242980007200,11.310007080078124,0.004240285139530897,0.008783104829490185,-0.005115133244544268
1717858242990048300,11.32004833984375,0.00415373221039772,0.009783121757209301,-0.0059937103651463985
1717858243000088300,11.33008837890625,0.00421285443007946,0.009513343684375286,-0.004555869847536087
1717858243010129200,11.340129150390625,0.004860268905758858,0.009280051104724407,-0.005973470397293568
1717858243020170200,11.350170166015625,0.003489806316792965,0.007978564128279686,-0.004536428488790989
1717858243030210300,11.360210205078126,0.003777693957090378,0.008871788159012794,-0.007485346868634224
1717858243040251100,11.370251220703125,0.004637362435460091,0.008897088468074799,-0.005458415020257235
1717858243050292200,11.380292236328126,0.004234159830957651,0.010089918039739132,-0.0054458980448544025
1717858243060332300,11.390332275390625,0.0035119105596095324,0.009434514679014683,-0.004607534967362881
1717858243070373400,11.400373291015624,0.0033832797780632973,0.009548231028020382,-0.005139101762324572
1717858243080414200,11.410414306640625,0.002980876248329878,0.009611348621547222,-0.006332198157906532
1717858243090454000,11.4204541015625,0.003564641112461686,0.008712264709174633,-0.005425658077001572
1717858243100495000,11.4304951171875,0.0043835630640387535,0.010281932540237904,-0.00609437795355916
1717858243110536200,11.4405361328125,0.003888747887685895,0.009543437510728836,-0.006305832881480455
1717858243120576300,11.450576171875,0.0033907366450875998,0.0086603332310915,-0.0065439194440841675
1717858243130617000,11.4606171875,0.0036067189648747444,0.009152485989034176,-0.005677592940628529
1717858243140657200,11.4706572265625,0.002558498876169324,0.009665144607424736,-0.006120476871728897
1717858243150698200,11.4806982421875,0.00398755120113492,0.010419883765280247,-0.0060238041914999485
1717858243160739000,11.490739013671876,0.0031824775505810976,0.009795372374355793,-0.006188920233398676
1717858243170779100,11.500779052734375,0.0041675809770822525,0.008843825198709965,-0.006771353539079428
1717858243180820200,11.5108203125,0.003093527862802148,0.008594552986323833,-0.006038983818143606
1717858243190861300,11.520861328125,0.004986769054085016,0.008927981369197369,-0.006450176239013672
1717858243200901400,11.5309013671875,0.003328684950247407,0.0073170349933207035,-0.003061569994315505
1717858243210942200,11.540942138671875,0.003643736941739917,0.009126386605203152,-0.005646167788654566
1717858243220983300,11.5509833984375,0.0023752732668071985,0.010093913413584232,-0.005612345412373543
1717858243231023400,11.5610234375,0.005056011490523815,0.008753810077905655,-0.004614725708961487
1717858243241064200,11.571064208984374,0.003632019041106105,0.010664096102118492,-0.006386526394635439
1717858243251105300,11.581105224609376,0.004138818476349115,0.008784170262515545,-0.0055060856975615025
1717858243261145000,11.59114501953125,0.0031973912846297026,0.010131197050213814,-0.0059899818152189255
1717858243271186200,11.601186279296876,0.002895388752222061,0.008172708563506603,-0.006640325766056776
1717858243281227000,11.61122705078125,0.0030181603506207466,0.009516806341707706,-0.005857622716575861
1717858243291267000,11.62126708984375,0.005115932319313288,0.009483516216278076,-0.005945506971329451
1717858243301308200,11.63130810546875,0.003865312086418271,0.009489641524851322,-0.006500243674963713
1717858243311349200,11.641349365234374,0.0036573191173374653,0.011239072307944298,-0.004086087923496962
1717858243321389300,11.651389404296875,0.005037635564804077,0.008962069638073444,-0.0037731665652245283
1717858243331430100,11.66143017578125,0.003254382871091366,0.007408914156258106,-0.007134608458727598
1717858243341470200,11.67147021484375,0.005022721830755472,0.008714928291738033,-0.005786516238003969
1717858243351511300,11.68151123046875,0.0033625070936977863,0.008826781064271927,-0.004732171073555946
1717858243361552100,11.69155224609375,0.004447212442755699,0.009719738736748695,-0.003826962551102042
1717858243371592200,11.70159228515625,0.002924150787293911,0.00962812639772892,-0.005947637837380171
1717858243381633300,11.71163330078125,0.0036690370179712772,0.010037986561655998,-0.0054299188777804375
1717858243391674400,11.72167431640625,0.0025768745690584183,0.00839881133288145,-0.007104514632374048
1717858243401714200,11.731714111328126,0.005246161017566919,0.008620119653642178,-0.006476807873696089
1717858243411755300,11.74175537109375,0.004159324802458286,0.009122658520936966,-0.006223807577043772
1717858243421796400,11.75179638671875,0.0043651871383190155,0.008189486339688301,-0.005082643125206232
1717858243431836200,11.761836181640625,0.003524960018694401,0.008989499881863594,-0.00532578956335783
1717858243441877200,11.771877197265624,0.005631786771118641,0.008670985698699951,-0.006013950332999229
1717858243451918000,11.78191796875,0.002234924817457795,0.009630522690713406,-0.005133242812007666
1717858243461958100,11.791958251953124,0.0036013927310705185,0.009408681653439999,-0.006186256650835276
1717858243471999200,11.801999267578125,0.0033662356436252594,0.00947712454944849,-0.005403287708759308
1717858243482040000,11.8120400390625,0.003233610186725855,0.008725580759346485,-0.00663393409922719
1717858243492080000,11.822080078125,0.006490922532975674,0.010063553228974342,-0.005735383834689856
1717858243502121200,11.832121337890625,0.003625627374276519,0.010239588096737862,-0.005317800212651491
1717858243512161300,11.842161376953126,0.0038245655596256256,0.009472331032156944,-0.006012618541717529
1717858243522202400,11.852202392578125,0.0034908715169876814,0.008719189092516899,-0.006617422681301832
1717858243532243200,11.8622431640625,0.0032826124224811792,0.009217200800776482,-0.006336991675198078
1717858243542283300,11.872283203125,0.005532450973987579,0.009670204482972622,-0.004899151157587767
1717858243552324400,11.882324462890624,0.004444549325853586,0.008616125211119652,-0.004550809506326914
1717858243562365200,11.892365234375,0.005275988485664129,0.00914209894835949,-0.0049489522352814674
1717858243572405000,11.902405029296874,0.0033989925868809223,0.009245163761079311,-0.005989449098706245
1717858243582446000,11.912446044921875,0.004899950232356787,0.009592706337571144,-0.006987601984292269
1717858243592487200,11.922487060546874,0.004141215234994888,0.008474977687001228,-0.006039782892912626
1717858243602527200,11.93252734375,0.003510046284645796,0.008138886652886868,-0.006454969756305218
1717858243612568000,11.942568115234375,0.004736165516078472,0.009020659141242504,-0.006779609248042107
1717858243622609400,11.952609375,0.0038693067617714405,0.009394034743309021,-0.005453887395560741
1717858243632649500,11.9626494140625,0.007333014160394669,0.009129848331212997,-0.006028064992278814
