time,seconds_elapsed,z,y,x
1717858231772143400,0.102143310546875,0.00038435542955994606,-0.00035654567182064056,-0.000787858385592699
1717858231782184400,0.112184326171875,-0.0005095854867249727,-0.000554647296667099,-0.000799897126853466
1717858231792225300,0.122225341796875,-0.00039240624755620956,0.00014869403094053268,-0.0000867028720676899
1717858231802265300,0.132265380859375,0.0008856221102178097,0.0011365106329321861,0.00011740019544959068
1717858231812306400,0.142306396484375,0.0003167707473039627,-0.000674705021083355,0.000007411930710077286
1717858231822347500,0.152347412109375,0.00026754988357424736,-0.00021237879991531372,0.0005908622406423092
1717858231832387300,0.16238720703125,0.0001458432525396347,-0.0012028086930513382,-0.00014443648979067802
1717858231842428200,0.17242822265625,-0.0005461291875690222,0.0003069881349802017,-0.0001773713156580925
1717858231852468200,0.18246826171875,-0.00028780242428183556,-0.000012325122952461243,0.0009281067177653313
1717858231862509300,0.19250927734375,-0.0005506151355803013,-0.0005900273099541664,0.00034602219238877296
1717858231872550100,0.202550048828125,0.00011091399937868118,-0.0004249121993780136,0.0009276564233005047
1717858231882590200,0.212590087890625,-0.0004716911353170872,-0.000917765311896801,-0.00127860764041543
1717858231892631300,0.22263134765625,-0.0002988521009683609,0.00007053371518850327,0.0020005423575639725
1717858231902671400,0.23267138671875,-0.0009943295735865831,-0.0006244480609893799,0.0003294730558991432
1717858231912712400,0.24271240234375,0.0003119511529803276,-0.0003333641216158867,-0.00040955422446131706
1717858231922753300,0.252753173828125,0.00047167297452688217,-0.0013162819668650627,0.0010848254896700382
1717858231932793300,0.26279345703125,-0.0018604572396725416,0.00074766855686903,-0.00035487907007336617
1717858231942834400,0.27283447265625,-0.0003765702713280916,0.0004258202388882637,-0.0001224195584654808
1717858231952875300,0.282875244140625,0.00047910353168845177,0.0002860045060515404,-0.0010004639625549316
1717858231962915000,0.2929150390625,0.0004198048263788223,0.0007182853296399117,-0.00043258722871541977
1717858231972956200,0.3029560546875,-0.00052694883197546,-0.0010327436029911041,0.00044652214273810387
1717858231982996200,0.312996337890625,0.0006052497774362564,0.0014370391145348549,-0.0019926372915506363
1717858231993037300,0.323037353515625,-0.0002690658438950777,-0.0008719218894839287,0.001649768091738224
1717858232003078100,0.333078125,-0.001139769097790122,-0.0012988271191716194,-0.0010913689620792866
1717858232013118200,0.3431181640625,0.0003201756626367569,-0.0005337009206414223,-0.0011137393303215504
1717858232023159300,0.3531591796875,-0.0004679157864302397,-0.00008516386151313782,0.00003821030259132385
1717858232033200400,0.363200439453125,0.00005699321627616882,-0.00025986693799495697,-0.0002576666884124279
1717858232043240200,0.373240234375,-0.00006414973177015781,-0.0006620949134230614,0.00025366758927702904
1717858232053281300,0.38328125,-0.0017256957944482565,0.00043486058712005615,0.0002696467563509941
1717858232063321300,0.3933212890625,-0.0007571389432996511,-0.0008446443825960159,0.0005591134540736675
1717858232073362400,0.403362548828125,0.0006388900801539421,-0.0005327882245182991,0.00021343491971492767
1717858232083403300,0.4134033203125,-0.0004233561921864748,0.00011011585593223572,-0.00015374738723039627
1717858232093443300,0.423443359375,-0.0020321717020124197,-0.0005996162071824074,0.0011677131988108158
1717858232103484400,0.433484375,0.0014005606062710285,-0.0013159941881895065,0.0010771402157843113
1717858232113525500,0.443525390625,0.0006695226766169071,-0.0008733766153454781,0.000614815391600132
1717858232123565300,0.4535654296875,-0.0009365316946059465,0.000226595439016819,0.0005203974433243275
1717858232133606100,0.463606201171875,0.00022993283346295357,0.001574154943227768,0.0007741968147456646
1717858232143646200,0.473646240234375,0.00031559262424707413,0.00015918072313070297,0.0001529962755739689
1717858232153687300,0.483687255859375,-0.0015752515755593777,-0.0005809124559164047,0.00005685631185770035
1717858232163728100,0.49372802734375,-0.0020108940079808235,-0.0007864180952310562,-0.00038635870441794395
1717858232173768200,0.503768310546875,0.000276228878647089,-0.000985090620815754,0.001792107243090868
1717858232183809300,0.513809326171875,-0.00030288263224065304,0.0006084069609642029,0.00044699758291244507
1717858232193849300,0.523849365234375,-0.0010104845277965069,-0.00008055288344621658,0.00036816811189055443
1717858232203890400,0.533890380859375,-0.0009268643334507942,-0.0013087578117847443,0.000433923676609993
1717858232213931300,0.54393115234375,0.0009919432923197746,-0.00006133317947387695,-0.00008033262565732002
1717858232223971300,0.553971435546875,-0.00031370529904961586,0.0005336198955774307,0.0011259214952588081
1717858232234012400,0.564012451171875,-0.0013081296347081661,-0.0012744003906846046,0.0005296398885548115
1717858232244053200,0.57405322265625,-0.001434894511476159,0.000006504356861114502,0.0009861220605671406
1717858232254093000,0.584093017578125,0.00022159144282341003,0.00034392625093460083,-0.00004771724343299866
1717858232264134400,0.594134521484375,-0.00029292376711964607,-0.00035295169800519943,-0.00017214147374033928
1717858232274174200,0.60417431640625,-0.00014378665946424007,-0.0005968967452645302,0.00018765171989798546
1717858232284215300,0.61421533203125,0.0006908359937369823,-0.0006527453660964966,-0.0005697309970855713
1717858232294256000,0.624256103515625,0.0015355907380580902,-0.00011691730469465256,0.0011887545697391033
1717858232304296200,0.634296142578125,-0.00003529503010213375,0.0005555767565965652,-0.00010090833529829979
1717858232314337300,0.644337158203125,-0.00005233916454017162,0.00008552893996238708,-0.0010194326750934124
1717858232324378400,0.65437841796875,0.0001541399396955967,0.000031995587050914764,0.0013307207264006138
1717858232334418200,0.664418212890625,-0.00016570556908845901,-0.001030605286359787,-0.0005361549556255341
1717858232344459300,0.674459228515625,0.00019568484276533127,-0.0004291823133826256,0.0006576548330485821
1717858232354500400,0.684500244140625,-0.00035079591907560825,-0.0002707242965698242,0.0004991968162357807
1717858232364540400,0.69454052734375,0.0009724069386720657,-0.0010284408926963806,0.0007650358602404594
1717858232374581200,0.704581298828125,-0.00039938720874488354,-0.00075493473559618,-0.0003809225745499134
1717858232384621300,0.714621337890625,-0.0002397489733994007,0.00046108197420835495,-0.000768014695495367
1717858232394662400,0.724662353515625,-0.000297273276373744,0.0003731977194547653,-0.0007728082127869129
1717858232404703500,0.734703369140625,0.0002151872031390667,-0.00045769475400447845,-0.0007896972820162773
1717858232414743300,0.744743408203125,0.00007989862933754921,-0.0011799437925219536,0.00023908168077468872
1717858232424784100,0.7547841796875,-0.0008583241142332554,-0.00014768075197935104,0.0005309414118528366
1717858232434825200,0.7648251953125,-0.0013009414542466402,-0.00018123630434274673,-0.00027306703850626945
1717858232444865300,0.774865234375,-0.00030752201564610004,0.0007733991369605064,-0.00022155838087201118
1717858232454906000,0.784906005859375,0.00047411583364009857,-0.00011369958519935608,-0.0005469964817166328
1717858232464946200,0.7949462890625,0.0007338877767324448,-0.0006645955145359039,-0.00036816205829381943
1717858232474987300,0.8049873046875,-0.0003651990555226803,0.00031784456223249435,0.0010829945094883442
1717858232485028400,0.8150283203125,-0.0007822178304195404,0.0009443461894989014,-0.0001679966226220131
1717858232495068400,0.825068359375,0.0007879820186644793,-0.0013459725305438042,0.0013465429656207561
1717858232505109200,0.835109130859375,-0.0003517875447869301,-0.0006998404860496521,0.00021896418184041977
1717858232515150300,0.845150390625,0.0003848427440971136,-0.000561889261007309,-0.0001360350288450718
1717858232525190400,0.8551904296875,0.0001535690389573574,-0.00037705525755882263,-0.0009061098098754883
1717858232535231200,0.865231201171875,-0.00043498934246599674,-0.0008907793089747429,0.0002603544853627682
1717858232545271300,0.875271240234375,-0.00026206416077911854,0.0006566746160387993,0.001112564466893673
1717858232555312400,0.8853125,-0.0006343740969896317,-0.0010738475248217583,-0.0008267494849860668
1717858232565353500,0.895353515625,-0.00012660492211580276,-0.0010666055604815483,-0.0004966920241713524
1717858232575393300,0.905393310546875,-0.0010648365132510662,-0.00020880158990621567,-0.00005647120997309685
1717858232585434000,0.91543408203125,-0.00021751783788204193,0.000056150369346141815,-0.00019763410091400146
1717858232595475200,0.92547509765625,-0.0006412265356630087,-0.000008830800652503967,0.0009664334356784821
1717858232605515300,0.935515380859375,0.0005223487969487906,-0.00016378331929445267,0.001024793367832899
1717858232615556000,0.94555615234375,-0.0009980499744415283,-0.0013787169009447098,-0.0007121199741959572
1717858232625596200,0.95559619140625,-0.00013357051648199558,-0.0008758921176195145,-0.0006519090384244919
1717858232635637000,0.965636962890625,0.00034393416717648506,-0.0007688328623771667,0.001324689481407404
1717858232645678000,0.975677978515625,-0.0003029489889740944,0.0008601723238825798,0.0017117494717240334
1717858232655718100,0.98571826171875,-0.00036473432555794716,0.000080132856965065,0.00047843949869275093
1717858232665759000,0.995759033203125,-0.0005036953371018171,-0.000509895384311676,0.002012711949646473
1717858232675800000,1.005800048828125,0.0016641176771372557,0.0002733403816819191,-0.00005336850881576538
1717858232685840100,1.015840087890625,-0.0005182274617254734,-0.000723578967154026,-0.0008142539300024509
1717858232695881200,1.025881103515625,-0.000073213130235672,0.0006154589354991913,-0.00020811846479773521
1717858232705921000,1.035921142578125,-0.000068234046921134,-0.0011618081480264664,0.0004723300226032734
1717858232715961900,1.0459619140625,0.00009874626994132996,0.00006830599159002304,0.00016420194879174232
1717858232726003000,1.0560029296875,-0.0008628838695585728,-0.000051363371312618256,0.001176332589238882
1717858232736043000,1.06604296875,0.00001356261782348156,-0.0009352667257189751,-0.0005816202610731125
1717858232746084000,1.076083984375,-0.000661301426589489,-0.00042496155947446823,-0.0001177382655441761
1717858232756125000,1.086125,0.0005602906458079815,-0.00013121496886014938,0.0008726916275918484
1717858232766165000,1.0961650390625,0.0005818826612085104,0.0003598267212510109,0.00003529246896505356
1717858232776206000,1.1062060546875,0.0008641777094453573,0.00020829308778047562,0.0007833740673959255
1717858232786246100,1.11624609375,-0.0005497524980455637,-0.0005733463913202286,0.0008262270130217075
1717858232796287000,1.126286865234375,0.0004342854954302311,0.0007350649684667587,0.0016182512044906616
1717858232806328000,1.136328125,-0.00009754206985235214,0.0008862027898430824,0.000662496779114008
1717858232816368000,1.1463681640625,0.0007261736318469048,0.00043666083365678787,0.00008885189890861511
1717858232826409200,1.1564091796875,-0.0014585135504603386,-0.0011144354939460754,0.000004606321454048157
1717858232836450000,1.166449951171875,-0.0008033760823309422,-0.0006015105172991753,0.0008008917793631554
1717858232846490000,1.176489990234375,0.0017252936959266663,-0.000241963192820549,-0.0001849038526415825
1717858232856531200,1.18653125,0.0008043725974857807,0.001223042607307434,-0.0005321800708770752
1717858232866571000,1.196571044921875,-0.00011893897317349911,-0.00011628866195678711,0.0006154561415314674
1717858232876611800,1.20661181640625,-0.00016980525106191635,0.0002075517550110817,0.0005038697272539139
1717858232886653000,1.21665283203125,0.000005634035915136337,0.001070551574230194,-0.0007219580002129078
1717858232896693000,1.22669287109375,0.0008189636282622814,-0.0006128326058387756,-0.000364561565220356
1717858232906734000,1.236734130859375,0.0004747591447085142,0.0011990591883659363,-0.0005895420908927917
1717858232916775000,1.24677490234375,-0.00013670255430042744,0.00035483669489622116,-0.000500592403113842
1717858232926815000,1.25681494140625,-0.00024098018184304237,-0.0003459835425019264,0.0003058626316487789
1717858232936856000,1.26685595703125,0.0006810061167925596,-0.00016062799841165543,0.0006395569071173668
1717858232946896100,1.276896240234375,-0.0004020296037197113,-0.000011283904314041138,0.0007150107994675636
1717858232956937000,1.28693701171875,-0.0007149509619921446,-0.0005135564133524895,-0.0001539783552289009
1717858232966978000,1.29697802734375,-0.0005637493450194597,-0.0008994797244668007,-0.0004281774163246155
1717858232977018000,1.30701806640625,-0.0005855872295796871,0.00004008319228887558,0.0007713106460869312
1717858232987059200,1.31705908203125,0.00039639114402234554,-0.0007039643824100494,0.00017728563398122787
1717858232997100000,1.32710009765625,0.0005210272502154112,0.0003881976008415222,0.0010992716997861862
1717858233007139800,1.337139892578125,-0.0007814059499651194,-0.0015436019748449326,0.0014641573652625084
1717858233017181000,1.347180908203125,0.0011698920279741287,0.0004897220060229301,0.0006974334828555584
1717858233027221000,1.357220947265625,-0.00014582602307200432,0.0005718721076846123,0.000017618760466575623
1717858233037262000,1.367261962890625,0.000055508920922875404,-0.0012814216315746307,-0.00022845761850476265
1717858233047303000,1.377302978515625,-0.0015454234089702368,0.0007538273930549622,-0.0013026879169046879
1717858233057343000,1.387343017578125,0.000111062778159976,-0.00023793336004018784,0.0003314279019832611
1717858233067384000,1.397384033203125,0.0003782762214541435,0.0008062403649091721,-0.0004456625320017338
1717858233077425000,1.4074248046875,0.000531674362719059,-0.001244393177330494,0.00006619701161980629
1717858233087465000,1.41746484375,-0.0008250116370618343,-0.00014269445091485977,0.0006255363114178181
1717858233097506000,1.427506103515625,0.0013252245262265205,0.0000597052276134491,-0.0006280136294662952
1717858233107546000,1.437546142578125,-0.000016183825209736824,-0.0011837026104331017,-0.00017065834254026413
1717858233117587200,1.447587158203125,-0.0009048806969076395,0.00029568281024694443,-0.0009024948813021183
1717858233127628000,1.4576279296875,0.000004756264388561249,-0.001761353574693203,0.00034215953201055527
1717858233137668000,1.467668212890625,-0.000031196512281894684,-0.0007962239906191826,-0.00008021760731935501
1717858233147709200,1.477709228515625,-0.00024518975988030434,-0.0015178509056568146,-0.0009431052021682262
1717858233157750000,1.48775,0.0008405810222029686,0.00044276751577854156,0.000574097502976656
1717858233167789800,1.497789794921875,0.00014863722026348114,0.0003009336069226265,0.0017587635666131973
1717858233177831000,1.507830810546875,-0.0001618873793631792,0.0004221079871058464,-0.00011237338185310364
1717858233187871000,1.51787109375,0.0008761228527873755,0.00022797193378210068,0.0013857893645763397
1717858233197912000,1.527912109375,-0.0008573287632316351,0.0003523416817188263,-0.0005053211934864521
1717858233207953000,1.537952880859375,0.00016950746066868305,0.0002537081018090248,0.0001835632137954235
1717858233217993000,1.547992919921875,-0.0012137384619563818,-0.0006994372233748436,-0.00032616592943668365
1717858233228034000,1.558033935546875,-0.0013509977143257856,-0.0011127637699246407,0.0009832000359892845
1717858233238075100,1.5680751953125,0.00004316703416407108,0.0011799512431025505,-0.0017068590968847275
1717858233248115000,1.578114990234375,0.0011647213250398636,-0.000045428983867168427,0.001879007089883089
1717858233258156000,1.588156005859375,-0.00012611271813511848,0.00022008828818798065,0.0008185366168618202
1717858233268196000,1.598196044921875,-0.0009048834908753633,0.00047289300709962845,0.0013829711824655533
1717858233278237200,1.6082373046875,-0.0000968805979937315,-0.0012991735711693764,0.0005406131967902184
1717858233288278000,1.618278076171875,0.00043653836473822594,-0.0015442701987922192,-0.0006685620173811913
1717858233298318000,1.628318115234375,0.0005622394382953644,0.00006294716149568558,0.0009333291091024876
1717858233308359200,1.638359130859375,-0.00012398208491504192,-0.0010624099522829056,-0.0014125104062259197
1717858233318400300,1.648400146484375,-0.0004688615445047617,-0.001400897279381752,-0.00010756123811006546
1717858233328440000,1.658440185546875,0.0007893822621554136,-0.00032729189842939377,-0.0005016596987843513
1717858233338481000,1.66848095703125,0.0021175008732825518,-0.00015258882194757462,0.0005747899413108826
1717858233348521000,1.67852099609375,0.00031296745873987675,-0.00006210524588823318,0.0008209655061364174
1717858233358562000,1.68856201171875,0.0004357390571385622,0.00021805986762046814,-0.0015031751245260239
1717858233368603000,1.698602783203125,0.0003796038217842579,-0.0009202025830745697,0.00006182631477713585
1717858233378643000,1.708642822265625,0.0012930682860314846,-0.0010195383802056313,0.00010709976777434349
1717858233388684000,1.71868408203125,0.0008944107685238123,-0.0009764470160007477,-0.0014866315759718418
1717858233398725000,1.72872509765625,0.00023021805100142956,-0.0004848279058933258,0.00148758664727211
1717858233408765200,1.73876513671875,-0.0011100703850388527,-0.0006499886512756348,0.00029525673016905785
1717858233418806000,1.748805908203125,0.00015280069783329964,0.00005681440234184265,-0.000561215914785862
1717858233428847000,1.75884716796875,0.0013525108806788921,-0.0011657215654850006,-0.000758318230509758
1717858233438887200,1.76888720703125,0.00021187914535403252,-0.00007116235792636871,-0.000819837674498558
1717858233448928000,1.778927978515625,0.0004880379419773817,-0.00006660446524620056,0.0007949341088533401
1717858233458967800,1.7889677734375,0.0011277289595454931,-0.0002117464318871498,0.0010942737571895123
1717858233469009000,1.7990087890625,-0.0010270208586007357,0.0008165938779711723,0.0008017858490347862
1717858233479050000,1.809050048828125,-0.0010334125254303217,-0.0005967458710074425,0.0017855577170848846
1717858233489090000,1.819090087890625,0.0005584671162068844,-0.0012826882302761078,0.001014468725770712
1717858233499131000,1.829130859375,0.0003946828655898571,-0.0017090607434511185,0.00014254963025450706
1717858233509172000,1.839171875,0.00010604085400700569,0.000016792677342891693,-0.0003976779989898205
1717858233519212000,1.8492119140625,0.0008136425167322159,0.0002980222925543785,-0.001302087213844061
1717858233529253000,1.859253173828125,0.000738043338060379,-0.0003178715705871582,0.0013006054796278477
1717858233539293000,1.86929296875,-0.00006330176256597042,-0.0001468965783715248,0.00030857790261507034
1717858233549334000,1.879333984375,0.0007838180754333735,-0.0009326748549938202,0.0005898992531001568
1717858233559375000,1.889375,-0.00018530618399381638,-0.0007875328883528709,-0.0002732314169406891
1717858233569415200,1.899415283203125,0.0024807120207697153,-0.0002113431692123413,0.0005041914992034435
1717858233579456000,1.9094560546875,-0.00007112906314432621,-0.00003184657543897629,-0.0005490886978805065
1717858233589497000,1.9194970703125,0.0005836223717778921,0.0006332984194159508,0.00011049816384911537
1717858233599537200,1.929537109375,0.0010299684945493937,-0.0005006762221455574,0.000712905079126358
1717858233609578200,1.939578125,0.0003541747573763132,-0.00037696585059165955,-0.00045479461550712585
1717858233619617500,1.949617431640625,0.0005411289166659117,-0.0007780380547046661,-0.0007528024725615978
1717858233629658400,1.959658447265625,-0.00010634493082761765,0.0005073864012956619,0.000025768764317035675
1717858233639699500,1.969699462890625,-0.00040728203020989895,0.000754261389374733,0.0013562841340899467
1717858233649739500,1.979739501953125,-0.0018253637244924903,-0.00008114706724882126,0.0008039837703108788
1717858233659780600,1.989780517578125,0.0016934708692133427,-0.00020152144134044647,0.002514798427000642
1717858233669821400,1.999821533203125,0.0022509258706122637,0.0007936218753457069,-0.00014660833403468132
1717858233679861200,2.009861328125,0.001356370048597455,0.000523044727742672,-0.00007656728848814964
1717858233689902300,2.01990234375,0.0002343570813536644,-0.0003170231357216835,0.00120609812438488
1717858233699942400,2.0299423828125,0.0004561981186270714,-0.00033593177795410156,0.0004734625108540058
1717858233709983200,2.039983154296875,-0.0011425353586673737,-0.00124419666826725,-0.00004384899511933327
1717858233720024300,2.0500244140625,-0.0002434521447867155,0.0011161621659994125,0.00033937953412532806
1717858233730064400,2.060064453125,0.00007503037340939045,-0.0004695383831858635,-0.0007562707178294659
1717858233740105500,2.07010546875,0.00044414447620511055,-0.0008839257061481476,-0.00028888601809740067
1717858233750146300,2.080146240234375,-0.00006760633550584316,-0.0005919160321354866,-0.0005705617368221283
1717858233760186400,2.090186279296875,0.0006194892339408398,-0.00023505277931690216,-0.0004179626703262329
1717858233770227500,2.1002275390625,-0.00005457946099340916,-0.000684686005115509,-0.0008292733691632748
1717858233780267500,2.110267578125,-0.00024286494590342045,0.001329994760453701,0.0010722237639129162
1717858233790308400,2.120308349609375,0.0005331744905561209,-0.00042842235416173935,-0.0011716270819306374
1717858233800349400,2.130349365234375,-0.0005267637316137552,-0.0009434781968593597,0.0005192141979932785
1717858233810389500,2.140389404296875,0.00034233229234814644,0.0009426511824131012,0.0008597108535468578
1717858233820430600,2.1504306640625,0.0006472640670835972,-0.00007281173020601273,-0.0008790669962763786
1717858233830471400,2.160471435546875,0.0016089407727122307,-0.00024362746626138687,0.00029397616162896156
1717858233840511200,2.17051123046875,0.000024359673261642456,-0.0014484412968158722,-0.000645587220788002
1717858233850552300,2.18055224609375,0.0002634054981172085,-0.0014402586966753006,-0.00041738850995898247
1717858233860592400,2.19059228515625,0.0005246615037322044,-0.0004250621423125267,0.0005405503325164318
1717858233870633500,2.200633544921875,0.0008525238372385502,-0.0017389138229191303,0.0007133986800909042
1717858233880674300,2.21067431640625,-0.00041380920447409153,-0.00013648997992277145,-0.0008637253195047379
1717858233890714400,2.22071435546875,-0.0016879984177649021,-0.0005372762680053711,0.0009611905552446842
1717858233900755500,2.23075537109375,-0.0004019578918814659,0.00007311999797821045,0.0006671776063740253
1717858233910796300,2.24079638671875,-0.0004777936264872551,-0.000016427598893642426,-0.0004521203227341175
1717858233920836400,2.25083642578125,-0.0006479697767645121,-0.001014048233628273,0.0006712009198963642
1717858233930877400,2.26087744140625,0.0010399969760328531,0.0006056446582078934,-0.0011665243655443192
1717858233940918500,2.27091845703125,-0.0001882526557892561,0.0010346798226237297,0.0010175337083637714
1717858233950958600,2.28095849609375,0.0003527929075062275,0.0005982415750622749,-0.000401398167014122
1717858233960999400,2.29099951171875,0.0007160482928156853,0.0004469742998480797,0.001196498516947031
1717858233971039200,2.301039306640625,0.0012327670119702816,0.0002612834796309471,0.00032514194026589394
1717858233981080600,2.31108056640625,0.0003669736906886101,-0.00056429672986269,-0.0006735436618328094
1717858233991121400,2.321121337890625,-0.00009185634553432465,-0.000587165355682373,0.0018430775962769985
1717858234001161200,2.3311611328125,-0.0002175574190914631,-0.0007935594767332077,-0.0007588309235870838
1717858234011202300,2.341202392578125,0.0007220434490591288,-0.0000588148832321167,-0.00002192193642258644
1717858234021243400,2.351243408203125,0.00011217943392693996,0.0005387989804148674,0.000012699048966169357
1717858234031283500,2.361283447265625,-0.001383660826832056,-0.000752422958612442,0.0001642964780330658
1717858234041324300,2.37132421875,-0.001262220786884427,0.0016774460673332214,0.0012878845445811749
1717858234051364400,2.3813642578125,0.0008900051470845938,-0.0005526039749383926,-0.0018316102214157581
1717858234061405400,2.391405517578125,0.000298783415928483,-0.0010101348161697388,0.0005103736184537411
1717858234071446500,2.401446533203125,0.0020575490780174732,-0.0005126278847455978,0.0007681925781071186
1717858234081486300,2.411486328125,0.0011262414045631886,0.000660228542983532,0.0013996278867125511
1717858234091527400,2.42152734375,0.0008738967590034008,0.000040891580283641815,-0.0006994353607296944
1717858234101568500,2.431568603515625,0.00002035382203757763,-0.0013045379891991615,0.000822028610855341
1717858234111608600,2.441608642578125,0.001365564065054059,-0.000126618891954422,0.00011319015175104141
1717858234121649400,2.4516494140625,-0.0005431233439594507,-0.0006909426301717758,0.0006229192949831486
1717858234131690500,2.4616904296875,0.0006465532351285219,-0.000024232082068920135,0.00007934356108307838
1717858234141730300,2.471730224609375,0.0007216546218842268,0.000530770979821682,-0.00016167247667908669
1717858234151771400,2.481771484375,0.0008904659189283848,-0.0008675334975123405,-0.0005845599807798862
1717858234161811500,2.4918115234375,0.00021535484120249748,-0.0004712548106908798,-0.0001187734305858612
1717858234171852300,2.501852294921875,-0.0005489301402121782,-0.00017254333943128586,0.0005528796464204788
1717858234181893400,2.511893310546875,-0.0005673058331012726,0.0008381260558962822,0.0008887043222784996
1717858234191933400,2.521933349609375,0.00029857829213142395,-0.0020878217183053493,-0.0011219503358006477
1717858234201974300,2.531974365234375,-0.0004734722897410393,-0.0016276277601718903,0.00044372212141752243
1717858234212015400,2.542015380859375,0.0004221489652991295,0.0007559014484286308,0.0001837974414229393
1717858234222055400,2.552055419921875,0.00054125115275383,-0.000023039989173412323,0.0009373035281896591
1717858234232096500,2.562096435546875,-0.000963547732681036,0.0012675998732447624,0.00017830124124884605
1717858234242136600,2.572136474609375,-0.001225602813065052,-0.000002195127308368683,-0.0002254336141049862
1717858234252177400,2.582177490234375,-0.0005016489885747433,-0.0008011283352971077,-0.0004973406903445721
1717858234262218500,2.592218505859375,0.0003028919454663992,0.0009493669494986534,0.0005812393501400948
1717858234272258600,2.602258544921875,0.0003723595291376114,-0.000821426510810852,-0.0013127578422427177
1717858234282299400,2.61229931640625,-0.0005642743781208992,-0.0014009308069944382,0.0005296170711517334
1717858234292340500,2.622340576171875,-0.0003848220221698284,-0.00041486136615276337,-0.00013448577374219894
1717858234302380300,2.63238037109375,0.0003435523249208927,0.00023708119988441467,0.00023729167878627777
1717858234312421400,2.64242138671875,0.0009120441973209381,0.0003477204591035843,0.00045638764277100563
1717858234322461400,2.65246142578125,-0.0005143450107425451,0.00046569760888814926,-0.0010573528707027435
1717858234332502300,2.662502197265625,0.00006507150828838348,-0.000920361839234829,0.00017696712166070938
1717858234342543400,2.67254345703125,-0.0002779434435069561,-0.0004604337736964226,-0.00029467884451150894
1717858234352583400,2.68258349609375,0.0007817295845597982,-0.0003170659765601158,0.0008127931505441666
1717858234362624500,2.69262451171875,-0.0000973797868937254,-0.0009168097749352455,-0.0004444848746061325
1717858234372665300,2.702665283203125,-0.0014137385878711939,-0.00021575577557086945,0.0001763184554874897
1717858234382705400,2.712705322265625,-0.002295244950801134,0.0007059639319777489,-0.0004652370698750019
1717858234392746500,2.72274658203125,0.0006462452001869678,0.00018351711332798004,0.0001233401708304882
1717858234402787300,2.732787353515625,0.0003237365745007992,-0.0009544519707560539,0.0019992711022496223
1717858234412827400,2.742827392578125,0.0014377173501998186,0.00006380584090948105,0.0001227622851729393
1717858234422868500,2.752868408203125,-0.00025259098038077354,-0.00012075155973434448,0.0006913472898304462
1717858234432908300,2.762908203125,-0.0003492955584079027,-0.0016026636585593224,0.0006353217177093029
1717858234442949400,2.772949462890625,0.0009628436528146267,-0.0007770843803882599,0.00043904688209295273
1717858234452990500,2.782990478515625,0.0006142070051282644,0.0003874460235238075,-0.000983391422778368
1717858234463030300,2.7930302734375,-0.0012990080285817385,0.0003323182463645935,-0.000158610288053751
1717858234473071400,2.8030712890625,0.00028173718601465225,-0.0006606513634324074,-0.00014872383326292038
1717858234483112400,2.813112548828125,0.000860708300024271,-0.0009253695607185364,0.0005743242800235748
1717858234493152300,2.82315234375,-0.0010252681095153093,0.00030397530645132065,0.0006607901304960251
1717858234503193300,2.833193359375,0.0009065892081707716,-0.0009919190779328346,0.001286100596189499
1717858234513233400,2.8432333984375,0.000371578149497509,-0.0009578652679920197,-0.0014114896766841412
1717858234523274500,2.8532744140625,0.0011524171568453312,-0.00026544276624917984,-0.0005664685741066933
1717858234533315300,2.8633154296875,0.0007315636612474918,-0.0010570678859949112,0.0007823565974831581
1717858234543355400,2.87335546875,-0.0009813816286623478,0.00006119348108768463,-0.000773195642977953
1717858234553396500,2.883396484375,0.0008151999209076166,0.00021746382117271423,0.00033271219581365585
1717858234563437600,2.8934375,0.0004588689189404249,0.0004928344860672951,0.000793971586972475
1717858234573477600,2.9034775390625,0.0004728231579065323,-0.0011146822944283485,0.0004051448777318001
1717858234583518500,2.9135185546875,0.0002776137553155422,-0.0016031055711209774,-0.0004265601746737957
1717858234593559600,2.9235595703125,-0.00010962248779833317,-0.0003975816071033478,-0.0009091845713555813
1717858234603599400,2.933599365234375,0.0020499350503087044,0.0009638266637921333,-0.0003826776519417763
1717858234613640200,2.94364013671875,-0.0015342244878411293,-0.00018230173736810684,0.001925176940858364
1717858234623681500,2.953681640625,-0.0004077071789652109,0.0004288936033844948,0.0010884120129048824
1717858234633722600,2.96372265625,0.0012790029868483543,0.00006778724491596222,-0.000012045726180076599
1717858234643763500,2.973763427734375,0.0007703392766416073,0.00006618909537792206,-0.0011641290038824081
1717858234653803300,2.98380322265625,-0.0015868821647018194,0.0005626687780022621,-0.0006688162684440613
1717858234663844400,2.99384423828125,0.0002480356488376856,-0.00003893952816724777,0.0005498463287949562
1717858234673885400,3.003885498046875,0.0002501246053725481,0.0010345503687858582,0.0015120510943233967
1717858234683925500,3.013925537109375,-7.452908903360367e-7,0.00023134052753448486,0.000081667210906744
1717858234693966300,3.02396630859375,-0.0011593680828809738,-0.0012306664139032364,-0.0015829093754291534
1717858234704007400,3.03400732421875,0.00046835606917738914,-0.00021813251078128815,0.000207534059882164
1717858234714047500,3.044047607421875,0.0011418056674301624,0.0003362176939845085,-0.0014349338598549366
1717858234724088300,3.05408837890625,0.0009074471890926361,0.00009919703006744385,-0.0007196087390184402
1717858234734128400,3.06412841796875,-0.00035610958002507687,-0.0006888071075081825,-0.0009466707706451416
1717858234744169500,3.07416943359375,0.00040395651012659073,-0.0005822805687785149,-0.0006843493320047855
1717858234754210600,3.08421044921875,0.0007145779673010111,0.0008261799812316895,0.0003396393731236458
1717858234764250600,3.094250732421875,-0.0014511044137179852,-0.0013355081900954247,0.00023124879226088524
1717858234774291500,3.10429150390625,-0.001169856870546937,-0.0010348744690418243,-0.0005716579034924507
1717858234784332500,3.11433251953125,0.0021905195899307728,0.0009433217346668243,-0.000440363772213459
1717858234794372600,3.12437255859375,0.0008070466574281454,0.0006917715072631836,-0.00014035217463970184
1717858234804413400,3.134413330078125,0.0013276946265250444,0.00023956689983606339,-0.00014461297541856766
1717858234814454500,3.14445458984375,-0.0010592585895210505,0.0001295851543545723,-0.0005031274631619453
1717858234824494300,3.154494384765625,0.00004595331847667694,0.00012718793004751205,0.00010700244456529617
1717858234834535400,3.164535400390625,0.0015259943902492523,-0.0015221722424030304,0.00030123163014650345
1717858234844575500,3.174575439453125,0.0008090711198747158,-0.000623888336122036,0.000890322495251894
1717858234854616300,3.1846162109375,0.00033525098115205765,-0.0002400316298007965,-0.0003065122291445732
1717858234864657400,3.194657470703125,-0.0005579732824116945,0.0012958133593201637,-0.00007055653259158134
1717858234874697500,3.204697509765625,-0.0006941163446754217,-0.0006544999778270721,-0.0002625938504934311
1717858234884738600,3.214738525390625,-0.00039104861207306385,-0.00029204413294792175,-0.0009153345599770546
1717858234894779400,3.224779296875,0.0005871928296983242,-0.00042836181819438934,0.0004869503900408745
1717858234904819500,3.2348193359375,-0.0007443877402693033,0.001379658468067646,-0.00011385884135961533
1717858234914860500,3.244860595703125,-0.0005801510997116566,0.0014759832993149757,-0.0009739631786942482
1717858234924900600,3.254900634765625,0.0007801917381584644,0.0002189716324210167,-0.0006820806302130222
1717858234934941400,3.26494140625,0.0003228622954338789,0.0015160907059907913,-0.0010331794619560242
1717858234944982500,3.274982421875,0.0000413660891354084,0.0001291166990995407,0.00031597772613167763
1717858234955022600,3.285022705078125,-0.0012744111008942127,-0.0012991111725568771,-0.00015719980001449585
1717858234965063700,3.295063720703125,-0.0012376594822853804,-0.00039922911673784256,-0.00014415010809898376
1717858234975104500,3.3051044921875,0.0011565256863832474,0.00040356628596782684,0.0004399907775223255
1717858234985144300,3.315144287109375,-0.0005425713025033474,-0.0004065670073032379,-0.0014204937033355236
1717858234995185400,3.325185302734375,-0.0009287348948419094,-0.000013724900782108307,-0.00009870529174804688
1717858235005226500,3.3352265625,0.00022468017414212227,-0.0004536788910627365,0.0002911812625825405
1717858235015266300,3.345266357421875,0.00062413583509624,0.0013407953083515167,0.00011403905227780342
1717858235025307400,3.355307373046875,0.0008755384478718042,0.0003903135657310486,0.0008639851585030556
1717858235035347500,3.365347412109375,0.0006087010260671377,-0.0005561597645282745,0.0001265052706003189
1717858235045388500,3.375388427734375,-0.0005585623439401388,-0.00003284867852926254,0.000072442926466465
1717858235055429400,3.385429443359375,0.0009168209508061409,-0.0003878297284245491,0.00019023939967155457
1717858235065469400,3.395469482421875,-0.0005902617704123259,0.00150328129529953,0.0012504435144364834
1717858235075510500,3.405510498046875,0.000931277172639966,-0.0005032271146774292,0.0004261522553861141
1717858235085551600,3.415551513671875,-0.0010461199562996626,-0.000254753977060318,-0.0013605626299977303
1717858235095591400,3.42559130859375,-0.001679763663560152,0.0005311993882060051,0.000622753519564867
1717858235105632500,3.435632568359375,-0.0009649712592363358,0.0002185441553592682,0.0004523112438619137
1717858235115673600,3.445673583984375,0.0005870666354894638,-0.0003416789695620537,0.00037912558764219284
1717858235125713400,3.45571337890625,0.0018414156511425972,-0.0009789736941456795,-0.0020078658126294613
1717858235135754200,3.465754150390625,0.0009258617646992207,-0.0004634922370314598,0.0014682989567518234
1717858235145794300,3.475794189453125,0.0003000190481543541,-0.0005116956308484077,-0.0012073791585862637
1717858235155835400,3.48583544921875,-0.0006830631755292416,-0.0002525653690099716,0.000904581043869257
1717858235165876500,3.49587646484375,0.00008659018203616142,-0.0000842539593577385,-0.000036047305911779404
1717858235175916500,3.50591650390625,-0.0017614404205232859,0.00005891174077987671,-0.0011725439690053463
1717858235185957400,3.515957275390625,0.00003832369111478329,-0.0011895783245563507,0.00041443342342972755
1717858235195998500,3.52599853515625,-0.0002961533609777689,0.000027264468371868134,0.0010265931487083435
1717858235206038500,3.53603857421875,-0.00031799147836863995,0.00036575179547071457,-0.00046051619574427605
1717858235216079400,3.546079345703125,0.0006585519295185804,-0.00024153199046850204,-0.00022190483286976814
1717858235226120400,3.556120361328125,-0.00009086169302463531,-0.00025697890669107437,-0.0006229770369827747
1717858235236160500,3.566160400390625,-0.0010138822253793478,0.00012807920575141907,-0.00017157010734081268
1717858235246201600,3.57620166015625,-0.00008230842649936676,0.0010407445952296257,-0.000344675499945879
1717858235256242400,3.586242431640625,0.00035542575642466545,-0.0007930994033813477,-0.0002637063153088093
1717858235266282500,3.596282470703125,0.0013897973112761974,0.00027322955429553986,0.00023457081988453865
1717858235276323600,3.606323486328125,-0.0006274641491472721,-0.0011963676661252975,-0.0008108899928629398
1717858235286363400,3.61636328125,-0.0006069578230381012,0.0002888767048716545,-0.001275345217436552
1717858235296404500,3.626404541015625,-0.00009909877553582191,0.0001699943095445633,-0.0019641760736703873
1717858235306445300,3.6364453125,0.001411712495610118,0.000026982277631759644,0.0010212273336946964
1717858235316485400,3.6464853515625,0.002265575109049678,0.0005222028121352196,0.0004871934652328491
1717858235326526500,3.6565263671875,-0.0003222182858735323,-0.0007997900247573853,-0.00016634631901979446
1717858235336567300,3.6665673828125,-0.0014155027456581593,-0.0008248100057244301,-0.00005535455420613289
1717858235346607400,3.676607421875,0.00013871816918253899,-0.0011270791292190552,-0.0006068949587643147
1717858235356648400,3.6866484375,0.00027324073016643524,-0.0005045440047979355,-0.001086781732738018
1717858235366688500,3.6966884765625,-0.0008479501120746136,-0.00015487056225538254,0.0008575920946896076
1717858235376729600,3.7067294921875,-0.0006882015150040388,0.0004665590822696686,-0.0010160007514059544
1717858235386770400,3.7167705078125,0.0002665417268872261,0.0006609698757529259,0.0009558037854731083
1717858235396810500,3.726810546875,0.00032046507112681866,-0.0007155789062380791,0.000028963666409254074
1717858235406851600,3.7368515625,0.001002234173938632,-0.0009137177839875221,0.0005221813917160034
1717858235416892400,3.746892333984375,-0.0007555207703262568,-0.0003946945071220398,-0.00016319146379828453
1717858235426932500,3.756932373046875,-0.0006378090474754572,-0.00030894018709659576,0.0007127220742404461
1717858235436973600,3.7669736328125,0.00011631892994046211,0.00022349413484334946,-0.0008412646129727364
1717858235447014700,3.7770146484375,-0.000024828361347317696,-0.0014090235345065594,-0.0005227508954703808
1717858235457054500,3.787054443359375,0.0007799949962645769,-0.00012617837637662888,0.0011239727027714252
1717858235467095300,3.79709521484375,-0.0002570399083197117,-0.00033736787736415863,-0.0011556930840015411
1717858235477135400,3.80713525390625,-0.0001548405271023512,-0.001040453091263771,0.00036031194031238556
1717858235487176400,3.817176513671875,0.0003873789682984352,0.0000016419216990470886,0.000258046668022871
1717858235497217500,3.827217529296875,0.00034351227805018425,-0.0003837449476122856,-0.0011322638019919395
1717858235507257300,3.83725732421875,0.00019357586279511452,0.00016699638217687607,-0.00009895721450448036
1717858235517298400,3.84729833984375,0.00009421491995453835,0.00032889004796743393,-0.0003263489343225956
1717858235527339500,3.857339599609375,0.001283582765609026,-0.0005840416997671127,-0.00017721205949783325
1717858235537379600,3.867379638671875,0.00018418161198496819,-0.001345919445157051,0.001090464647859335
1717858235547420400,3.87742041015625,-0.00043740030378103256,-0.00044976547360420227,0.0010800780728459358
1717858235557461500,3.88746142578125,-0.0004443854559212923,-0.0008457610383629799,0.0010784841142594814
1717858235567501600,3.89750146484375,-0.0001780693419277668,0.00014333706349134445,-0.00028558680787682533
1717858235577542700,3.907542724609375,-0.000008581439033150673,-0.0011758534237742424,0.0008316142484545708
1717858235587583500,3.91758349609375,-0.0008647877257317305,-0.0012285839766263962,-0.0000906381756067276
1717858235597623300,3.927623291015625,0.0007868993561714888,-0.00003490131348371506,-0.0007247831672430038
1717858235607664400,3.937664306640625,0.0011757209431380033,0.00002342183142900467,0.0010930905118584633
1717858235617703200,3.947703125,-0.00040604337118566036,0.0012541376054286957,0.00030733272433280945
1717858235627744300,3.957744140625,0.00010262057185173035,0.000005381181836128235,0.00023489445447921753
1717858235637785000,3.96778515625,0.00018603005446493626,0.00037812255322933197,0.000791394617408514
1717858235647825200,3.9778251953125,-0.0005737696774303913,-0.0003372021019458771,-0.0015777535736560822
1717858235657866200,3.9878662109375,0.0004179051611572504,-0.0015504127368330956,-0.0006611091084778309
1717858235667907300,3.9979072265625,0.00010924483649432659,0.000045087188482284546,0.0009517013095319271
1717858235677947400,4.007947509765625,0.0014577268157154322,-0.00032394006848335266,-0.0009020864963531494
1717858235687988200,4.01798828125,0.0008310850244015455,0.0002784663811326027,0.00004173768684267998
1717858235698029300,4.028029296875,-0.0016495143063366413,-0.00009798351675271988,0.00014478061348199844
1717858235708069400,4.0380693359375,0.0017039382364600897,0.0006205374374985695,0.0009186952374875546
1717858235718110200,4.048110107421875,-0.0007640859112143517,0.00017840974032878876,0.002084951149299741
1717858235728150300,4.058150390625,0.000995198031887412,0.0012141130864620209,0.0009602983482182026
1717858235738191400,4.06819140625,-0.0008503214921802282,0.00020289700478315353,0.0005550337955355644
1717858235748232400,4.078232421875,-0.00143302115611732,-0.0005318690091371536,-0.0006306055001914501
1717858235758272300,4.088272216796875,0.0006943424232304096,-0.0005860514938831329,0.00016617542132735252
1717858235768313000,4.09831298828125,-0.000043885549530386925,-0.0012438520789146423,-0.0009824461303651333
1717858235778354400,4.1083544921875,-0.0017668399959802628,0.0009156400337815285,0.0007051853463053703
1717858235788394200,4.118394287109375,0.00030163698829710484,0.0008338801562786102,-0.0010037650354206562
1717858235798435300,4.128435302734375,0.00046265916898846626,0.0005246736109256744,-0.001550333108752966
1717858235808476200,4.13847607421875,0.00043922336772084236,0.00026501528918743134,-0.0013953368179500103
1717858235818516200,4.14851611328125,-0.00008654547855257988,-0.00036605820059776306,-0.0005613500252366066
1717858235828557300,4.158557373046875,-0.0006897514685988426,0.0009596636518836021,-0.0003365790471434593
1717858235838597400,4.168597412109375,-0.0013430225662887096,-0.00011546071618795395,0.0004441882483661175
1717858235848638200,4.17863818359375,-0.0003632456064224243,0.00024220161139965057,0.00013659289106726646
1717858235858679300,4.18867919921875,0.0001916494220495224,-0.0010714270174503326,0.0006248345598578453
1717858235868719400,4.19871923828125,0.0012406683526933193,-0.00011428724974393845,0.00034520262852311134
1717858235878760400,4.208760498046875,-0.00044036610051989555,-0.00019874051213264465,0.00004310021176934242
1717858235888801300,4.21880126953125,-0.0007314495742321014,0.0003381529822945595,0.0005759987980127335
1717858235898841300,4.22884130859375,-0.00033014663495123386,0.0013762712478637695,0.00010141544044017792
1717858235908882400,4.23888232421875,0.0005114120431244373,0.00010913889855146408,0.0001184600405395031
1717858235918923300,4.24892333984375,-0.001125377370044589,0.0008656047284603119,0.00008753640577197075
1717858235928963000,4.258963134765625,-0.0006129853427410126,-0.0005376143380999565,0.0001349407248198986
1717858235939004200,4.269004150390625,-0.000371596310287714,-0.0006875460967421532,0.001007205806672573
1717858235949045200,4.279045166015625,-0.0005945027805864811,-0.0010838238522410393,0.00009107822552323341
1717858235959085300,4.289085205078125,-0.0000769500620663166,-0.0004897518083453178,0.00035977084189653397
1717858235969126100,4.299126220703125,-0.001568320207297802,-0.0007808348163962364,0.0007525868713855743
1717858235979166200,4.309166259765625,-0.00038638152182102203,-0.0008788648992776871,-0.0010062973015010357
1717858235989207300,4.319207275390625,0.0007284178864210844,0.00007934030145406723,-0.00013038376346230507
1717858235999248400,4.329248291015625,-0.0000038906000554561615,0.0017227698117494583,-0.0008468772284686565
1717858236009288200,4.3392880859375,0.002298678271472454,0.0005283420905470848,0.0003368980251252651
1717858236019329300,4.349329345703125,-0.0008754879236221313,-0.00010586809366941452,0.00015742145478725433
1717858236029370400,4.359370361328125,0.00003265007399022579,-0.0005708560347557068,0.0006237407214939594
1717858236039410400,4.369410400390625,0.0018433958757668734,-0.0008020298555493355,-0.0007347525097429752
1717858236049451300,4.379451171875,0.0005192721728235483,-0.0010156156495213509,-0.0012492751702666283
1717858236059492400,4.389492431640625,0.0013964141253381968,0.00040600914508104324,0.00054888054728508
1717858236069532400,4.399532470703125,0.0011468760203570127,-0.0011897571384906769,0.00024661142379045486
1717858236079573500,4.409573486328125,-0.0002813630271703005,0.0004529133439064026,-0.0012339716777205467
1717858236089613300,4.41961328125,-0.00012396997772157192,-0.0004813242703676224,0.0003905561752617359
1717858236099654100,4.429654052734375,-0.00008256803266704082,-0.0003182636573910713,0.0003482871688902378
1717858236109695200,4.4396953125,0.00014672987163066864,-0.00044263340532779694,-0.00007169321179389954
1717858236119735300,4.4497353515625,0.00035410933196544647,-0.0018022842705249786,0.0007671876810491085
1717858236129776000,4.459776123046875,-0.0010168857406824827,-0.0007716407999396324,0.0005131224170327187
1717858236139817200,4.469817138671875,0.00008944794535636902,0.0008461326360702515,0.0004670713096857071
1717858236149857300,4.479857177734375,-0.0013052495196461678,-0.0002774549648165703,0.0002545509487390518
1717858236159898400,4.4898984375,0.00012724846601486206,0.0010300949215888977,0.0004502306692302227
1717858236169939200,4.499939208984375,0.003119043540209532,0.0008095856755971909,0.000626798253506422
1717858236179979300,4.509979248046875,-0.0005141431465744972,-0.0001757349818944931,0.00048527587205171585
1717858236190020400,4.520020263671875,0.00040198443457484245,0.0002407832071185112,0.0004357411526143551
1717858236200061400,4.5300615234375,-0.0007304518949240446,-0.00023236405104398727,0.00036815693601965904
1717858236210101200,4.540101318359375,-0.0018742794636636972,-0.0013937689363956451,0.0008651027455925941
1717858236220142300,4.550142333984375,-0.00005659577436745167,-0.0003935452550649643,0.0016749310307204723
1717858236230182100,4.56018212890625,0.00010585691779851913,-0.0007645236328244209,-0.0007557361386716366
1717858236240223500,4.570223388671875,-0.000825738999992609,0.00036541279405355453,0.00013698311522603035
1717858236250264300,4.580264404296875,-0.0013381310272961855,0.001607777550816536,0.0020531276240944862
1717858236260304100,4.59030419921875,-0.0007716810796409845,0.0003466373309493065,0.00038238102570176125
1717858236270345200,4.60034521484375,-0.0015724936965852976,-0.0006227539852261543,0.0006716004572808743
1717858236280386300,4.61038623046875,0.000798339955508709,-0.0009622639045119286,0.0005693319253623486
1717858236290426400,4.62042626953125,0.000813520047813654,0.00046758726239204407,-0.0003262893296778202
1717858236300467200,4.63046728515625,0.00044517964124679565,0.0007843980565667152,0.000513461884111166
1717858236310508300,4.64050830078125,0.00015010125935077667,-0.0010803472250699997,-0.00018934626132249832
1717858236320548400,4.65054833984375,-0.001446005655452609,-0.0007389634847640991,-0.00006091361865401268
1717858236330589200,4.660589111328125,-0.0013693065848201513,0.0004077935591340065,0.0022065015509724617
1717858236340629200,4.670629150390625,-0.0028630844317376614,-0.0006939955055713654,-0.0012231487780809402
1717858236350670300,4.68067041015625,0.001813958864659071,0.0009489087387919426,0.0005878005176782608
1717858236360711400,4.69071142578125,0.0012042014859616756,-0.0002856506034731865,-0.0000476236455142498
1717858236370751500,4.70075146484375,-0.00010687275789678097,-0.00036181695759296417,-0.001027134247124195
1717858236380792300,4.710792236328125,-0.0003159188199788332,-0.00019428972154855728,0.0005930671468377113
1717858236390833400,4.72083349609375,-0.0005603970494121313,0.0004081176593899727,0.0001376667059957981
1717858236400873200,4.730873291015625,0.00024536484852433205,0.0002053016796708107,0.0016600661911070347
1717858236410914300,4.740914306640625,-0.0013227046001702547,-0.00014650169759988785,0.00004139682278037071
1717858236420955100,4.750955078125,-0.0009522207546979189,-0.00004183128476142883,0.0014966516755521297
1717858236430995200,4.7609951171875,0.00029094284400343895,0.00014219339936971664,-0.0002522459253668785
1717858236441036300,4.771036376953125,-0.001527517568320036,-0.0009930282831192017,0.00040614139288663864
1717858236451077000,4.7810771484375,0.0012525562196969986,0.0002754349261522293,-0.0008982750587165356
1717858236461117200,4.7911171875,-0.0016717917751520872,0.0009201299399137497,-0.00042484747245907784
1717858236471158300,4.801158203125,0.0005791117437183857,0.00008442997932434082,-0.001959627028554678
1717858236481198300,4.8111982421875,-0.00013802386820316315,0.00023795291781425476,0.0013760123401880264
1717858236491239400,4.821239501953125,-0.00031965156085789204,0.0001415461301803589,-0.0003419928252696991
1717858236501280300,4.8312802734375,-0.0005846961867064238,-0.0008993614464998245,0.00032024504616856575
1717858236511320300,4.8413203125,0.0002382206730544567,-0.0006663352251052856,0.00010958919301629066
1717858236521361400,4.851361328125,0.0010625040158629417,-0.000909821130335331,0.0004538600333034992
1717858236531402200,4.86140234375,0.00013306085020303726,0.0007834173738956451,0.000208316370844841
1717858236541442300,4.8714423828125,-0.0010639952961355448,-0.0003645578399300575,0.0018773111514747143
1717858236551483400,4.8814833984375,-0.0005827620625495911,-0.0003989124670624733,0.0013742400333285332
1717858236561524500,4.8915244140625,0.000511824619024992,-0.0007888702675700188,0.0015722746029496193
1717858236571564300,4.901564208984375,0.0008593671955168247,-0.0001172209158539772,-0.0005553248338401318
1717858236581605000,4.911605224609375,0.0011394214816391468,-0.0019770124927163124,-0.00003754952922463417
1717858236591646200,4.921646240234375,-0.0007194650825113058,0.00030638184398412704,0.0009693917818367481
1717858236601686300,4.931686279296875,0.0002561789005994797,-0.0000367509201169014,0.0006394581869244576
1717858236611727400,4.941727294921875,-0.00030148704536259174,-0.0012029493227601051,0.0006101629696786404
1717858236621767400,4.951767333984375,0.0007819426245987415,-0.0014105886220932007,0.000997722614556551
1717858236631808500,4.96180859375,-0.0005938464310020208,-0.0007772892713546753,-0.0010417262092232704
1717858236641849600,4.971849609375,-0.0003723574336618185,-0.000021500512957572937,-0.001069212332367897
1717858236651889700,4.9818896484375,0.00002818182110786438,0.0008251192048192024,0.001368645578622818
1717858236661930500,4.991930419921875,-0.0014379315543919802,-0.0008302722126245499,-0.00014394056051969528
1717858236671971600,5.0019716796875,-0.0003902439493685961,0.00017587002366781235,0.0009998870082199574
1717858236682011400,5.012011474609375,-0.0008348706178367138,-0.0013522710651159286,-0.001359838992357254
1717858236692052500,5.022052490234375,-0.00018772250041365623,-0.00008780136704444885,0.00011608470231294632
1717858236702093300,5.03209326171875,-0.0005994467064738274,-0.00023794639855623245,0.0010936246253550053
1717858236712133400,5.04213330078125,-0.00025323592126369476,-0.0004848213866353035,0.0005271700210869312
1717858236722174500,5.052174560546875,-0.0012679197825491428,-0.0004239128902554512,-0.00027301860973238945
1717858236732215300,5.06221533203125,0.00011692382395267487,-0.001534983515739441,0.00044283922761678696
1717858236742255400,5.07225537109375,0.00005734385922551155,0.0000851806253194809,-0.00006555486470460892
1717858236752296400,5.08229638671875,0.00020994292572140694,-0.00034518633037805557,-0.00047195330262184143
1717858236762336500,5.09233642578125,-0.00004034675657749176,0.00032238755375146866,0.0006562718190252781
1717858236772377600,5.102377685546875,-0.0008664594497531652,-0.00036417506635189056,-0.0005591944791376591
1717858236782418400,5.11241845703125,0.0004986771382391453,-0.0009191781282424927,-0.0003855563700199127
1717858236792458500,5.12245849609375,0.00009367894381284714,-0.0009912196546792984,-0.000588058028370142
1717858236802499600,5.13249951171875,0.0006275391206145287,0.00044007599353790283,-0.000024646054953336716
1717858236812540400,5.14254052734375,-0.00027660420164465904,-0.00045554526150226593,-0.0003799120895564556
1717858236822580200,5.152580322265625,-0.0016248312313109636,0.00035088416188955307,-0.00047977035865187645
1717858236832621600,5.16262158203125,-0.0008258828893303871,-0.00030585192143917084,0.001317331101745367
1717858236842662700,5.17266259765625,-0.00016538589261472225,-0.00045134592801332474,0.0008404259569942951
1717858236852702500,5.182702392578125,0.001216262113302946,-0.0007051452994346619,0.0010859696194529533
1717858236862743300,5.192743408203125,0.00006552040576934814,0.0007297564297914505,0.00025768717750906944
1717858236872784400,5.202784423828125,-0.0003933422267436981,0.00003254041075706482,0.0014619682915508747
1717858236882824400,5.212824462890625,-0.00013406900689005852,-0.0000885380432009697,-0.001151353120803833
1717858236892865500,5.222865478515625,0.00040122633799910545,-0.0003103800117969513,0.0005839625373482704
1717858236902905300,5.2329052734375,0.0007653539068996906,-0.0004755444824695587,0.0018631555140018463
1717858236912946400,5.242946533203125,-0.0008210912346839905,-0.0004531731829047203,0.0013728677295148373
1717858236922987500,5.252987548828125,-0.000509415753185749,0.0007056165486574173,0.00014934036880731583
1717858236933027600,5.263027587890625,-0.0007525624241679907,0.00030987057834863663,0.0007173926569521427
1717858236943068400,5.273068359375,-0.00006246357224881649,-0.00027925334870815277,0.0009359964169561863
1717858236953109500,5.283109619140625,-0.0007908381521701813,0.00027601607143878937,0.0011655609123408794
1717858236963149600,5.293149658203125,0.0006781411357223988,0.0005377065390348434,-0.00073953066021204
1717858236973190700,5.303190673828125,-0.0015959320589900017,0.0001238510012626648,-0.0007547107525169849
1717858236983231500,5.3132314453125,-0.0018059485591948032,0.00022962596267461777,0.0013254969380795956
1717858236993271300,5.323271240234375,-0.000021364307031035423,-0.0012297863140702248,0.0004021790809929371
1717858237003312400,5.3333125,0.0000033765099942684174,0.0005270447582006454,0.00036031706258654594
1717858237013353500,5.343353515625,0.0003658328205347061,-0.0003075897693634033,0.000638351310044527
1717858237023393300,5.353393310546875,0.001069855410605669,-0.0017371946014463902,0.000437744427472353
1717858237033434400,5.363434326171875,-0.0003309675958007574,0.00006283633410930634,0.0007426762022078037
1717858237043474400,5.373474365234375,0.0004080196376889944,-0.0003079790621995926,-0.00013126293197274208
1717858237053515500,5.383515625,-0.00011129677295684814,0.00001000240445137024,-0.00002074195072054863
1717858237063556400,5.393556396484375,0.0005257832817733288,-0.0010871533304452896,-0.00039366353303194046
1717858237073596400,5.403596435546875,-0.0010473458096385002,0.0007333839312195778,-0.0007108459249138832
1717858237083637500,5.413637451171875,-0.0007958631031215191,-0.0000033695250749588013,-0.0010540592484176159
1717858237093678600,5.4236787109375,-0.0004888006951659918,-0.00006249174475669861,-0.0005355421453714371
1717858237103718400,5.433718505859375,-0.00028182240203022957,0.00007758941501379013,-0.0010659154504537582
1717858237113759500,5.443759521484375,-0.0011215170379728079,0.0001292545348405838,0.000740506686270237
1717858237123800600,5.453800537109375,0.000245929230004549,0.00014245789498090744,0.0005736011080443859
1717858237133840600,5.463840576171875,0.0012432835064828396,0.0000023748725652694702,0.00130490493029356
1717858237143881500,5.473881591796875,0.0005487375892698765,0.00042597483843564987,0.0013945423997938633
1717858237153922600,5.483922607421875,0.00044860271736979485,0.00024381466209888458,0.0017996090464293957
1717858237163962400,5.49396240234375,0.0012090876698493958,0.00043080467730760574,-0.00007378868758678436
1717858237174003500,5.50400341796875,0.0005608745850622654,-0.0007974458858370781,-0.0001443624496459961
1717858237184043500,5.51404345703125,-0.0006875370163470507,-0.00035951193422079086,-0.0006441818550229073
1717858237194084400,5.52408447265625,0.000496770953759551,0.00014276057481765747,-0.00042020995169878006
1717858237204125400,5.53412548828125,-0.0014856965281069279,-0.00024355482310056686,-0.0010707504115998745
1717858237214165500,5.54416552734375,0.0011036950163543224,-0.0006520841270685196,0.000403841957449913
1717858237224206300,5.554206298828125,0.00015805428847670555,0.0009492281824350357,0.00023714080452919006
1717858237234247400,5.564247314453125,0.00006191432476043701,0.00014522019773721695,0.00028667598962783813
1717858237244287500,5.57428759765625,0.0013770158402621746,0.0008246852084994316,0.0005188034847378731
1717858237254328600,5.58432861328125,-0.00003445963375270367,-0.0007364600896835327,0.0010919156484305859
1717858237264369400,5.594369384765625,-0.001009068451821804,-0.0007077381014823914,0.0011243359185755253
1717858237274409500,5.604409423828125,0.00004580989480018616,0.000013979151844978333,-0.0004890072159469128
1717858237284450600,5.614450439453125,0.00046464335173368454,0.00038930773735046387,0.0008477410301566124
1717858237294491600,5.62449169921875,-0.0009425708558410406,-0.0008384091779589653,0.000427494291216135
1717858237304531500,5.634531494140625,0.00037359469570219517,-0.0009268289431929588,0.0005106176249682903
1717858237314572500,5.644572509765625,0.00009769131429493427,0.0003576138988137245,0.001219018828123808
1717858237324612400,5.6546123046875,-0.0005956678651273251,-0.0004347506910562515,0.0017809169366955757
1717858237334653400,5.6646533203125,-0.0001250870991498232,0.00044169556349515915,-0.0001986105926334858
1717858237344694300,5.6746943359375,0.00031723175197839737,0.00008016545325517654,0.0013907118700444698
1717858237354734300,5.684734375,-0.0004910374991595745,-0.001552085392177105,0.0007070787250995636
1717858237364775400,5.694775390625,-0.0009724136907607317,0.0005025062710046768,-0.002355359960347414
1717858237374816500,5.70481640625,0.0007466566748917103,0.0011062445119023323,-0.0003036600537598133
1717858237384856600,5.714856689453125,0.0012661132495850325,-0.0013255337253212929,-0.0012520337477326393
1717858237394897400,5.7248974609375,0.000613638898357749,-0.0000030081719160079956,-0.000014462973922491074
1717858237404938500,5.7349384765625,-0.00043486012145876884,0.00011380575597286224,0.0020705077331513166
1717858237414978600,5.744978515625,0.00011375104077160358,-0.0003884658217430115,0.0006137583404779434
1717858237425019400,5.755019287109375,-0.0020728542003780603,-0.0012470250949263573,0.0013018823228776455
1717858237435060500,5.765060546875,-0.0008352831937372684,-0.0011823102831840515,0.0007759081199765205
1717858237445100500,5.7751005859375,0.00022005615755915642,0.00013537239283323288,-0.00005863560363650322
1717858237455141600,5.7851416015625,-0.000316038029268384,-0.0012249704450368881,0.0011712121777236462
1717858237465182500,5.795182373046875,-0.0002999680582433939,-0.0023453966714441776,0.00011194311082363129
1717858237475222300,5.80522216796875,0.0006249474827200174,-0.00015121791511774063,0.00117161450907588
1717858237485263400,5.815263427734375,-0.00016111694276332855,-0.000756152905523777,-0.0009561767801642418
1717858237495303400,5.825303466796875,-0.00005805259570479393,-0.00158785842359066,0.00018898257985711098
1717858237505344500,5.835344482421875,0.0014108940958976746,-0.00046738889068365097,0.00007323548197746277
1717858237515385300,5.84538525390625,-0.00010630907490849495,-0.0010506212711334229,0.000994955189526081
1717858237525425400,5.85542529296875,-0.0009235099423676729,-0.0003393348306417465,0.00005198270082473755
1717858237535466500,5.865466552734375,0.000460535055026412,-0.0001872684806585312,-0.0012324596755206585
1717858237545507300,5.87550732421875,-0.000448776176199317,-0.000021112151443958282,0.0008822642266750336
1717858237555547400,5.88554736328125,0.0008039749227464199,0.00015918351709842682,0.00026494311168789864
1717858237565588500,5.89558837890625,0.0004964082036167383,0.0008271895349025726,0.0011084293946623802
1717858237575629600,5.905629638671875,0.00020931963808834553,-0.00018720794469118118,-0.0004971902817487717
1717858237585669600,5.915669677734375,0.0006450186483561993,0.0009383764117956161,-0.0005428297445178032
1717858237595710500,5.92571044921875,0.00016831280663609505,-0.00007655471563339233,-0.000046150293201208115
1717858237605751600,5.93575146484375,-0.00044508487917482853,0.000006042420864105225,1.0617077350616455e-7
1717858237615791600,5.94579150390625,-0.0001779699232429266,-0.000397426076233387,0.00142196798697114
1717858237625832200,5.955832275390625,0.0005637998692691326,-0.0005388408899307251,0.0005932389758527279
1717858237635872300,5.965872314453125,0.0006759190000593662,-0.00007518474012613297,0.00046327710151672363
1717858237645913300,5.975913330078125,-0.00006390409544110298,0.0010307161137461662,0.00017249304801225662
1717858237655954400,5.985954345703125,-0.0002940013073384762,0.000528976321220398,-0.0010845190845429897
1717858237665994500,5.995994384765625,0.00036606844514608383,-0.00033209193497896194,-0.0008209440857172012
1717858237676035300,6.006035400390625,-0.00023767026141285896,0.00021092593669891357,-0.0012952527031302452
1717858237686076400,6.016076416015625,0.0018313166219741106,0.001169426366686821,-0.00018251314759254456
1717858237696116500,6.026116455078125,-0.001352226361632347,-0.0004809340462088585,-0.0013625598512589931
1717858237706157600,6.036157470703125,0.0006516415160149336,-0.0015990585088729858,-0.0004603336565196514
1717858237716198400,6.046198486328125,0.0006921219173818827,-0.0017798873595893383,-0.0001599290408194065
1717858237726238200,6.05623828125,0.0002077480312436819,-0.0009172596037387848,-0.000007211696356534958
1717858237736279300,6.066279296875,0.00007166084833443165,-0.001673863735049963,0.00103035569190979
1717858237746320100,6.076320068359375,0.0005887234583497047,0.00002435687929391861,-0.0005052126944065094
1717858237756360200,6.086360107421875,0.0005919192917644978,0.0011609941720962524,-0.000054605770856142044
1717858237766401300,6.0964013671875,0.000570736126974225,-0.0006017619743943214,-0.00042869430035352707
1717858237776441300,6.10644140625,0.0006109501700848341,-0.0021285521797835827,0.0006147320382297039
1717858237786482400,6.116482421875,-0.00048533338122069836,-0.00033842213451862335,0.000229773111641407
1717858237796523300,6.126523193359375,0.0003804604057222605,-0.0008825063705444336,-0.00023601343855261803
1717858237806563300,6.136563232421875,0.000014774734154343605,-0.001149037852883339,0.00016285665333271027
1717858237816604400,6.1466044921875,-0.0006893649697303772,0.0006376774981617928,0.0010960283689200878
1717858237826645200,6.156645263671875,-0.0007477868348360062,-0.0006688609719276428,-0.00013274094089865685
1717858237836685300,6.166685302734375,0.000012012897059321404,0.0000941343605518341,-0.0001769494265317917
1717858237846726400,6.176726318359375,0.00005112821236252785,0.000042865052819252014,-0.00013583246618509293
1717858237856767500,6.186767578125,0.000816787127405405,-0.0005893688648939133,0.00016297399997711182
1717858237866807300,6.196807373046875,0.000035809120163321495,-0.0010553337633609772,0.0016253362409770489
1717858237876848000,6.20684814453125,-0.0005942948628216982,-0.0004627807065844536,0.0003922926262021065
1717858237886889200,6.21688916015625,-0.0006736342329531908,-0.0007934076711535454,-0.0009760470129549503
1717858237896929300,6.22692919921875,0.00023290584795176983,0.00046227220445871353,0.00022423965856432915
1717858237906970400,6.236970458984375,0.0006326334550976753,-0.0004520658403635025,-0.0006698477081954479
1717858237917010400,6.247010498046875,-0.0015426364261657,0.000730377621948719,0.00019008712843060493
1717858237927051300,6.25705126953125,-0.0008927281014621258,-0.00003403332084417343,-0.00015362538397312164
1717858237937092400,6.26709228515625,-0.0002620916347950697,-0.0017957142554223537,0.0009840773418545723
1717858237947132400,6.27713232421875,-0.00022956845350563526,0.0006232354789972305,0.0012386171147227287
1717858237957173200,6.28717333984375,0.0012623346410691738,-0.0009355125948786736,0.0012998702004551888
1717858237967214300,6.29721435546875,-0.0002695145085453987,-0.0006979387253522873,0.0011525889858603477
1717858237977254400,6.30725439453125,-0.0008178595453500748,0.0001561371609568596,-0.0002245316281914711
1717858237987295500,6.31729541015625,0.0011558253318071365,-0.0006089182570576668,-0.0023647849448025227
1717858237997336300,6.32733642578125,-0.000692941015586257,-0.0006952043622732162,-0.0003655501641333103
1717858238007376400,6.33737646484375,-0.0011181484442204237,-0.0005313875153660774,0.0006379629485309124
1717858238017417500,6.34741748046875,0.001966590993106365,-0.0002176668494939804,-0.0011527463793754578
1717858238027458300,6.357458251953125,0.0006874918472021818,0.001111658290028572,-0.0007149982266128063
1717858238037498000,6.367498046875,0.00031305127777159214,0.0000967271625995636,-0.00027317972853779793
1717858238047539200,6.377539306640625,0.0002921761479228735,-0.0009492402896285057,-0.0008469182066619396
1717858238057579300,6.387579345703125,-0.0008316778112202883,0.000493660569190979,-0.0006285388953983784
1717858238067620400,6.397620361328125,0.001747913658618927,0.000010433606803417206,0.00004499917849898338
1717858238077661200,6.4076611328125,-0.00025105499662458897,-0.000978131778538227,0.0015986873768270016
1717858238087701200,6.417701171875,-0.0006119811441749334,0.00033538416028022766,0.00023093726485967636
1717858238097742300,6.427742431640625,0.0009289239533245564,0.00011567305773496628,-0.00007452722638845444
1717858238107783400,6.437783447265625,-0.00011415593326091766,-0.0007344577461481094,-0.0007180417887866497
1717858238117823500,6.447823486328125,-0.000184197211638093,-0.000003952533006668091,0.0005381717346608639
1717858238127864300,6.4578642578125,0.0015850423369556665,-0.0006994744762778282,0.00102169718593359
1717858238137905400,6.467905517578125,-0.0005004790145903826,0.0009471587836742401,0.0004621674306690693
1717858238147945500,6.477945556640625,0.0005464153364300728,-0.00014279689639806747,-0.0003440259024500847
1717858238157986300,6.487986328125,0.000724580604583025,0.0014878567308187485,-0.0014617545530200005
1717858238168027400,6.49802734375,0.0009778961539268494,0.00033455248922109604,-0.0002834056504070759
1717858238178067500,6.5080673828125,-0.0007832525297999382,0.0002778274938464165,-0.0002154950052499771
1717858238188108500,6.518108642578125,-0.00038522109389305115,0.0005627665668725967,0.00035386253148317337
1717858238198149400,6.5281494140625,-0.000448071863502264,-0.0012226160615682602,0.0008241771720349789
1717858238208189200,6.538189208984375,-0.0006353054195642471,-0.00004528835415840149,0.0009446591138839722
1717858238218230300,6.548230224609375,0.00030479044653475285,-0.0015747416764497757,-0.0000212695449590683
1717858238228270300,6.558270263671875,0.000181273790076375,-0.0001835804432630539,-0.0011255750432610512
1717858238238311200,6.568311279296875,0.0006180324126034975,-0.0008136844262480736,0.0008467622101306915
1717858238248352300,6.578352294921875,0.0008777782786637545,-0.00036066770553588867,0.0003864322789013386
1717858238258392300,6.588392333984375,0.002622681437060237,-0.0003782445564866066,-0.00014753174036741257
1717858238268433400,6.598433349609375,-0.0012969097588211298,-0.00009609665721654892,0.0003762822598218918
1717858238278474200,6.60847412109375,0.00011749519035220146,-0.0004878481850028038,-0.00103439437225461
1717858238288514300,6.618514404296875,-0.0011220162268728018,-0.0006860718131065369,-0.0010842559859156609
1717858238298555400,6.628555419921875,-0.00029031094163656235,-0.0004964554682374001,0.0015442841686308384
1717858238308596500,6.638596435546875,-0.0009002573788166046,0.0003034565597772598,-0.00015456322580575943
1717858238318636500,6.648636474609375,0.0035046108532696962,-0.0005463585257530212,0.0014641061425209045
1717858238328677400,6.658677490234375,0.00007079029455780983,-0.00203475309535861,0.0006423825398087502
1717858238338718500,6.668718505859375,0.000574660487473011,-0.0006294026970863342,0.00006634090095758438
1717858238348758300,6.67875830078125,-0.0000527289230376482,-0.00008198898285627365,-0.00039047980681061745
1717858238358799000,6.688799072265625,-0.0006665876135230064,-0.0006282031536102295,-0.0014392328448593616
1717858238368839200,6.698839111328125,-0.0007117211353033781,0.0004709633067250252,0.0003315727226436138
1717858238378880300,6.70888037109375,-0.0008131875656545162,0.0005375426262617111,-0.0004985346458852291
1717858238388921300,6.71892138671875,-0.00003760075196623802,-0.00032020173966884613,0.00044884346425533295
1717858238398961400,6.72896142578125,0.0012391188647598028,0.0005977898836135864,0.000427804421633482
1717858238409002200,6.739002197265625,0.0005669197998940945,0.00019498448818922043,-0.0004261923022568226
1717858238419043300,6.749043212890625,0.0005224449560046196,0.0005190912634134293,0.0013123191893100739
1717858238429083400,6.75908349609375,-0.000628102570772171,0.00030409451574087143,0.0005873055197298527
1717858238439124200,6.769124267578125,0.00019374885596334934,0.0012252815067768097,0.0004818444140255451
1717858238449165300,6.779165283203125,-0.00030293548479676247,-0.0001866677775979042,0.0017337221652269363
1717858238459205400,6.789205322265625,-0.0009458225686103106,0.0002514226362109184,-0.0010884297080338001
1717858238469246500,6.79924658203125,0.00007569976150989532,-0.0014152023941278458,0.0022848667576909065
1717858238479287300,6.809287353515625,-0.0006529411766678095,0.00024341419339179993,0.0006241197697818279
1717858238489327400,6.819327392578125,0.0004408508539199829,0.0018349196761846542,0.0005501578561961651
1717858238499368400,6.829368408203125,0.0010232841596007347,0.0023238761350512505,0.0015003737062215805
1717858238509409500,6.839409423828125,-0.0002283260691910982,-0.000044561922550201416,0.0009333277121186256
1717858238519449300,6.849449462890625,0.0005455887876451015,-0.002356985118240118,0.0002835164777934551
1717858238529490200,6.859490234375,0.00007343711331486702,-0.001217869110405445,-0.0001706499606370926
1717858238539530200,6.8695302734375,-0.000450140330940485,-0.0001416858285665512,-0.00018236786127090454
1717858238549571300,6.8795712890625,-0.0002409820444881916,0.000656825490295887,0.0003217696212232113
1717858238559612200,6.889612060546875,0.000036253128200769424,0.0004829205572605133,0.0008333628065884113
1717858238569652200,6.89965234375,0.000304454006254673,-0.0002295318990945816,-0.0005421815440058708
1717858238579693300,6.909693359375,0.0001872745342552662,0.0005539702251553535,-0.0005416488274931908
1717858238589734400,6.919734375,-0.0005211657844483852,0.00012802332639694214,-0.000901766587048769
1717858238599774500,6.9297744140625,0.0009289253503084183,-0.00009994301944971085,-0.000618672464042902
1717858238609815300,6.939815185546875,0.0011209934018552303,-0.0018517985008656979,-0.0005232132971286774
1717858238619856100,6.949856201171875,0.0007963539101183414,-0.0002901209518313408,-0.0009423946030437946
1717858238629896200,6.959896240234375,-0.0018965464551001787,0.0005341153591871262,-0.00009635835886001587
1717858238639937300,6.969937255859375,0.0002678046002984047,0.0002949638292193413,-0.00041300803422927856
1717858238649978000,6.97997802734375,-0.00005097733810544014,-0.0006972495466470718,-0.0006183385848999023
1717858238660018000,6.990017822265625,0.00013357959687709808,-0.00042134616523981094,0.0010448056273162365
1717858238670059000,7.00005908203125,0.00013002753257751465,0.0001776004210114479,0.000002973247319459915
1717858238680099000,7.01009912109375,-0.00026518572121858597,-0.001229614019393921,-0.00006280653178691864
1717858238690140000,7.020139892578125,0.0003514583222568035,0.0002936115488409996,-0.00006785104051232338
1717858238700181000,7.030180908203125,0.0011141877621412277,0.00007549859583377838,0.0004916791804134846
1717858238710221000,7.040220947265625,0.0008840779773890972,0.00024327542632818222,-0.0013849781826138496
1717858238720262100,7.05026220703125,0.0008699633181095123,-0.00007550511509180069,-0.0007103993557393551
1717858238730303000,7.060302978515625,0.0007512271404266357,-0.0006894990801811218,0.00035120220854878426
1717858238740343000,7.070343017578125,0.00047851912677288055,0.00011610705405473709,0.000674509909003973
1717858238750384000,7.080384033203125,-0.0008230025414377451,0.0008475799113512039,0.000504776369780302
1717858238760425200,7.09042529296875,-0.0009321921970695257,-0.0019308961927890778,-0.0005471720360219479
1717858238770465000,7.100465087890625,-0.0004603210836648941,0.001017492264509201,-0.00014924770221114159
1717858238780506000,7.110506103515625,0.00029148953035473824,-0.0004704166203737259,-0.0010528583079576492
1717858238790547200,7.120547119140625,0.0019056117162108421,0.00006843172013759613,-0.0008024410344660282
1717858238800587300,7.130587158203125,-0.00019349181093275547,-0.000155007466673851,-0.0011795442551374435
1717858238810628000,7.140628173828125,0.00035528140142560005,0.0007353881374001503,-0.000258701853454113
1717858238820669200,7.150669189453125,0.0016506430692970753,-0.0005850065499544144,0.0010907216928899288
1717858238830709000,7.160708984375,-0.0017330776900053024,-0.00006841681897640228,0.0003556516021490097
1717858238840750000,7.17075,0.0007865387015044689,-0.0007163640111684799,0.0003476617857813835
1717858238850790100,7.1807900390625,-0.00012750085443258286,-0.000673302449285984,0.001027082558721304
1717858238860831000,7.1908310546875,0.0008975500240921974,-0.0000192299485206604,-0.0010887985117733479
1717858238870872000,7.2008720703125,0.00004883063957095146,-0.0004305122420191765,-0.0009750546887516975
1717858238880912100,7.210912109375,0.0008067665621638298,-0.00043743662536144257,-0.0010008872486650944
1717858238890953000,7.220952880859375,0.00014205649495124817,-0.00008388608694076538,-0.0008227676153182983
1717858238900994000,7.230994140625,-0.0001397058367729187,0.0008325083181262016,0.0006675370968878269
1717858238911034000,7.2410341796875,-0.001136086881160736,-0.0013461560010910034,-0.00026247650384902954
1717858238921075200,7.2510751953125,-0.000380548182874918,0.00039555132389068604,0.0008906722068786621
1717858238931116000,7.261115966796875,-0.0007462531793862581,-0.0004722569137811661,0.0006230124272406101
1717858238941156000,7.271156005859375,-0.00031375582329928875,-0.00014282390475273132,-0.0002475748769938946
1717858238951197200,7.281197265625,-0.0012230610009282827,-0.0015277843922376633,-0.00028739217668771744
1717858238961238300,7.29123828125,0.0002123829908668995,-0.0007501412183046341,-0.000007227528840303421
1717858238971278000,7.301278076171875,0.00017518829554319382,-0.0009059151634573936,0.0004489896818995476
1717858238981319200,7.311319091796875,-0.001034685643389821,0.0006570946425199509,0.0011035948991775513
1717858238991359000,7.32135888671875,-0.0010114654432982206,0.000011352822184562683,-0.0007664328441023827
1717858239001400000,7.331400146484375,0.00026179198175668716,-0.00047174468636512756,-0.0006095729768276215
1717858239011441000,7.34144091796875,0.0008851899765431881,-0.0016932967118918896,-0.0005942662246525288
1717858239021481000,7.35148095703125,-0.0006780854891985655,-0.001129239797592163,-0.0011708405800163746
1717858239031522000,7.36152197265625,0.0010145031847059727,-0.000290432944893837,0.0004372759722173214
1717858239041563100,7.371563232421875,0.00008026650175452232,-0.0004363739863038063,0.0006535248830914497
1717858239051603200,7.381603271484375,0.0001585814170539379,0.0005517862737178802,-0.0015115360729396343
1717858239061644000,7.39164404296875,0.0005372827872633934,-0.00019283313304185867,0.0006107371300458908
1717858239071685000,7.40168505859375,-0.0011269845999777317,-0.00012583564966917038,-0.001161389984190464
1717858239081725200,7.41172509765625,-0.0001381528563797474,-0.00126593466848135,0.001687126699835062
1717858239091766000,7.42176611328125,-0.0015034168027341366,-0.00032645370811223984,0.00006963871419429779
1717858239101807000,7.43180712890625,0.0005964855663478374,-0.001222074031829834,-0.001108277589082718
1717858239111847200,7.44184716796875,-0.0007911145221441984,-0.00021470710635185242,0.0005264189094305038
1717858239121888300,7.45188818359375,0.0008978620171546936,0.0011110147461295128,-0.0017982544377446175
1717858239131929000,7.46192919921875,-0.000733338063582778,-0.0003350265324115753,-0.00031115952879190445
1717858239141969000,7.471968994140625,0.0006440486758947372,0.0002870876342058182,-0.0011042486876249313
1717858239152010000,7.482010009765625,0.00001767463982105255,-0.0005672266706824303,-0.0007216292433440685
1717858239162050000,7.492050048828125,-0.00006142118945717812,0.0004711402580142021,-0.0016755731776356697
1717858239172091000,7.5020908203125,-0.000302586006000638,-0.0012843608856201172,0.0007788296788930893
1717858239182132000,7.512132080078125,-0.0003284187987446785,-0.0005663726478815079,0.0001332797110080719
1717858239192172000,7.522172119140625,-0.0009653384331613779,-0.00045060552656650543,0.0005252663977444172
1717858239202213000,7.532213134765625,0.0009366911835968494,-0.0008034743368625641,-0.00005157431587576866
1717858239212254000,7.54225390625,0.0025385566987097263,-0.0001135142520070076,-0.001316038891673088
1717858239222294000,7.5522939453125,-0.0006913249380886555,0.00013122987002134323,-0.0009439955465495586
1717858239232335000,7.562335205078125,-0.0008252447005361319,-0.0005941838026046753,-0.00011462206020951271
1717858239242376200,7.572376220703125,-0.0010409606620669365,-0.0006114942952990532,0.00014263903722167015
1717858239252416300,7.582416259765625,-0.0005607516504824162,-0.0004469705745577812,-0.0021635377779603004
1717858239262457000,7.59245703125,-0.0011844639666378498,-0.0005590897053480148,-0.0007371488027274609
1717858239272498200,7.602498291015625,-0.0013718132395297289,0.001032601110637188,-0.00022151460871100426
1717858239282538200,7.612538330078125,-0.001613894710317254,-0.00007873587310314178,-0.0004827706143260002
1717858239292579000,7.6225791015625,-0.0008356210310012102,-0.0006859730929136276,-0.0012353588826954365
1717858239302619000,7.632618896484375,0.0008315178565680981,0.0006709080189466476,0.0008373791351914406
1717858239312660000,7.642659912109375,0.00009238696657121181,-0.0009158803150057793,-0.0001929067075252533
1717858239322701000,7.652701171875,-0.0008631553500890732,0.0008042557165026665,0.0006334725767374039
1717858239332741000,7.6627412109375,-0.0005976490210741758,0.00037597306072711945,0.0009546028450131416
1717858239342782000,7.672781982421875,0.0004106236156076193,0.00030486658215522766,0.000608392059803009
1717858239352823000,7.682822998046875,-0.001058642053976655,-0.00020805839449167252,0.0004826909862458706
1717858239362863000,7.692863037109375,-0.0003455192781984806,0.0004869876429438591,0.0008453107438981533
1717858239372904000,7.702904052734375,0.001388857839629054,0.0008841538801789284,-0.00040742289274930954
1717858239382945000,7.712945068359375,-0.001960599794983864,-0.0007217321544885635,0.00020563695579767227
1717858239392985000,7.722985107421875,-0.0003783272113651037,0.0006214557215571404,0.0006256415508687496
1717858239403026200,7.733026123046875,-0.0008113572839647532,-0.0008110580965876579,0.0008394932374358177
1717858239413067000,7.74306689453125,-0.00011033355258405209,-0.0010429006069898605,-0.00011347746476531029
1717858239423107000,7.753107177734375,0.0012856954708695412,-0.0002572685480117798,-0.0001156078651547432
1717858239433148200,7.763148193359375,0.0005302941426634789,-0.0006135012954473495,0.0009194384329020977
1717858239443189200,7.773189208984375,0.0009308336302638054,-0.0005618361756205559,-0.0009029628708958626
1717858239453229300,7.783229248046875,0.00011635152623057365,-0.0006468053907155991,0.0008624577894806862
1717858239463270100,7.793270263671875,0.00018559396266937256,0.0017082281410694122,-0.00047098705545067787
1717858239473310000,7.80331005859375,0.00011780066415667534,0.0005275700241327286,0.0009337002411484718
1717858239483351000,7.81335107421875,-0.00003133644349873066,-0.0006684549152851105,-0.0003496771678328514
1717858239493392000,7.823391845703125,0.0005339549388736486,0.0005375770851969719,0.000034294091165065765
1717858239503432000,7.833431884765625,0.00046790833584964275,-0.00012395251542329788,-0.0010229810141026974
1717858239513473000,7.84347314453125,-0.00044895452447235584,-0.0009175613522529602,-0.00023660575971007347
1717858239523514000,7.85351416015625,-0.0018183519132435322,0.0008752793073654175,0.00013916613534092903
1717858239533554200,7.86355419921875,0.0010478179901838303,-0.00022982154041528702,0.0010834201239049435
1717858239543595000,7.873594970703125,-0.0003788371104747057,-0.0004969360306859016,0.0023809121921658516
1717858239553636000,7.883635986328125,-0.0008823757525533438,-0.0003729071468114853,0.0010682749561965466
1717858239563676200,7.89367626953125,0.00010778778232634068,-0.001039762981235981,0.0004445626400411129
1717858239573717000,7.903717041015625,0.0012034515384584665,0.0010983701795339584,0.000187738798558712
1717858239583758000,7.913758056640625,-0.00009563821367919445,0.000458679161965847,-0.0005757897160947323
1717858239593798100,7.923798095703125,-0.0002862154506146908,-0.00024173874408006668,-0.0007354952394962311
1717858239603839200,7.933839111328125,-0.001191423973068595,-0.0008348254486918449,0.0007846369408071041
1717858239613880000,7.943880126953125,0.002032811287790537,-0.00012174248695373535,0.00017731310799717903
1717858239623920400,7.95392041015625,0.0011566313914954662,0.0009930571541190147,0.0006984933279454708
1717858239633961500,7.96396142578125,0.000963298138231039,-0.0007165102288126945,-0.00008552195504307747
1717858239644001500,7.97400146484375,-0.0008681579492986202,-0.00022382568567991257,0.00015363004058599472
1717858239654042400,7.98404248046875,0.00007214071229100227,0.00015983358025550842,0.00027506938204169273
1717858239664083500,7.99408349609375,0.001974702812731266,-0.0006300592795014381,0.0002247355878353119
1717858239674123500,8.00412353515625,0.0009589416440576315,-0.0011798692867159843,0.0018299529328942299
1717858239684164600,8.01416455078125,-0.00008368608541786671,-0.0001897057518362999,-0.0009008524939417839
1717858239694205400,8.024205322265624,-0.00029836082831025124,0.005739136599004269,0.0008891252800822258
1717858239704245200,8.034245361328125,0.0003077746368944645,0.000252491794526577,0.00033572036772966385
1717858239714286300,8.044286376953124,-0.00025807623751461506,-0.001005648635327816,-0.00010977312922477722
1717858239724327400,8.054327392578125,-0.00020374776795506477,0.0012524453923106194,-0.00013880152255296707
1717858239734367500,8.064367431640624,0.0003444850444793701,-0.0009131655097007751,-0.00036785006523132324
1717858239744408300,8.074408203125,-0.0007511393632739782,0.0012458590790629387,0.000023101922124624252
1717858239754449400,8.084449462890625,0.0010859316680580378,0.0009806137531995773,0.0001537492498755455
1717858239764489500,8.094489501953126,0.0004257338587194681,0.0004783421754837036,-0.0008646436035633087
1717858239774530300,8.1045302734375,-0.0006278520449995995,0.0010091587901115417,0.00017915479838848114
1717858239784571400,8.1145712890625,0.00025871419347822666,-0.0018777078948915005,0.0005235015414655209
1717858239794611500,8.124611572265625,-0.0002894178032875061,-0.0010606944561004639,0.0007410235702991486
1717858239804652500,8.134652587890624,-0.0005578643176704645,-0.0008127549663186073,-0.00007763225585222244
1717858239814692600,8.144692626953125,0.0010951734147965908,0.0004458380863070488,-0.00130781764164567
1717858239824733400,8.1547333984375,-0.0005290885455906391,-0.0001416550949215889,-0.00010087341070175171
1717858239834774500,8.1647744140625,0.0007248916663229465,-0.0006119348108768463,0.00023719575256109238
1717858239844814300,8.174814453125,-0.002040534745901823,0.0001611802726984024,0.00032934127375483513
1717858239854855400,8.18485546875,0.0008093183860182762,0.0014627492055296898,-0.0005194768309593201
1717858239864896300,8.194896240234375,-0.0008828542195260525,0.0005247835069894791,-0.0001634121872484684
1717858239874936300,8.204936279296875,0.0005596198607236147,-0.00031923409551382065,0.0008973302319645882
1717858239884977400,8.214977294921875,-0.00020124530419707298,-0.0000611739233136177,0.0010821535252034664
1717858239895018200,8.225018310546876,-0.001504125539213419,-0.0007591163739562035,0.00006622076034545898
1717858239905058300,8.235058349609375,-0.00021568825468420982,0.0003500906750559807,0.00017061643302440643
1717858239915099400,8.245099365234376,-0.0030761302914470434,-0.00006553903222084045,0.0003379909321665764
1717858239925140500,8.255140380859375,-0.00105559010989964,-0.0004652794450521469,0.0005800724029541016
1717858239935180500,8.2651806640625,0.00009821518324315548,0.00115252286195755,0.0005173692479729652
1717858239945221400,8.275221435546875,0.00017571286298334599,-0.0006799986585974693,0.001108058262616396
1717858239955262500,8.285262451171874,-0.0011245452333241701,-0.00008249655365943909,-0.0001520584337413311
1717858239965302500,8.295302490234375,0.0010571165475994349,-0.0003698514774441719,0.00002371007576584816
1717858239975343400,8.30534326171875,-0.0005253513809293509,-0.0008395863696932793,0.0006993906572461128
1717858239985383400,8.315383544921875,0.00029996223747730255,0.00022594444453716278,0.00007514562457799911
1717858239995424500,8.325424560546875,0.00013433326967060566,0.00031855516135692596,0.0004163254052400589
1717858240005465600,8.335465576171876,0.001089076278731227,0.00091563630849123,0.0010352442041039467
1717858240015505400,8.34550537109375,0.001304292120039463,0.0007834890857338905,-0.0002694176509976387
1717858240025546200,8.355546142578126,0.00039828475564718246,-0.0010761963203549385,-0.0008832761086523533
1717858240035587300,8.36558740234375,-0.0001894058659672737,0.00034455955028533936,0.0003226376138627529
1717858240045627400,8.37562744140625,-0.00015691528096795082,0.0004223240539431572,-0.0009647342376410961
1717858240055668500,8.38566845703125,-0.000027223490178585052,-0.0004374021664261818,0.00007690303027629852
1717858240065709300,8.395709228515624,-0.00048315664753317833,-0.00022807810455560684,-0.00021737627685070038
1717858240075749400,8.405749267578125,-0.0011189933866262436,0.0009866328909993172,-0.0003695189952850342
1717858240085790500,8.41579052734375,0.0008102003484964371,-0.0015186024829745293,-0.0005327709950506687
1717858240095831300,8.425831298828125,-0.0009797513484954834,-0.000633549876511097,-0.0004672878421843052
1717858240105871400,8.435871337890624,0.00033718207851052284,-0.0011789649724960327,0.0009567043744027615
1717858240115912400,8.445912353515626,0.00010472978465259075,0.0004122527316212654,0.0008820067159831524
1717858240125953500,8.45595361328125,-0.0005280370824038982,0.00030546076595783234,-0.0005752751603722572
1717858240135993600,8.46599365234375,0.0019053721334785223,-0.0005226209759712219,0.00018344400450587273
1717858240146034400,8.476034423828125,-0.0019444935023784637,0.00029390398412942886,-0.0013002026826143265
1717858240156074500,8.486074462890626,-0.0010315231047570705,-0.00022464245557785034,-0.0003505800850689411
1717858240166115600,8.496115478515625,0.0007253643125295639,-0.00015353597700595856,-0.0008509880863130093
1717858240176156400,8.506156494140624,-0.000827189302071929,-0.0010353662073612213,0.00018763449043035507
1717858240186196200,8.5161962890625,0.0003043878823518753,-0.0006156517192721367,0.0003937631845474243
1717858240196237300,8.5262373046875,-0.0012695393525063992,0.00010599382221698761,-0.0005792886950075626
1717858240206278400,8.5362783203125,0.0009893539827317,-0.0012964271008968353,0.0007965005934238434
1717858240216318500,8.546318359375,0.0024329805746674538,-0.00008407142013311386,0.0012582466006278992
1717858240226359300,8.556359375,0.0009019295684993267,-0.0020300433970987797,-0.0003148824907839298
1717858240236400400,8.566400390625,0.0008886975701898336,-0.0022167526185512543,-0.001886273268610239
1717858240246440400,8.5764404296875,0.0017443711403757334,0.0011577391996979713,-0.0007752026431262493
1717858240256481500,8.5864814453125,0.00020705582574009895,-0.0014364519156515598,0.0007866164669394493
1717858240266522400,8.5965224609375,0.0008331649005413055,-0.0013813246041536331,-0.000725260004401207
1717858240276562400,8.6065625,0.0014613578096032143,0.00014121923595666885,-0.00005090050399303436
1717858240286603500,8.616603515625,-0.0007000635378062725,-0.0006121890619397163,0.0008393945172429085
1717858240296644400,8.626644287109375,0.001292947679758072,-0.0002468489110469818,0.0000687609426677227
1717858240306684400,8.636684326171874,0.000029810704290866852,-0.0010452643036842346,-0.00033284397795796394
1717858240316725500,8.6467255859375,0.0002646590583026409,0.0003962600603699684,-0.0004370054230093956
1717858240326766600,8.6567666015625,0.0010212627239525318,0.0002838745713233948,0.0009491699747741222
1717858240336806400,8.666806396484375,-0.00006848224438726902,0.0008232248947024345,-0.0006469022482633591
1717858240346847200,8.67684716796875,-0.0007148312870413065,-0.00013657845556735992,-0.0008540959097445011
1717858240356887300,8.68688720703125,0.00041913241147994995,-0.0012920359149575233,-0.0010773460380733013
1717858240366928400,8.696928466796875,0.0014340630732476711,-0.00009734183549880981,-0.0005260715261101723
1717858240376969200,8.70696923828125,-0.0008148127235472202,-0.0003893226385116577,0.0003111977130174637
1717858240387009300,8.71700927734375,0.0005367416888475418,0.0001411791890859604,0.0004536770284175873
1717858240397050400,8.72705029296875,0.00033276621252298355,0.00021228007972240448,0.0010115168988704681
1717858240407091500,8.737091552734375,-0.0007729781791567802,-0.00040317606180906296,-0.0003341785632073879
1717858240417131500,8.747131591796874,0.00015089474618434906,0.0006691450253129005,-0.00007563037797808647
1717858240427172400,8.75717236328125,-0.0014954714570194483,0.00012213177978992462,0.0007139965891838074
1717858240437213400,8.76721337890625,-0.00032621249556541443,0.0007339129224419594,0.0011513922363519669
1717858240447253500,8.77725341796875,0.002742814365774393,0.00007877591997385025,0.0015980042517185211
1717858240457294600,8.787294677734375,-0.0008746450766921043,-0.0005234871059656143,0.000512413214892149
1717858240467335400,8.79733544921875,0.0000441456213593483,-0.0003826059401035309,-0.00010251067578792572
1717858240477375500,8.80737548828125,-0.0004250879865139723,-0.00017048697918653488,0.0007856623269617558
1717858240487416600,8.81741650390625,-0.00038886908441782,-0.00015477463603019714,-0.0010069110430777073
1717858240497456400,8.827456298828125,-0.0009193804580718279,0.0004533464089035988,-0.0014513712376356125
1717858240507497200,8.837497314453126,0.00023589888587594032,-0.0006974060088396072,0.0004056510515511036
1717858240517538300,8.847538330078125,0.0009693801403045654,0.0008439356461167336,-0.0004617469385266304
1717858240527578400,8.857578369140626,-0.00007218215614557266,-0.00012012850493192673,0.0005566454492509365
1717858240537619500,8.867619384765625,0.0010827463120222092,0.000227462500333786,0.0005861502140760422
1717858240547660300,8.877660400390624,0.0005799415521323681,-0.00007294211536645889,0.0003880113363265991
1717858240557700400,8.887700439453125,-0.0005816677585244179,-0.00012809410691261292,-0.001442014705389738
1717858240567741400,8.897741455078124,0.0011613708920776844,-0.0010080020874738693,0.0008538966067135334
1717858240577782300,8.9077822265625,-0.00032098148949444294,0.0011655120179057121,0.0005837595090270042
1717858240587822300,8.917822265625,-0.0002626583445817232,-0.0006488999351859093,0.0010247789323329926
1717858240597863400,8.927863525390626,0.0010910932905972004,-0.0003416435793042183,-0.0007070084102451801
1717858240607904500,8.937904541015625,-0.0002687165979295969,-0.001072946935892105,-0.0010992917232215405
1717858240617944600,8.947944580078126,0.00017324509099125862,0.0003416258841753006,0.0004921779036521912
1717858240627985700,8.957985595703125,-0.0007239740807563066,0.0008247233927249908,0.0003712703473865986
1717858240638026800,8.96802685546875,-0.0006993641145527363,-0.0007472103461623192,0.001622623298317194
1717858240648066800,8.97806689453125,0.0010852199047803879,0.00017237942665815353,0.00105643505230546
1717858240658107600,8.988107666015624,0.0007918828632682562,0.00019367411732673645,0.00019048573449254036
1717858240668148700,8.998148681640625,-0.0010251917410641909,0.0006844950839877129,-0.0017964988946914673
1717858240678188800,9.008188720703124,-0.0006508596707135439,0.0004210248589515686,0.0007948563434183598
1717858240688230000,9.01822998046875,0.00045515107922255993,0.00002021901309490204,0.00006328616291284561
1717858240698270000,9.02827001953125,-0.000997442053630948,-0.0010956674814224243,0.0002530706115067005
1717858240708310800,9.038310791015626,-0.000220864312723279,0.0006929114460945129,-0.0004982072860002518
1717858240718352000,9.048351806640625,0.001096606720238924,0.00014675967395305634,-0.00006971554830670357
1717858240728392000,9.058391845703126,0.0008547916077077389,0.000023720785975456238,-0.0000721123069524765
1717858240738432800,9.068432861328125,-0.000045088352635502815,-0.000412927009165287,0.001211047638207674
1717858240748473900,9.078473876953124,-0.0009734663181006908,-0.00008908659219741821,0.0008477922528982162
1717858240758513700,9.088513671875,-0.0002241863403469324,-0.0004450920969247818,0.0018118144944310188
1717858240768554800,9.0985546875,0.000023753847926855087,-0.00004375353455543518,-0.0004766397178173065
1717858240778595600,9.108595703125,-0.001421116292476654,-0.0014136116951704025,0.0011265161447227001
1717858240788635600,9.1186357421875,0.0013027647510170937,0.00043728575110435486,0.0008825706318020821
1717858240798676700,9.1286767578125,0.0007303724996745586,0.0000703129917383194,0.0014960290864109993
1717858240808717800,9.1387177734375,-0.0004086615517735481,-0.0012056073173880577,-0.0015218653716146946
1717858240818758000,9.1487578125,0.0001757713034749031,0.00004418380558490753,-0.00015915092080831528
1717858240828798700,9.158798828125,0.0004151896573603153,-0.0012098988518118858,0.0002773413434624672
1717858240838839800,9.16883984375,-0.00015906617045402527,-0.0017278059385716915,-0.00033925240859389305
1717858240848879900,9.1788798828125,0.00010591838508844376,0.000055179931223392487,-0.000314218457788229
1717858240858920700,9.188920654296876,-0.0007629042956978083,0.001068337820470333,-0.0009379391558468342
1717858240868960800,9.198960693359375,-0.0008372066076844931,-0.0003569861873984337,0.00018777931109070778
1717858240879001900,9.209001953125,-0.0012069514486938715,-0.001110706478357315,0.0010040253400802612
1717858240889043000,9.21904296875,0.000638352707028389,-0.0015045879408717155,-0.00038081826642155647
1717858240899083000,9.2290830078125,0.0007661264389753342,0.0006518661975860596,-0.000887223519384861
1717858240909123800,9.239123779296875,0.0006710514426231384,-0.0014134151861071587,0.0008171997033059597
1717858240919165000,9.2491650390625,0.0006759243551641703,-0.0016500749625265598,0.0011430657468736172
1717858240929204700,9.259204833984375,-0.00041943369433283806,-0.00022448506206274033,-0.0004929141141474247
1717858240939245800,9.269245849609375,-0.0008333064615726471,0.001129722222685814,0.0016371998935937881
1717858240949286700,9.27928662109375,0.0003709748852998018,-0.00011317525058984756,0.0010473094880580902
1717858240959326700,9.28932666015625,0.00047307671047747135,-0.0016977982595562935,0.00030411500483751297
1717858240969367800,9.299367919921876,-0.0002590264193713665,-0.00020882487297058105,-0.0028200396336615086
1717858240979408600,9.30940869140625,0.00028792256489396095,0.0014091143384575844,0.00009060092270374298
1717858240989448700,9.31944873046875,-0.0006873267702758312,0.00037128012627363205,0.00014998950064182281
1717858240999489800,9.32948974609375,-0.000743107171729207,-0.00025013741105794907,-0.00034860894083976746
1717858241009531000,9.33953076171875,-0.00019103381782770157,-0.00008182600140571594,-0.0018516969867050648
1717858241019571000,9.349571044921875,-0.0003364470321685076,-0.000532347708940506,-0.0003260467201471329
1717858241029611800,9.35961181640625,0.0005732891149818897,-0.0008852165192365646,-0.00016838731244206429
1717858241039651800,9.36965185546875,0.0012340135872364044,-0.0009491266682744026,0.00030165165662765503
1717858241049693000,9.37969287109375,0.0005559725686907768,-0.0007206276059150696,0.0008318871259689331
1717858241059733800,9.389733642578125,0.00024048704653978348,-0.002394293900579214,-0.0002752169966697693
1717858241069773600,9.399773681640625,-0.0004889529664069414,0.0009176135063171387,-0.001100796740502119
1717858241079814700,9.409814697265626,-0.000009028706699609756,-0.00013962574303150177,0.000918680801987648
1717858241089855700,9.419855712890625,0.0008463787380605936,-0.0005295118317008018,-0.0010845488868653774
1717858241099895800,9.429895751953126,0.0002592778764665127,-0.0006120055913925171,-0.00025023240596055984
1717858241109936600,9.4399365234375,0.00039350148290395737,-0.0008780555799603462,0.0008304780349135399
1717858241119977700,9.449977783203124,0.0008606915362179279,0.00027812086045742035,0.0006865076720714569
1717858241130017800,9.460017822265625,-0.0008107083849608898,-0.00039193034172058105,0.0011917096562683582
1717858241140059000,9.470058837890624,0.0008179016876965761,-0.0003866618499159813,-0.0013195211067795753
1717858241150099700,9.480099609375,0.0006964618805795908,-0.0005680229514837265,-0.000050791073590517044
1717858241160139800,9.490139892578124,0.000523171853274107,-0.0002951165661215782,0.0007818834856152534
1717858241170180900,9.500180908203125,-0.0006957571022212505,0.0006505716592073441,0.0003160964697599411
1717858241180221700,9.5102216796875,-0.00011336780153214931,-0.0001348499208688736,0.0003700987435877323
1717858241190261800,9.52026171875,0.0006584164220839739,0.00043080560863018036,-0.0017290045507252216
1717858241200302800,9.530302734375,0.0004326777998358011,-0.0014169327914714813,0.0003812704235315323
1717858241210344000,9.540343994140626,-0.0011769365519285202,-0.0003740396350622177,0.00043772952631115913
1717858241220384000,9.550384033203125,0.0005194758996367455,-0.00038425810635089874,0.0014033825136721134
1717858241230424800,9.5604248046875,0.0015301452949643135,-0.001167760230600834,-0.0004946524277329445
1717858241240464600,9.570464599609375,-0.00003266450949013233,0.00043298956006765366,-0.000555842649191618
1717858241250505700,9.580505615234374,-0.00042974180541932583,0.00014190655201673508,0.0005376511253416538
1717858241260546600,9.590546630859375,0.00009029125794768333,-0.0007811076939105988,0.00019700173288583755
1717858241270586600,9.600586669921874,-0.00011956598609685898,-0.0011528851464390755,-0.0003593326546251774
1717858241280627700,9.610627685546875,0.0006771748885512352,0.00048442743718624115,0.0008332859724760056
1717858241290668800,9.620668701171875,0.0006633265875279903,-0.00029561202973127365,0.0014503402635455132
1717858241300708900,9.630708984375,0.0010243577416986227,0.000005738809704780579,-0.00010822061449289322
1717858241310749700,9.640749755859375,-0.0013162943068891764,-0.00042702537029981613,0.000654775183647871
1717858241320790800,9.650790771484376,-0.00008887285366654396,-0.0006258105859160423,0.00024703145027160645
1717858241330830800,9.660830810546875,-0.00020205718465149403,-0.0007978500798344612,0.0010438491590321064
1717858241340872000,9.670871826171876,-0.0007078354246914387,-0.0017066020518541336,-0.001403686124831438
1717858241350912800,9.680912841796875,-0.000765626085922122,0.00009262934327125549,0.0006927540525794029
1717858241360952800,9.690952880859374,-0.0004226556047797203,-0.0006135646253824234,0.0005627688951790333
1717858241370994000,9.700993896484375,0.0005648443475365639,-0.0005970532074570656,-0.0005134143866598606
1717858241381034800,9.71103466796875,-0.0008225229103118181,-0.0014696363359689713,-0.0001274668611586094
1717858241391074800,9.72107470703125,0.0005974743980914354,-0.000023273751139640808,0.0004352591931819916
1717858241401116000,9.731115966796875,-0.0002460354007780552,0.0008313916623592377,0.0002195141278207302
1717858241411155700,9.74115576171875,-0.00022233324125409126,-0.00048021506518125534,0.00015666382387280464
1717858241421196800,9.75119677734375,-0.000723210396245122,0.0003241896629333496,-0.0008798870258033276
1717858241431237600,9.761237548828126,0.00031249294988811016,0.00017585139721632004,-0.00022741267457604408
1717858241441277700,9.771277587890625,0.0002717908937484026,-0.0012119589373469353,0.0008631120435893536
1717858241451318800,9.78131884765625,0.00001586112193763256,-0.0011807996779680252,-0.002187805250287056
1717858241461359600,9.791359619140625,0.001965136965736747,0.00047178659588098526,-0.0001313909888267517
1717858241471399700,9.801399658203126,0.0002862804103642702,-0.0013034762814640999,-0.0012848060578107834
1717858241481440800,9.811440673828125,0.0012331607285887003,-0.0017383634112775326,-0.0006328979507088661
1717858241491481900,9.82148193359375,0.0006744295824319124,-0.00011223740875720978,0.00038709305226802826
1717858241501522000,9.83152197265625,-0.00020997971296310425,-0.0004123533144593239,0.0006502461619675159
1717858241511562800,9.841562744140624,-0.0008166476618498564,-0.00026108603924512863,-0.00011647772043943405
1717858241521603800,9.851603759765625,0.0005304203368723392,-0.0005143992602825165,0.000896720215678215
1717858241531644000,9.861643798828124,-0.0007367117796093225,0.0001370105892419815,0.0003800666891038418
1717858241541685000,9.87168505859375,-0.00019559613429009914,-0.0008632298558950424,0.00026106275618076324
1717858241551725800,9.881725830078125,0.0003884348552674055,-0.0006057024002075195,0.001384117640554905
1717858241561765600,9.891765625,0.0013186533469706774,-0.0009295251220464706,0.0009453524835407734
1717858241571807000,9.901806884765625,-0.0004201245028525591,0.00006676372140645981,-0.001078916247934103
1717858241581847800,9.911847900390624,0.00015612016431987286,-0.001325652003288269,0.0004264162853360176
1717858241591887600,9.9218876953125,0.00007329578511416912,-0.0006721122190356255,0.0000322684645652771
1717858241601928700,9.9319287109375,-0.000321393134072423,-0.0004853447899222374,-0.0008447347208857536
1717858241611968800,9.94196875,-0.0006191346328705549,-0.0011359546333551407,0.0010527675040066242
1717858241622010000,9.952010009765624,-0.00011910637840628624,-0.00044491328299045563,-0.00007472187280654907
1717858241632051000,9.962051025390625,-0.0010658602695912123,-0.00026408489793539047,0.001261119730770588
1717858241642091000,9.972091064453124,0.0016602773685008287,-0.00016554910689592361,0.000559875275939703
1717858241652132000,9.982132080078125,0.00019820197485387325,0.0005567008629441261,-0.001297147013247013
1717858241662173000,9.9921728515625,-0.000461796298623085,-0.0005998024716973305,0.00003530923277139664
1717858241672213000,10.002212890625,-0.0013275900855660439,-0.000815252773463726,0.001028402242809534
1717858241682254000,10.012254150390625,-0.000017961952835321426,-0.0008407272398471832,-0.000517312902957201
1717858241692295200,10.022295166015626,0.0004936314653605223,0.000043176114559173584,-0.000584158580750227
1717858241702335200,10.032335205078125,0.0014558150433003902,0.0008015977218747139,0.00105271115899086
1717858241712376000,10.0423759765625,0.002604968845844269,-0.0005425000563263893,0.00020955409854650497
1717858241722417200,10.052417236328125,-0.001127214403823018,-0.0011534225195646286,0.00006702682003378868
1717858241732457000,10.06245703125,-0.0003895189147442579,-0.0012309197336435318,-0.001589193008840084
1717858241742498000,10.072498046875,-0.00033606099896132946,-0.00020798947662115097,0.0007338719442486763
1717858241752539000,10.082538818359374,-0.0008194246329367161,0.0009997542947530746,0.000295781996101141
1717858241762579000,10.092578857421875,-0.0003775535151362419,-0.0005260510370135307,-0.0008393814787268639
1717858241772620000,10.1026201171875,0.0005018224474042654,-0.0007758559659123421,0.001037081703543663
1717858241782660000,10.11266015625,-0.0005144211463630199,-0.000097714364528656,-0.0004602232947945595
1717858241792701000,10.122700927734375,-0.0002385175321251154,0.00014596432447433472,0.0003549703396856785
1717858241802742000,10.132741943359376,0.00009758956730365753,-0.0005162842571735382,-0.00004257075488567352
1717858241812782000,10.142781982421875,0.00030265282839536667,0.0003282036632299423,0.0006783469580113888
1717858241822823200,10.1528232421875,-0.00023671588860452175,-0.0006317291408777237,-0.0007534325122833252
1717858241832864000,10.162864013671875,0.00045783631503582,0.000479075126349926,0.0011171717196702957
1717858241842904000,10.172904052734374,-0.0001772805117070675,-0.0004869811236858368,0.000005627982318401337
1717858241852945200,10.182945068359375,0.0002778535708785057,0.00014392193406820297,0.0007286760956048965
1717858241862986000,10.192986083984374,-0.00019004568457603455,-0.0006030295044183731,-0.0006643855012953281
1717858241873026000,10.203026123046875,0.0007982533425092697,0.000642796978354454,0.00048423558473587036
1717858241883067100,10.213067138671875,-0.0016096958424896002,-0.000060667283833026886,0.0010852753184735775
1717858241893108200,10.223108154296876,-0.000042159343138337135,-0.00035361479967832565,-0.00003351829946041107
1717858241903148000,10.23314794921875,0.002019129693508148,-0.0005907630547881126,-0.0000024139881134033203
1717858241913188900,10.24318896484375,0.0010175146162509918,0.00042816251516342163,-0.00007911305874586105
1717858241923230000,10.25322998046875,0.0010236399248242378,-0.0006514834240078926,0.00001942366361618042
1717858241933270000,10.26327001953125,0.00034849951043725014,0.00039050914347171783,0.00011855782940983772
1717858241943311000,10.27331103515625,-0.0001579693052917719,-0.0006029633805155754,0.0015758262015879154
1717858241953352000,10.28335205078125,-0.001838956493884325,0.00008679460734128952,-0.000004759524017572403
1717858241963392000,10.29339208984375,-0.0004892479628324509,-0.0007276106625795364,-0.0017097671516239643
1717858241973433000,10.30343310546875,0.00036536017432808876,-0.0008061733096837997,-0.0006226645782589912
1717858241983473200,10.31347314453125,0.0011575627140700817,-0.001039106398820877,0.0006586923263967037
1717858241993514000,10.323513916015624,0.0002952311187982559,-0.0006263162940740585,-0.0016827587969601154
1717858242003555000,10.33355517578125,0.0019592619501054287,-0.00039752107113599777,0.0015623262152075768
1717858242013595100,10.34359521484375,0.0005179587751626968,-0.00035544298589229584,0.0006006588228046894
1717858242023636200,10.35363623046875,-0.0008494167122989893,-0.0006275996565818787,-0.0006332490593194962
1717858242033677000,10.363677001953125,0.0004936154000461102,-0.0022260285913944244,0.00007941294461488724
1717858242043717000,10.373717041015626,0.0002551143988966942,0.0007042977958917618,0.0013296352699398994
1717858242053758200,10.38375830078125,-0.00011932593770325184,-0.0012235641479492188,-0.0002043456770479679
1717858242063799000,10.393799072265624,0.0013996148481965065,-0.00023988913744688034,-0.00030050240457057953
1717858242073838800,10.4038388671875,-0.001004953170195222,0.0002615842968225479,-0.0005079628899693489
1717858242083880000,10.4138798828125,-0.0008520237170159817,-0.00007266178727149963,-0.000583047978579998
1717858242093921000,10.423921142578125,0.0001048501580953598,-0.0010580308735370636,0.0006119124591350555
1717858242103961000,10.433961181640624,-0.00010032905265688896,-0.0007850946858525276,0.0011073201894760132
1717858242114002000,10.444001953125,-0.0006963445339351892,0.0009651342406868935,0.0007821479812264442
1717858242124043000,10.45404296875,-0.0009932024404406548,0.00012963451445102692,0.0007943892851471901
1717858242134083000,10.4640830078125,-0.00033566798083484173,-0.0013745194301009178,0.0009962567128241062
1717858242144124000,10.4741240234375,-0.00017578992992639542,0.0009810877963900566,0.00017978204414248466
1717858242154164000,10.4841640625,-0.000859423540532589,0.0005320785567164421,-0.0016564675606787205
1717858242164205000,10.494205078125,-0.0017449443694204092,0.001149638555943966,0.0010364167392253876
1717858242174246100,10.50424609375,-0.0005031123291701078,0.001552840694785118,0.00033280951902270317
1717858242184286200,10.5142861328125,0.0021627056412398815,-0.0012634815648198128,-0.0007184422574937344
1717858242194327000,10.5243271484375,0.001005562487989664,-0.0004845075309276581,-0.0009469417855143547
1717858242204368100,10.5343681640625,-0.0003616821486502886,-0.0006265789270401001,0.0014483272098004818
1717858242214408000,10.544407958984374,0.0005001169629395008,0.0003294963389635086,0.0007697539404034615
1717858242224449300,10.55444921875,-0.00036529102362692356,-0.0005555031821131706,-0.00028810231015086174
1717858242234490000,10.564489990234375,-0.0001604938879609108,0.00039710942655801773,-0.0009467019699513912
1717858242244530000,10.574530029296875,-0.0013624799903482199,0.00015820935368537903,0.0008295327425003052
1717858242254571000,10.584571044921875,-0.0007936288602650166,-0.000012765638530254364,-0.0009843464940786362
1717858242264611800,10.59461181640625,-0.00025387294590473175,0.0012837424874305725,0.00041326554492115974
1717858242274652000,10.60465185546875,0.0012265783734619617,0.00035856105387210846,0.0007389704696834087
1717858242284693000,10.61469287109375,0.0012650731950998306,-0.0011520721018314362,0.0014389012940227985
1717858242294734000,10.624734130859375,-0.00044334493577480316,-0.0002679023891687393,-0.0000399518758058548
1717858242304774100,10.634774169921876,0.0010707550682127476,0.0011355597525835037,-0.0021313773468136787
1717858242314815000,10.64481494140625,-0.0011300810147076845,-0.00009002629667520523,0.001677209511399269
1717858242324856000,10.65485595703125,-0.0004292149096727371,-0.0003773104399442673,0.00023670168593525887
1717858242334896000,10.664896240234375,0.0005297893658280373,-0.0007402990013360977,-0.0002434663474559784
1717858242344937000,10.67493701171875,0.0012820614501833916,-0.00029114726930856705,-0.0005921176634728909
1717858242354977000,10.68497705078125,-0.0007904104422777891,-0.0002836901694536209,0.0006715524941682816
1717858242365018000,10.69501806640625,0.0011844388209283352,-0.00005274452269077301,0.0008210805244743824
1717858242375059200,10.70505908203125,-0.00019827415235340595,0.0002516545355319977,0.000010680407285690308
1717858242385099000,10.71509912109375,0.0012755063362419605,0.0006116069853305817,-0.00015701539814472198
1717858242395139800,10.725139892578126,-0.000758616253733635,0.0003724554553627968,0.00023926282301545143
1717858242405181000,10.735180908203125,-0.0007301229052245617,0.0005694488063454628,-0.00029658572748303413
1717858242415221000,10.745220947265626,-0.0007426396477967501,-0.0005655912682414055,0.00039077596738934517
1717858242425262000,10.755261962890625,0.0002721128985285759,-0.00125938281416893,-0.0000033578835427761078
1717858242435303000,10.765302978515624,-0.000056521035730838776,0.0006716754287481308,0.0010589766316115856
1717858242445343000,10.775343017578125,0.0009018136188387871,-0.00003958120942115784,0.0009896410629153252
1717858242455384000,10.785384033203124,-0.0012244540266692638,-0.00011707842350006104,0.0014357208274304867
1717858242465425000,10.7954248046875,0.0010177097283303738,-0.000017222948372364044,0.00014626281335949898
1717858242475465000,10.80546484375,0.0005300850607454777,0.00016200821846723557,0.000002984423190355301
1717858242485506000,10.815506103515625,0.0005198963917791843,0.00022640451788902283,0.0011788131669163704
1717858242495547100,10.825547119140625,0.0007774243131279945,-0.00015602540224790573,-0.0008340040221810341
1717858242505587200,10.835587158203126,0.0007994947955012321,0.0000723106786608696,-0.00014679087325930595
1717858242515628000,10.8456279296875,0.0006242590025067329,0.0006763152778148651,0.0005328478291630745
1717858242525669000,10.855669189453126,0.000060883816331624985,0.0015862202271819115,-0.0013701515272259712
1717858242535709200,10.865709228515625,0.0007895245216786861,0.00027461256831884384,-0.0000279182568192482
1717858242545750000,10.87575,0.00044751912355422974,-0.00014094728976488113,0.0004219021648168564
1717858242555789800,10.885789794921875,0.0010802862234413624,-0.000657067634165287,-0.0007501551881432533
1717858242565831000,10.895830810546874,0.00002446584403514862,-0.0001690024510025978,-0.0019916058517992496
1717858242575872000,10.9058720703125,0.0003722747787833214,0.00021209660917520523,0.000014553777873516083
1717858242585912000,10.915912109375,0.0013291318900883198,0.00005791895091533661,-0.0009149760007858276
1717858242595953000,10.925952880859375,-0.0006440042052417994,-0.000922124832868576,0.0006988993845880032
1717858242605994000,10.935993896484375,0.00006927689537405968,0.0002200789749622345,0.00041601061820983887
1717858242616034000,10.946033935546875,-0.0006092963740229607,-0.0008585015311837196,0.00046581169590353966
1717858242626074400,10.956074462890625,0.00019985204562544823,-0.0003955503925681114,0.001579714473336935
1717858242636115200,10.966115234375,0.0011964067816734314,0.00023854803293943405,0.0016572126187384129
1717858242646155000,10.976155029296875,-0.00007637985982000828,-0.0006170878186821938,-0.00044305529445409775
1717858242656196000,10.986196044921876,-0.0006438994314521551,-0.0005848631262779236,0.000375866424292326
1717858242666237200,10.9962373046875,0.0009506000205874443,-0.0006111813709139824,0.0013441815972328186
1717858242676277200,11.00627734375,-0.000658481614664197,-0.00043168384581804276,0.00005521159619092941
1717858242686318000,11.016318115234375,-0.0006395666860044003,-0.0005031675100326538,-0.000016008038073778152
1717858242696359200,11.026359130859374,0.00047336844727396965,-0.0006895884871482849,-0.0002210712991654873
1717858242706399200,11.036399169921875,0.0008375523611903191,-0.0004630712792277336,-0.0007211994379758835
1717858242716440300,11.0464404296875,-0.0008998941630125046,-0.0007024891674518585,0.0006663072854280472
1717858242726481200,11.056481201171875,0.0003165341913700104,-0.00042528193444013596,-0.00011076591908931732
1717858242736521200,11.066521240234374,-0.0004760224837809801,-0.00042208656668663025,-0.0011113155633211136
1717858242746562300,11.076562255859375,-0.0010499374475330114,-0.000834423117339611,-0.0006975242868065834
1717858242756602400,11.086602294921875,-0.0003303512930870056,-0.0007507996633648872,0.0005690748803317547
1717858242766643200,11.096643310546876,-0.0001737705897539854,-0.0003788881003856659,0.00007246341556310654
1717858242776684300,11.106684326171875,0.00047497544437646866,-0.0001242905855178833,0.0014085709117352962
1717858242786724000,11.11672412109375,0.0016064271330833435,0.0005032708868384361,-0.0007291017100214958
1717858242796765200,11.12676513671875,0.00007351161912083626,-0.0007635951042175293,0.0010658688843250275
1717858242806806000,11.136805908203126,0.00003434857353568077,-0.0008192285895347595,-0.0017620082944631577
1717858242816846000,11.14684619140625,0.0002758973278105259,0.0006737401708960533,0.001527794636785984
1717858242826887200,11.15688720703125,-0.0014394726604223251,0.0006817132234573364,-0.0005730972625315189
1717858242836928300,11.16692822265625,0.00009583961218595505,0.0006414996460080147,-0.001593620516359806
1717858242846968000,11.176968017578124,-0.00029736454598605633,0.00044085830450057983,0.0010709939524531364
1717858242857009200,11.187009033203125,0.000819298904389143,0.00035989750176668167,-0.0008946852758526802
1717858242867050200,11.19705029296875,0.0002503548748791218,-0.0005648043006658554,0.0011345259845256805
1717858242877090300,11.20709033203125,0.0006279908120632172,-0.0007182024419307709,-0.0007592481561005116
1717858242887131100,11.217131103515625,0.0006002150475978851,-0.0004404410719871521,-0.0004972261376678944
1717858242897172200,11.227172119140626,0.0006880993023514748,-0.00034510064870119095,0.0007976028136909008
1717858242907212300,11.23721240234375,0.000031528063118457794,0.00006677675992250443,-0.001119622029364109
1717858242917253400,11.24725341796875,0.00011568376794457436,-0.0001888871192932129,-0.0007025706581771374
1717858242927294200,11.257294189453125,-0.0002089357003569603,0.000566667877137661,0.0010002916678786278
1717858242937334300,11.267334228515624,-0.000851023942232132,0.0004486897960305214,-0.0002234308049082756
1717858242947375400,11.277375244140625,-0.0009573295246809721,0.00039139576256275177,0.0004664035513997078
1717858242957415200,11.287415283203124,-0.002043100306764245,0.00043187569826841354,0.00019316282123327255
1717858242967456000,11.2974560546875,-0.0005148076452314854,-0.00024895649403333664,0.0009252899326384068
1717858242977497000,11.3074970703125,0.0014812317676842213,-0.0006439033895730972,-0.0013189557939767838
1717858242987537200,11.317537109375,0.0008036741055548191,-0.0002179611474275589,-0.001065890770405531
1717858242997578200,11.327578125,-0.0011140680871903896,-0.000335141085088253,0.0016681100241839886
1717858243007619000,11.337619140625,0.0000751269981265068,-0.0006276043131947517,-0.0005713868886232376
1717858243017659100,11.3476591796875,-0.0003842683508992195,-0.00027020834386348724,-0.0003002770245075226
1717858243027700200,11.3577001953125,-0.0003667508717626333,-0.0011009424924850464,0.0006476514972746372
1717858243037741300,11.3677412109375,0.0003917175345122814,0.0011451682075858116,-0.0003331904299557209
1717858243047781000,11.377781005859376,0.0005256226286292076,0.0007794778794050217,-0.00026946282014250755
1717858243057822200,11.387822265625,-0.0007726685144007206,-0.001174749806523323,0.0006155059672892094
1717858243067863300,11.39786328125,-0.00032137101516127586,0.0011245999485254288,-0.000647971872240305
1717858243077903400,11.4079033203125,0.0009018187411129475,-0.0005199015140533447,0.002007199451327324
1717858243087944200,11.417944091796874,-0.00032960972748696804,0.000631953589618206,0.00107984384521842
1717858243097985300,11.4279853515625,0.000060809776186943054,0.00006070546805858612,0.0016132751479744911
1717858243108025300,11.438025390625,-7.948838174343109e-7,-0.00002728402614593506,-0.0004132264293730259
1717858243118066400,11.44806640625,-0.0019238635431975126,-0.0005993302911520004,-0.0007607690058648586
1717858243128106200,11.458106201171875,0.00046462472528219223,-0.0014794827438890934,-0.000013095792382955551
1717858243138147000,11.46814697265625,-0.000958835007622838,-0.0010845363140106201,-0.0008416050113737583
1717858243148188200,11.478188232421875,-0.0002613819669932127,-0.0002102777361869812,0.0009021754376590252
1717858243158228200,11.488228271484376,-0.0009447492193430662,0.00006855465471744537,0.00009949877858161926
1717858243168269000,11.49826904296875,0.0005155918188393116,-0.0007143709808588028,0.00021897116675972939
1717858243178310100,11.50831005859375,-0.0005012031178921461,-0.00045018550008535385,-0.001513681374490261
1717858243188350200,11.51835009765625,-0.0007832443807274103,-0.000369916670024395,-0.0014179223217070103
1717858243198391300,11.528391357421874,-0.0003182566724717617,0.00011238176375627518,0.000617531593888998
