time,seconds_elapsed,z,y,x
1716735156598948900,0.139948974609375,-0.02102184295654297,-0.009992565959692001,-0.007187418639659882
1716735156608949000,0.149948974609375,-0.021086692810058594,-0.024778153747320175,0.05341765657067299
1716735156618948900,0.159948974609375,-0.021086692810058594,-0.024733100086450577,0.05344971641898155
1716735156628949000,0.169948974609375,-0.021086692810058594,-0.024691183120012283,0.053462374955415726
1716735156638948900,0.179948974609375,-0.021087646484375,-0.02452985569834709,0.05335607752203941
1716735156648949000,0.189948974609375,-0.021087646484375,-0.024565402418375015,0.0533817782998085
1716735156658948900,0.199948974609375,-0.021087646484375,-0.02451050654053688,0.05335287004709244
1716735156668949000,0.209948974609375,-0.021087646484375,-0.024536270648241043,0.053317487239837646
1716735156678948900,0.219948974609375,-0.021087646484375,-0.02456197887659073,0.053282275795936584
1716735156688949000,0.229948974609375,-0.021087646484375,-0.02463926002383232,0.053175851702690125
1716735156698948900,0.239948974609375,-0.021087646484375,-0.024655334651470184,0.053078874945640564
1716735156708949000,0.249948974609375,-0.021087646484375,-0.024571523070335388,0.0531046986579895
1716735156718948900,0.259948974609375,-0.021087646484375,-0.024587545543909073,0.05300784111022949
1716735156728949000,0.269948974609375,-0.021087646484375,-0.024535909295082092,0.052959635853767395
1716735156738948900,0.279948974609375,-0.021087646484375,-0.02461971715092659,0.0529337003827095
1716735156748949000,0.289948974609375,-0.021087646484375,-0.02457764744758606,0.052827734500169754
1716735156758948900,0.299948974609375,-0.021088600158691406,-0.02443259209394455,0.05286329239606857
1716735156768949000,0.309948974609375,-0.021089553833007812,-0.024261649698019028,0.052815210074186325
1716735156778948900,0.319948974609375,-0.021089553833007812,-0.02428741380572319,0.05277977138757706
1716735156788949000,0.329948974609375,-0.021089553833007812,-0.024303440004587173,0.052682965993881226
1716735156798948900,0.339948974609375,-0.021089553833007812,-0.024271145462989807,0.05263780057430267
1716735156808949000,0.349948974609375,-0.02110004425048828,-0.02285659685730934,0.04713523015379906
1716735156818948900,0.359948974609375,-0.02110767364501953,-0.021503906697034836,0.04221943020820618
1716735156828949000,0.369948974609375,-0.021111488342285156,-0.020232263952493668,0.037773992866277695
1716735156838948900,0.379948974609375,-0.02111339569091797,-0.01910296082496643,0.033789657056331635
1716735156848949000,0.389948974609375,-0.02111339569091797,-0.018235262483358383,0.030266333371400833
1716735156858948900,0.399948974609375,-0.021112442016601562,-0.017316337674856186,0.02705257758498192
1716735156868949000,0.409948974609375,-0.021109580993652344,-0.016591224819421768,0.024109676480293274
1716735156878948900,0.419948974609375,-0.021106719970703125,-0.01582128182053566,0.021437592804431915
1716735156888949000,0.429948974609375,-0.021103858947753906,-0.01522892341017723,0.019132813438773155
1716735156898948900,0.439948974609375,-0.021100997924804688,-0.014656223356723785,0.017069848254323006
1716735156908949000,0.449948974609375,-0.021097183227539062,-0.014241628348827362,0.015132442116737366
1716735156918948900,0.459948974609375,-0.021094322204589844,-0.0136757493019104,0.013388797640800476
1716735156928949000,0.469948974609375,-0.02109050750732422,-0.013329297304153442,0.011880237609148026
1716735156938948900,0.479948974609375,-0.021087646484375,-0.01291850209236145,0.01051998883485794
1716735156948949000,0.489948974609375,-0.02108478546142578,-0.012617558240890503,0.009337004274129868
1716735156958948900,0.499948974609375,-0.02108287811279297,-0.012371748685836792,0.008421704173088074
1716735156968949000,0.509948974609375,-0.02108001708984375,-0.011996950954198837,0.0074453093111515045
1716735156978948900,0.519948974609375,-0.011500358581542969,0.00024271756410598755,0.011215031147003174
1716735156988949000,0.529948974609375,-0.013891220092773438,-0.001937761902809143,0.007831186056137085
1716735156998948900,0.539948974609375,-0.013888359069824219,-0.004231266677379608,0.007118653506040573
1716735157008949000,0.549948974609375,-0.0162811279296875,-0.0017528384923934937,-0.0005152486264705658
1716735157018948900,0.559948974609375,-0.016280174255371094,-0.0015461519360542297,-0.0034603960812091827
1716735157028949000,0.569948974609375,-0.016280174255371094,-0.003749620169401169,-0.0038697831332683563
1716735157038948900,0.579948974609375,-0.018672943115234375,-0.003368683159351349,-0.006724793463945389
1716735157048949000,0.589948974609375,-0.01627826690673828,-0.001061558723449707,-0.006769891828298569
1716735157058948900,0.599948974609375,-0.01627826690673828,-0.003552410751581192,-0.009148132055997849
1716735157068949000,0.609948974609375,-0.018674850463867188,-0.00564093142747879,-0.006347190588712692
1716735157078948900,0.619948974609375,-0.02106952667236328,-0.003272552043199539,-0.006382569670677185
1716735157088949000,0.629948974609375,-0.018674850463867188,-0.003259669989347458,-0.0015168823301792145
1716735157098948900,0.639948974609375,-0.018674850463867188,-0.00802546739578247,0.000893421471118927
1716735157108949000,0.649948974609375,-0.02106952667236328,-0.008054502308368683,0.0009578540921211243
1716735157118948900,0.659948974609375,-0.021073341369628906,-0.00997818261384964,0.003552451729774475
1716735157128949000,0.669948974609375,-0.01867961883544922,-0.011924350634217262,0.0036174431443214417
1716735157138948900,0.679948974609375,-0.018682479858398438,-0.011447349563241005,0.0036181099712848663
1716735157148949000,0.689948974609375,-0.01868438720703125,-0.011005567386746407,0.005919259041547775
1716735157158948900,0.699948974609375,-0.018685340881347656,-0.010247712954878807,0.00808854028582573
1716735157168949000,0.709948974609375,-0.01868724822998047,-0.009705951437354088,0.007998853921890259
1716735157178948900,0.719948974609375,-0.01868915557861328,-0.006714988499879837,0.005366533994674683
1716735157188949000,0.729948974609375,-0.018690109252929688,-0.006314899772405624,0.002746984362602234
1716735157198948900,0.739948974609375,-0.018690109252929688,-0.0034463703632354736,0.00009522214531898499
1716735157208949000,0.749948974609375,-0.018691062927246094,-0.0006071142852306366,-0.0024919621646404266
1716735157218948900,0.759948974609375,-0.018691062927246094,0.0018094778060913086,-0.004869852215051651
1716735157228949000,0.769948974609375,-0.01629638671875,0.0018319301307201385,-0.009761225432157516
1716735157238948900,0.779948974609375,-0.018691062927246094,-0.0005398169159889221,-0.009745020419359207
1716735157248949000,0.789948974609375,-0.018691062927246094,-0.002911411225795746,-0.00972890853881836
1716735157258948900,0.799948974609375,-0.021085739135742188,-0.00292760506272316,-0.009706322103738785
1716735157268949000,0.809948974609375,-0.021089553833007812,-0.002608906477689743,-0.004314683377742767
1716735157278948900,0.819948974609375,-0.02109241485595703,-0.002315893769264221,-0.003866296261548996
1716735157288949000,0.829948974609375,-0.02348613739013672,-0.004687700420618057,-0.0014557912945747375
1716735157298948900,0.839948974609375,-0.023489952087402344,-0.004398256540298462,0.0013678036630153656
1716735157308949000,0.849948974609375,-0.02109527587890625,-0.002052437514066696,0.003829643130302429
1716735157318948900,0.859948974609375,-0.021097183227539062,-0.0019590556621551514,0.003913592547178268
1716735157328949000,0.869948974609375,-0.021097183227539062,-0.004330769181251526,0.0015356391668319702
1716735157338948900,0.879948974609375,-0.01870250701904297,-0.001904260367155075,0.0014904476702213287
1716735157348949000,0.889948974609375,-0.01630878448486328,-0.0018816106021404266,0.003900740295648575
1716735157358948900,0.899948974609375,-0.013914108276367188,-0.0017978660762310028,-0.00086168572306633
1716735157368949000,0.909948974609375,-0.01630878448486328,0.0005575418472290039,0.0015389807522296906
1716735157378948900,0.919948974609375,-0.01630878448486328,0.0029066167771816254,-0.0007682554423809052
1716735157388949000,0.929948974609375,-0.01870250701904297,0.0028098858892917633,0.0016419030725955963
1716735157398948900,0.939948974609375,-0.01870250701904297,0.002783946692943573,-0.0030625835061073303
1716735157408949000,0.949948974609375,-0.01870250701904297,0.002687014639377594,-0.005440644919872284
1716735157418948900,0.959948974609375,-0.01870250701904297,0.0026578716933727264,-0.002981875091791153
1716735157428949000,0.969948974609375,-0.021097183227539062,0.00021846219897270203,-0.002894934266805649
1716735157438948900,0.979948974609375,-0.021097183227539062,-0.0022112466394901276,-0.0028690993785858154
1716735157448949000,0.989948974609375,-0.01870250701904297,-0.004573117941617966,-0.0027950741350650787
1716735157458948900,0.999948974609375,-0.021097183227539062,-0.004560384899377823,0.001951616257429123
1716735157468949000,1.009948974609375,-0.021097183227539062,-0.0069931913167238235,0.0019579678773880005
1716735157478948900,1.019948974609375,-0.021097183227539062,-0.007019044831395149,-0.0004716627299785614
1716735157488949000,1.029948974609375,-0.021097183227539062,-0.009339258074760437,0.004284754395484924
1716735157498948900,1.039948974609375,-0.021099090576171875,-0.008826494216918945,0.009047728031873703
1716735157508949000,1.049948974609375,-0.021099090576171875,-0.006467850878834724,0.011467795819044113
1716735157518948900,1.059948974609375,-0.02109813690185547,-0.008555427193641663,0.008764266967773438
1716735157528949000,1.069948974609375,-0.02109813690185547,-0.0034346841275691986,0.003702159970998764
1716735157538948900,1.079948974609375,-0.018703460693359375,-0.0007694661617279053,0.0034187212586402893
1716735157548949000,1.089948974609375,-0.02109813690185547,0.0018796548247337341,0.0031578056514263153
1716735157558948900,1.099948974609375,-0.0163116455078125,0.004428587853908539,0.00325142964720726
1716735157568949000,1.109948974609375,-0.013916015625,0.004441175609827042,0.0008155815303325653
1716735157578948900,1.119948974609375,-0.013916015625,0.00679677352309227,-0.0015722587704658508
1716735157588949000,1.129948974609375,-0.013914108276367188,0.004280295222997665,-0.004343777894973755
1716735157598948900,1.139948974609375,-0.013914108276367188,0.0042929016053676605,-0.001991167664527893
1716735157608949000,1.149948974609375,-0.013914108276367188,0.0018049664795398712,-0.001955680549144745
1716735157618948900,1.159948974609375,-0.01630878448486328,-0.0004988163709640503,-0.004285421222448349
1716735157628949000,1.169948974609375,-0.01630878448486328,-0.0004763565957546234,-0.004269223660230637
1716735157638948900,1.179948974609375,-0.013915061950683594,-0.0008057095110416412,-0.003856740891933441
1716735157648949000,1.189948974609375,-0.016309738159179688,-0.0007123313844203949,-0.003891974687576294
1716735157658948900,1.199948974609375,-0.016309738159179688,-0.0007609650492668152,-0.001429915428161621
1716735157668949000,1.209948974609375,-0.016310691833496094,-0.0007870718836784363,0.0010482296347618103
1716735157678948900,1.219948974609375,-0.016309738159179688,-0.003168359398841858,0.001006394624710083
1716735157688949000,1.229948974609375,-0.016309738159179688,-0.003145754337310791,0.0010225102305412292
1716735157698948900,1.239948974609375,-0.018703460693359375,-0.0031716153025627136,0.0009870752692222595
1716735157708949000,1.249948974609375,-0.02109813690185547,-0.003139238804578781,-0.0014522932469844818
1716735157718948900,1.259948974609375,-0.023491859436035156,-0.0031777769327163696,-0.0014460310339927673
1716735157728949000,1.269948974609375,-0.01870250701904297,-0.0008287765085697174,0.0009159371256828308
1716735157738948900,1.279948974609375,-0.016309738159179688,-0.003142423927783966,0.0033166855573654175
1716735157748949000,1.289948974609375,-0.016309738159179688,-0.0007741935551166534,0.0032813772559165955
1716735157758948900,1.299948974609375,-0.028280258178710938,0.0016424953937530518,0.0009034201502799988
1716735157768949200,1.30994921875,-0.016309738159179688,0.0039913952350616455,-0.0015229620039463043
1716735157778949000,1.31994921875,-0.009126663208007812,0.0015001334249973297,-0.0013874359428882599
1716735157788949200,1.32994921875,-0.018703460693359375,-0.003375239670276642,-0.003826882690191269
1716735157798949000,1.33994921875,-0.023491859436035156,-0.0032946839928627014,-0.00382034108042717
1716735157808949200,1.34994921875,-0.011521339416503906,-0.008057523518800735,-0.0036654919385910034
1716735157818949000,1.35994921875,-0.006732940673828125,-0.008025307208299637,-0.003710508346557617
1716735157828949200,1.36994921875,-0.016309738159179688,-0.003224119544029236,-0.0036330819129943848
1716735157838949000,1.37994921875,-0.023492813110351562,-0.0030726268887519836,0.0011103637516498566
1716735157848949200,1.38994921875,-0.016310691833496094,0.001728501170873642,0.0010686367750167847
1716735157858949000,1.39994921875,-0.009126663208007812,0.004093825817108154,0.003407951444387436
1716735157868949200,1.40994921875,-0.011521339416503906,0.006562121212482452,0.0033758245408535004
1716735157878949000,1.41994921875,-0.0163116455078125,0.004270873963832855,0.003398668020963669
1716735157888949200,1.42994921875,-0.009127616882324219,0.002008698880672455,0.0033570416271686554
1716735157898949000,1.43994921875,-0.004340171813964844,-0.0004242360591888428,0.005876857787370682
1716735157908949200,1.44994921875,-0.011521339416503906,-0.0005821399390697479,0.0007370412349700928
1716735157918949000,1.45994921875,-0.016309738159179688,0.0018343999981880188,0.0007533617317676544
1716735157928949200,1.46994921875,-0.011521339416503906,0.004241492599248886,0.0007114820182323456
1716735157938949000,1.47994921875,-0.006731986999511719,0.006538853049278259,-0.0016666203737258911
1716735157948949200,1.48994921875,-0.009126663208007812,0.00423802062869072,-0.0015826113522052765
1716735157958949000,1.49994921875,-0.016307830810546875,-0.0010079331696033478,-0.004099901765584946
1716735157968949200,1.50994921875,-0.013914108276367188,-0.0010372139513492584,-0.004035256803035736
1716735157978949000,1.51994921875,-0.011519432067871094,-0.0035281144082546234,-0.0016250424087047577
1716735157988949200,1.52994921875,-0.013913154602050781,-0.0034441351890563965,0.0006756186485290527
1716735157998949000,1.53994921875,-0.018701553344726562,-0.0010273270308971405,-0.0017024651169776917
1716735158008949200,1.54994921875,-0.016307830810546875,0.001447521150112152,-0.001695975661277771
1716735158018949000,1.55994921875,-0.0115203857421875,0.0037481412291526794,-0.0016605556011199951
1716735158028949200,1.56994921875,-0.013913154602050781,0.0037190988659858704,0.0006789043545722961
1716735158038949000,1.57994921875,-0.01870250701904297,0.0013988874852657318,0.0007660835981369019
1716735158048949200,1.58994921875,-0.01630878448486328,0.0014312677085399628,0.0007209107279777527
1716735158058949000,1.59994921875,-0.011519432067871094,-0.0008725859224796295,0.0006660968065261841
1716735158068949000,1.609948974609375,-0.0115203857421875,0.0015376843512058258,0.0006436407566070557
1716735158078948900,1.619948974609375,-0.013913154602050781,0.0038352124392986298,0.003053780645132065
1716735158088949000,1.629948974609375,-0.0115203857421875,0.006261788308620453,0.0007336623966693878
1716735158098948900,1.639948974609375,-0.011519432067871094,0.006274886429309845,0.0006916038691997528
1716735158111513600,1.652513671875,-0.0115203857421875,0.00391295924782753,-0.0016284659504890442
1716735158121513700,1.662513671875,-0.01630878448486328,0.006268508732318878,-0.001622077077627182
1716735158131513600,1.672513671875,-0.01630878448486328,0.006174881011247635,-0.0015866346657276154
1716735158141513700,1.682513671875,-0.013911247253417969,0.0032615140080451965,-0.0015999414026737213
1716735158151513600,1.692513671875,-0.013912200927734375,0.003342021256685257,-0.0015933699905872345
1716735158161513700,1.702513671875,-0.013912200927734375,0.0010314211249351501,-0.003961525857448578
1716735158171513600,1.712513671875,-0.01630687713623047,0.0006024129688739777,-0.00618511438369751
1716735158181513700,1.722513671875,-0.013912200927734375,0.0006248876452445984,-0.006049748510122299
1716735158191513600,1.732513671875,-0.013912200927734375,0.0006473809480667114,-0.006033506244421005
1716735158201513700,1.742513671875,-0.018701553344726562,0.00035019591450691223,-0.005666032433509827
1716735158211513900,1.752513916015625,-0.016307830810546875,-0.0020698867738246918,-0.0031879395246505737
1716735158221513700,1.762513671875,-0.01630878448486328,0.00035651400685310364,0.0016745775938034058
1716735158231513900,1.772513916015625,-0.013914108276367188,0.0003080293536186218,0.004136558622121811
1716735158241513700,1.782513671875,-0.013914108276367188,0.00033064931631088257,0.0017583929002285004
1716735158251513900,1.792513916015625,-0.01630878448486328,0.00042402371764183044,0.004236612468957901
1716735158261513700,1.802513671875,-0.016309738159179688,0.0003885515034198761,0.004262302070856094
1716735158271513900,1.812513916015625,-0.016309738159179688,0.00041120126843452454,0.001884177327156067
1716735158281513700,1.822513671875,-0.018703460693359375,0.00036294013261795044,-0.00044250860810279846
1716735158291513900,1.832513916015625,-0.018703460693359375,-0.001989264041185379,-0.00042963773012161255
1716735158301513700,1.842513671875,-0.01870441436767578,-0.0019054040312767029,-0.00279800221323967
1716735158311513900,1.852513916015625,-0.018703460693359375,0.00044358521699905396,-0.0052244290709495544
1716735158321513700,1.862513671875,-0.016309738159179688,0.00041449442505836487,-0.005159888416528702
1716735158331513900,1.872513916015625,-0.013915061950683594,0.000379025936126709,-0.005134198814630508
1716735158341513700,1.882513671875,-0.013915061950683594,0.0004595629870891571,-0.007521778345108032
1716735158351513900,1.892513916015625,-0.013916015625,0.0004143044352531433,-0.007434725761413574
1716735158361513700,1.902513671875,-0.0163116455078125,0.0005077868700027466,-0.004956647753715515
1716735158371513900,1.912513916015625,-0.0163116455078125,-0.0018058978021144867,-0.0025558732450008392
1716735158381513700,1.922513671875,-0.0163116455078125,0.003066364675760269,-0.002530030906200409
1716735158391513900,1.932513916015625,-0.0163116455078125,0.003027617931365967,-0.00012938305735588074
1716735158401513700,1.942513671875,-0.0163116455078125,0.0007170289754867554,-0.00010333210229873657
1716735158411513900,1.952513916015625,-0.013916969299316406,0.0007396005094051361,0.004701137542724609
1716735158421513700,1.962513671875,-0.013917922973632812,-0.0016902461647987366,0.004727061837911606
1716735158431513900,1.972513916015625,-0.013917922973632812,-0.0017771795392036438,0.007195238023996353
1716735158441513700,1.982513671875,-0.016313552856445312,-0.001764189451932907,0.004878271371126175
1716735158451513900,1.992513916015625,-0.016310691833496094,-0.001731421798467636,0.006750091910362244
1716735158461513700,2.002513671875,-0.013914108276367188,0.0006696134805679321,0.006311502307653427
1716735158471513900,2.012513916015625,-0.013915061950683594,0.0007600747048854828,0.003981731832027435
1716735158481513700,2.022513671875,-0.013915061950683594,0.0030477121472358704,-0.0007293224334716797
1716735158491513900,2.032513916015625,-0.016309738159179688,0.003131687641143799,-0.0030978135764598846
1716735158501513700,2.042513671875,-0.013912200927734375,0.002880532294511795,-0.0035332515835762024
1716735158511513600,2.052513671875,-0.013910293579101562,-0.000009968876838684082,-0.0036499015986919403
1716735158521513700,2.062513671875,-0.013910293579101562,0.002406693994998932,-0.006027907133102417
1716735158531513600,2.072513671875,-0.016305923461914062,0.002497021108865738,-0.0035691969096660614
1716735158541513700,2.082513671875,-0.013911247253417969,0.00018653273582458496,-0.003543272614479065
1716735158551513600,2.092513671875,-0.016305923461914062,0.00015119463205337524,-0.0012426376342773438
1716735158561513700,2.102513671875,-0.01869964599609375,0.0025775283575057983,0.001225784420967102
1716735158571513600,2.112513671875,-0.018700599670410156,0.004700478166341782,0.004022903740406036
1716735158581513700,2.122513671875,-0.018700599670410156,0.00466475635766983,0.0040488094091415405
1716735158591513600,2.132513671875,-0.021094322204589844,0.0021738968789577484,0.004064798355102539
1716735158601513700,2.142513671875,-0.01869964599609375,-0.0003173910081386566,0.006475318223237991
1716735158611513600,2.152513671875,-0.01869964599609375,-0.0026795193552970886,0.008824598044157028
1716735158621513700,2.162513671875,-0.01869678497314453,-0.005305532366037369,0.0059917643666267395
1716735158631513600,2.172513671875,-0.01869678497314453,-0.002930775284767151,0.005995027720928192
1716735158641513700,2.182513671875,-0.016303062438964844,-0.0006430409848690033,0.0059530846774578094
1716735158651513600,2.192513671875,-0.01630115509033203,-0.0005782321095466614,0.005504976958036423
1716735158661513700,2.202513671875,-0.01630115509033203,-0.0004944838583469391,0.005530945956707001
1716735158671513600,2.212513671875,-0.013903617858886719,-0.0028945691883563995,0.002501506358385086
1716735158681513700,2.222513671875,-0.013904571533203125,-0.00288178026676178,0.0025789327919483185
1716735158691513600,2.232513671875,-0.018690109252929688,-0.002749253064393997,-0.0027284324169158936
1716735158701513700,2.242513671875,-0.01629638671875,-0.0052496641874313354,-0.00037639960646629333
1716735158711513600,2.252513671875,-0.018690109252929688,-0.002881508320569992,-0.0004115961492061615
1716735158721513700,2.262513671875,-0.018690109252929688,-0.000464852899312973,-0.0027895979583263397
1716735158731513600,2.272513671875,-0.018690109252929688,0.0019520781934261322,-0.00037942081689834595
1716735158741513700,2.282513671875,-0.02108478546142578,0.001913357526063919,-0.00037292763590812683
1716735158751513600,2.292513671875,-0.018690109252929688,0.002055123448371887,-0.0003566332161426544
1716735158761513700,2.302513671875,-0.016297340393066406,-0.0003039054572582245,0.0021312981843948364
1716735158771513600,2.312513671875,-0.013903617858886719,-0.0002910010516643524,0.004602789878845215
1716735158781513700,2.322513671875,-0.013903617858886719,-0.0002008378505706787,0.0022732578217983246
1716735158791513600,2.332513671875,-0.016298294067382812,-0.00018788501620292664,0.004625469446182251
1716735158801513700,2.342513671875,-0.021087646484375,-0.0024885497987270355,0.007103528827428818
1716735158811513600,2.352513671875,-0.021086692810058594,-0.002524040639400482,0.0070100463926792145
1716735158821513700,2.362513671875,-0.02108478546142578,-0.004872716963291168,0.006445925682783127
1716735158831513600,2.372513671875,-0.02108478546142578,-0.004907988011837006,0.006471496075391769
1716735158841513700,2.382513671875,-0.02347850799560547,-0.0025622062385082245,0.004025723785161972
1716735158851513600,2.392513671875,-0.02347850799560547,-0.0024684779345989227,0.001596018671989441
1716735158861513700,2.402513671875,-0.02347850799560547,-0.004849795252084732,-0.000840064138174057
1716735158871513600,2.412513671875,-0.021083831787109375,-0.004433400928974152,-0.0037208348512649536
1716735158881513700,2.422513671875,-0.01868915557861328,-0.0020071417093276978,-0.0037657618522644043
1716735158891513600,2.432513671875,-0.01868915557861328,-0.0019940845668315887,-0.00608275830745697
1716735158901513700,2.442513671875,-0.052208900451660156,0.0027587302029132843,-0.003662731498479843
1716735158911513600,2.452513671875,-0.013897895812988281,0.000029638409614562988,-0.008793357759714127
1716735158921513700,2.462513671875,-0.004322052001953125,-0.0024032555520534515,-0.0038792863488197327
1716735158931513600,2.472513671875,-0.02108478546142578,-0.011680692434310913,0.0013962984085083008
1716735158941513700,2.482513671875,-0.04742145538330078,-0.009034905582666397,0.0037487559020519257
1716735158951513600,2.492513671875,-0.018693923950195312,-0.008364450186491013,0.003955695778131485
1716735158961513700,2.502513671875,0.00045680999755859375,-0.0030215121805667877,0.003943346440792084
1716735158971513600,2.512513671875,-0.01390838623046875,0.001870226114988327,0.003965847194194794
1716735158981513700,2.522513671875,-0.03545665740966797,0.0019410550594329834,0.004033643752336502
1716735158991513600,2.532513671875,-0.02348613739013672,0.004419121891260147,0.0016652792692184448
1716735159001513700,2.542513671875,0.0004558563232421875,0.006784398108720779,-0.0031779855489730835
1716735159011513600,2.552513671875,-0.011515617370605469,-0.00037258490920066833,-0.0006289705634117126
1716735159021513700,2.562513671875,-0.033061981201171875,-0.002850409597158432,-0.0010126866400241852
1716735159031513600,2.572513671875,-0.02587890625,-0.002908628433942795,-0.0010029114782810211
1716735159041513700,2.582513671875,-0.009119033813476562,-0.0030665285885334015,-0.0033908411860466003
1716735159051513600,2.592513671875,-0.013906478881835938,-0.0007916800677776337,-0.00578511506319046
1716735159061513700,2.602513671875,-0.030670166015625,0.004448000341653824,-0.0029489807784557343
1716735159071513600,2.612513671875,-0.02348613739013672,0.0068907178938388824,-0.003016706556081772
1716735159081513700,2.622513671875,-0.009121894836425781,0.00415436178445816,-0.0026815980672836304
1716735159091513600,2.632513671875,-0.013911247253417969,-0.0006341859698295593,-0.00016807019710540771
1716735159101513700,2.642513671875,-0.028276443481445312,-0.0004343278706073761,-0.0025556348264217377
1716735159111513600,2.652513671875,-0.02588367462158203,-0.00036349520087242126,-0.002487834542989731
1716735159121513700,2.662513671875,-0.011518478393554688,0.001972608268260956,-0.0024781785905361176
1716735159131513600,2.672513671875,-0.01630687713623047,0.0019145384430885315,-0.00007428228855133057
1716735159141513700,2.682513671875,-0.030671119689941406,-0.0004086121916770935,0.002268284559249878
1716735159151513600,2.692513671875,-0.030672073364257812,0.001995045691728592,0.0047206878662109375
1716735159161513700,2.702513671875,-0.01630687713623047,0.004392363131046295,0.002345886081457138
1716735159171513600,2.712513671875,-0.011518478393554688,0.0020593665540218353,-0.000038564205169677734
1716735159181513700,2.722513671875,-0.023488998413085938,0.002010926604270935,0.000029183924198150635
1716735159191513600,2.732513671875,-0.02588367462158203,0.00206892192363739,0.00001958012580871582
1716735159201513700,2.742513671875,-0.013912200927734375,0.006818585097789764,-0.004762373864650726
1716735159211513900,2.752513916015625,-0.009123802185058594,0.006812024861574173,-0.007075946778059006
1716735159221513700,2.762513671875,-0.018700599670410156,0.00677315890789032,-0.007069375365972519
1716735159231513900,2.772513916015625,-0.023489952087402344,0.004430301487445831,-0.00939248874783516
1716735159241513700,2.782513671875,-0.013914108276367188,0.004381813108921051,-0.014113115146756172
1716735159251513900,2.792513916015625,-0.009125709533691406,0.001632697880268097,-0.013736246153712273
1716735159261513700,2.802513671875,-0.016309738159179688,-0.001287747174501419,-0.01055891066789627
1716735159271513900,2.812513916015625,-0.018705368041992188,0.000851120799779892,-0.007426444441080093
1716735159281513700,2.822513671875,-0.016313552856445312,0.0007185600697994232,-0.004632502794265747
1716735159291513900,2.832513916015625,-0.013919830322265625,0.0005052536725997925,-0.0017257295548915863
1716735159301513700,2.842513671875,-0.01871013641357422,-0.0019506216049194336,-0.0012582093477249146
1716735159311513900,2.852513916015625,-0.021104812622070312,0.00045305490493774414,0.0035883933305740356
1716735159321513700,2.862513671875,-0.01631641387939453,0.00039496272802352905,0.0012038499116897583
1716735159331513900,2.872513916015625,-0.011528968811035156,0.00020435824990272522,0.004007425159215927
1716735159341513700,2.882513671875,-0.016317367553710938,-0.004584088921546936,0.004007454961538315
1716735159351513900,2.892513916015625,-0.018711090087890625,-0.006897700950503349,0.0016198381781578064
1716735159361513700,2.902513671875,-0.016317367553710938,-0.006955599412322044,0.001629311591386795
1716735159371513900,2.912513916015625,-0.013922691345214844,-0.007003968581557274,-0.0008164942264556885
1716735159381513700,2.922513671875,-0.01871013641357422,-0.0070716869086027145,0.0015293210744857788
1716735159391513900,2.932513916015625,-0.021104812622070312,-0.004658050835132599,0.0015260539948940277
1716735159401513700,2.942513671875,-0.01871013641357422,-0.00225096195936203,-0.0009100325405597687
1716735159411513900,2.952513916015625,-0.016318321228027344,-0.0017254799604415894,0.0014170296490192413
1716735159421513700,2.962513671875,-0.01871204376220703,-0.0017835721373558044,-0.0033617205917835236
1716735159431513900,2.972513916015625,-0.021106719970703125,-0.001783616840839386,-0.003361690789461136
1716735159441513700,2.982513671875,-0.021106719970703125,-0.001832183450460434,-0.0008996538817882538
1716735159451513900,2.992513916015625,-0.021106719970703125,0.0005651377141475677,-0.0008802451193332672
1716735159461513700,3.002513671875,-0.023500442504882812,0.0005231834948062897,0.0015010572969913483
1716735159471513900,3.012513916015625,-0.023500442504882812,0.0005264841020107269,0.001520346850156784
1716735159481513700,3.022513671875,-0.02110576629638672,-0.0018579326570034027,0.003853190690279007
1716735159491513900,3.032513916015625,-0.018711090087890625,-0.001864265650510788,0.003814432770013809
1716735159501513700,3.042513671875,-0.018711090087890625,-0.00424899160861969,0.0038726329803466797
1716735159511513600,3.052513671875,-0.018711090087890625,-0.0019128769636154175,0.0062764957547187805
1716735159521513700,3.062513671875,-0.018711090087890625,0.0003813207149505615,0.006273224949836731
1716735159531513600,3.072513671875,-0.01631641387939453,0.0030047334730625153,0.00585748627781868
1716735159541513700,3.082513671875,-0.013919830322265625,0.0007365569472312927,0.0029057152569293976
1716735159551513600,3.092513671875,-0.01631450653076172,-0.0016478747129440308,0.002844434231519699
1716735159561513700,3.102513671875,-0.01631450653076172,0.0006883367896080017,0.002853959798812866
1716735159571513600,3.112513671875,-0.013919830322265625,0.000691637396812439,0.00047905370593070984
1716735159581513700,3.122513671875,-0.011526107788085938,0.000772334635257721,0.0004855059087276459
1716735159591513600,3.132513671875,-0.013919830322265625,0.0007722899317741394,0.0004855319857597351
1716735159601513700,3.142513671875,-0.013919830322265625,0.0007239170372486115,-0.004354469478130341
1716735159611513600,3.152513671875,-0.01631450653076172,0.0007335953414440155,-0.004415698349475861
1716735159621513700,3.162513671875,-0.01631450653076172,0.0007367841899394989,-0.004396270960569382
1716735159631513600,3.172513671875,-0.018708229064941406,0.0031309425830841064,-0.0043962448835372925
1716735159641513700,3.182513671875,-0.018708229064941406,0.0031439363956451416,-0.001924809068441391
1716735159651513600,3.192513671875,-0.016315460205078125,0.0026985853910446167,-0.0014930516481399536
1716735159661513700,3.202513671875,-0.01631450653076172,0.002711717039346695,-0.0015351474285125732
1716735159671513600,3.212513671875,-0.018708229064941406,0.002772912383079529,-0.0016445741057395935
1716735159681513700,3.222513671875,-0.0211029052734375,0.0027728676795959473,0.0007496587932109833
1716735159691513600,3.232513671875,-0.0211029052734375,0.0023018456995487213,0.003420822322368622
1716735159701513700,3.242513671875,-0.021101951599121094,0.0022436492145061493,0.0034306123852729797
1716735159711513600,3.252513671875,-0.023496627807617188,0.0021952763199806213,0.003498263657093048
1716735159721513700,3.262513671875,-0.047438621520996094,0.009310074150562286,0.003569178283214569
1716735159731513600,3.272513671875,-0.025888442993164062,0.009032908827066422,-0.0014515705406665802
1716735159741513700,3.282513671875,-0.004340171813964844,0.003944505006074905,0.001052066683769226
1716735159751513600,3.292513671875,-0.006733894348144531,-0.001011434942483902,0.005788691341876984
1716735159761513700,3.302513671875,-0.03307056427001953,-0.0032251253724098206,0.0034043267369270325
1716735159771513600,3.312513671875,-0.02828216552734375,-0.0032218247652053833,0.0034236200153827667
1716735159781513700,3.322513671875,-0.0115203857421875,0.0013249777257442474,0.005321245640516281
1716735159791513600,3.332513671875,-0.0115203857421875,-0.0011272132396697998,0.0029365643858909607
1716735159801513700,3.342513671875,-0.03306770324707031,-0.0010662004351615906,0.0006715580821037292
1716735159811513600,3.352513671875,-0.03306770324707031,0.0038027241826057434,0.0006781257688999176
1716735159821513700,3.362513671875,-0.009125709533691406,0.0037445202469825745,-0.0017062835395336151
1716735159831513600,3.372513671875,-0.004334449768066406,0.0032643266022205353,-0.0020838677883148193
1716735159841513700,3.382513671875,-0.025882720947265625,0.0008927732706069946,-0.002067793160676956
1716735159851513600,3.392513671875,-0.033064842224121094,0.000883147120475769,-0.002006594091653824
1716735159861513700,3.402513671875,-0.011517524719238281,-0.0016175657510757446,-0.0019292645156383514
1716735159871513600,3.412513671875,-0.0067291259765625,-0.0016078762710094452,-0.0018713176250457764
1716735159881513700,3.422513671875,-0.023488998413085938,0.0009057223796844482,0.000522911548614502
1716735159891513900,3.432513916015625,-0.02827739715576172,0.0009768493473529816,0.00047120824456214905
1716735159901513700,3.442513671875,-0.013912200927734375,0.003383830189704895,0.00042947009205818176
1716735159911513900,3.452513916015625,-0.009122848510742188,0.0009413920342922211,0.005166187882423401
1716735159921513700,3.462513671875,-0.021094322204589844,-0.0038470588624477386,0.002772018313407898
1716735159931513900,3.472513916015625,-0.02827739715576172,-0.008506732061505318,0.0027111023664474487
1716735159941513700,3.482513671875,-0.01630687713623047,-0.008513307198882103,0.00027837231755256653
1716735159951513900,3.492513916015625,-0.009122848510742188,-0.00628662109375,0.002739962190389633
1716735159961513700,3.502513671875,-0.01869964599609375,-0.0038925744593143463,0.005134332925081253
1716735159971513900,3.512513916015625,-0.025882720947265625,-0.0014177560806274414,0.005140766501426697
1716735159981513700,3.522513671875,-0.01869964599609375,-0.003802277147769928,0.007473740726709366
1716735159991513900,3.532513916015625,-0.011517524719238281,-0.003869861364364624,0.0026368610560894012
1716735160001513700,3.542513671875,-0.01869964599609375,-0.005980074405670166,0.002430647611618042
1716735160011513900,3.552513916015625,-0.02588367462158203,-0.005476869642734528,0.002108614891767502
1716735160021513700,3.562513671875,-0.018700599670410156,-0.007870981469750404,-0.0002856440842151642
1716735160031513900,3.572513916015625,-0.013912200927734375,-0.005002647638320923,0.0018509961664676666
1716735160041513700,3.582513671875,-0.01630687713623047,-0.002608351409435272,0.004245147109031677
1716735160051513900,3.592513916015625,-0.02588367462158203,-0.00008185207843780518,0.004203222692012787
1716735160061513700,3.602513671875,-0.021096229553222656,-0.00007212907075881958,0.001867007464170456
1716735160071513900,3.612513916015625,-0.009124755859375,-0.002524282783269882,-0.000517621636390686
1716735160081513700,3.622513671875,-0.013912200927734375,-0.004957117140293121,0.001882895827293396
1716735160091513900,3.632513916015625,-0.02109527587890625,-0.0050248391926288605,0.004347953945398331
1716735160101513700,3.642513671875,-0.02109527587890625,-0.00022662431001663208,0.0042866431176662445
1716735160111513900,3.652513916015625,-0.013912200927734375,0.0000865049660205841,0.0015024170279502869
1716735160121513700,3.662513671875,-0.01630687713623047,0.0024322718381881714,0.0015701651573181152
1716735160131513900,3.672513916015625,-0.02109527587890625,0.00243222713470459,0.001570194959640503
1716735160141513700,3.682513671875,-0.021094322204589844,0.0025582686066627502,0.0035260096192359924
1716735160151513900,3.692513916015625,-0.013910293579101562,0.0024391748011112213,0.0035257264971733093
1716735160161513700,3.702513671875,-0.016305923461914062,0.002580873668193817,0.005936320871114731
1716735160171513900,3.712513916015625,-0.021094322204589844,-0.0022753439843654633,0.003613036125898361
1716735160181513700,3.722513671875,-0.01869964599609375,-0.004588846117258072,0.0012252852320671082
1716735160191513600,3.732513671875,-0.016304969787597656,-0.002323668450117111,0.001167207956314087
1716735160201513700,3.742513671875,-0.013911247253417969,0.0000930391252040863,-0.0012108273804187775
1716735160211513900,3.752513916015625,-0.01869964599609375,0.004939336329698563,-0.0036145001649856567
1716735160221513700,3.762513671875,-0.016305923461914062,0.00248703733086586,-0.0059990473091602325
1716735160231513900,3.772513916015625,-0.013909339904785156,-0.00008441880345344543,-0.005989566445350647
1716735160241513700,3.782513671875,-0.013911247253417969,-0.004801984876394272,-0.00592176616191864
1716735160251513900,3.792513916015625,-0.018698692321777344,-0.0047406889498233795,-0.006031323224306107
1716735160261513700,3.802513671875,-0.021096229553222656,-0.0020435936748981476,-0.005644220858812332
1716735160271513900,3.812513916015625,-0.013913154602050781,0.0026963017880916595,-0.0007880851626396179
1716735160281513700,3.822513671875,-0.013913154602050781,0.002757508307695389,-0.0007783360779285431
1716735160291513900,3.832513916015625,-0.01870250701904297,0.0003666095435619354,-0.0007590465247631073
1716735160301513700,3.842513671875,-0.01870250701904297,0.0003086291253566742,0.0016446784138679504
1716735160311513900,3.852513916015625,-0.016307830810546875,-0.002076011151075363,0.001583583652973175
1716735160321513700,3.862513671875,-0.01630878448486328,-0.004351068288087845,0.003978036344051361
1716735160331513900,3.872513916015625,-0.01870250701904297,-0.004270508885383606,0.006378769874572754
1716735160341513700,3.882513671875,-0.01870250701904297,-0.0018730051815509796,0.001609664410352707
1716735160351513900,3.892513916015625,-0.01630878448486328,-0.0018022134900093079,-0.003110915422439575
1716735160361513700,3.902513671875,-0.016309738159179688,0.003047257661819458,-0.003101084381341934
1716735160371513900,3.912513916015625,-0.018703460693359375,0.0030473507940769196,-0.00788954645395279
1716735160381513700,3.922513671875,-0.02109813690185547,0.0030667930841445923,-0.0031044110655784607
1716735160391513900,3.932513916015625,-0.021097183227539062,0.00299893319606781,-0.0007585100829601288
1716735160401513700,3.942513671875,-0.01630878448486328,0.0029603280127048492,0.004036255180835724
1716735160411513900,3.952513916015625,-0.01630878448486328,0.0029634907841682434,0.0016614310443401337
1716735160421513700,3.962513671875,-0.01630878448486328,0.002905428409576416,-0.0007230602204799652
1716735160431513900,3.972513916015625,-0.013914108276367188,0.0029245875775814056,-0.003120359033346176
1716735160441513700,3.982513671875,-0.013914108276367188,0.005260791629552841,-0.0007165595889091492
1716735160451513900,3.992513916015625,-0.01630878448486328,0.00759698823094368,0.001567993313074112
1716735160461513700,4.002513671875,-0.016307830810546875,0.009932983666658401,0.0015777871012687683
1716735160471513900,4.012513916015625,-0.018701553344726562,0.005163881927728653,-0.0008195936679840088
1716735160481513700,4.022513671875,-0.018701553344726562,0.0003173835575580597,-0.0032041408121585846
1716735160491513900,4.032513916015625,-0.021096229553222656,0.00031708553433418274,-0.0008096881210803986
1716735160501513700,4.042513671875,-0.023489952087402344,0.0027144774794578552,0.001603931188583374
1716735160511513600,4.052513671875,-0.021097183227539062,0.0026661306619644165,0.0016715042293071747
1716735160521513700,4.062513671875,-0.018701553344726562,0.005069959908723831,-0.0007838942110538483
1716735160531513600,4.072513671875,-0.021096229553222656,0.00753522664308548,-0.0008354894816875458
1716735160541513700,4.082513671875,-0.02349090576171875,0.007596321403980255,0.0015685856342315674
1716735160551513600,4.092513671875,-0.021097183227539062,0.007606107741594315,0.0015072301030158997
1716735160561513700,4.102513671875,-0.018700599670410156,0.0051056258380413055,-0.0009290240705013275
1716735160571513600,4.112513671875,-0.021093368530273438,0.0044476985931396484,-0.0009390190243721008
1716735160581513700,4.122513671875,-0.021091461181640625,0.006280824542045593,-0.0009651891887187958
1716735160591513600,4.132513671875,-0.02109050750732422,0.0037672780454158783,-0.0009652450680732727
1716735160601513700,4.142513671875,-0.018692970275878906,-0.0016177035868167877,-0.0009655728936195374
1716735160611513600,4.152513671875,-0.0186920166015625,-0.004415065050125122,-0.005667183548212051
1716735160621513700,4.162513671875,-0.021086692810058594,-0.006799709051847458,-0.0033340677618980408
1716735160631513600,4.172513671875,-0.021086692810058594,-0.006847977638244629,-0.005780000239610672
1716735160641513700,4.182513671875,-0.021086692810058594,-0.006967436522245407,-0.0033857151865959167
1716735160651513600,4.192513671875,-0.021086692810058594,-0.0069642700254917145,-0.005760543048381805
1716735160661513700,4.202513671875,-0.021086692810058594,-0.00450897216796875,-0.0033564493060112
1716735160671513600,4.212513671875,0.041159629821777344,0.0006529055535793304,-0.005295597016811371
1716735160681513700,4.222513671875,0.05552482604980469,0.0030599310994148254,-0.002823922783136368
1716735160691513600,4.232513671875,0.055522918701171875,0.00276276096701622,-0.004731327295303345
1716735160701513700,4.242513671875,0.0243988037109375,-0.0018871501088142395,-0.0047342851758003235
1716735160711513600,4.252513671875,0.01961040496826172,-0.004278294742107391,-0.0047147683799266815
1716735160721513700,4.262513671875,0.038761138916015625,-0.004127092659473419,-0.0018883608281612396
1716735160731513600,4.272513671875,0.031579017639160156,-0.0019714385271072388,-0.0018886364996433258
1716735160741513700,4.282513671875,0.0052433013916015625,-0.0019488930702209473,-0.001872420310974121
1716735160751513600,4.292513671875,-0.0019407272338867188,-0.0018974021077156067,-0.0041956230998039246
1716735160761513700,4.302513671875,0.012422561645507812,-0.006502263247966766,-0.0014144331216812134
1716735160771513600,4.312513671875,0.010029792785644531,-0.006550505757331848,0.0009280852973461151
1716735160781513700,4.322513671875,-0.009123802185058594,-0.006489291787147522,-0.0014563724398612976
1716735160791513600,4.332513671875,-0.01630687713623047,-0.0065407417714595795,0.0008667930960655212
1716735160801513700,4.342513671875,-0.006730079650878906,-0.004133656620979309,-0.0015692897140979767
1716735160811513600,4.352513671875,-0.006731986999511719,-0.0037403926253318787,-0.0014754757285118103
1716735160821513700,4.362513671875,-0.018703460693359375,-0.00366954505443573,-0.0038018934428691864
1716735160831513600,4.372513671875,-0.02109813690185547,-0.0037856325507164,-0.003663383424282074
1716735160841513700,4.382513671875,-0.009128570556640625,-0.0011367648839950562,-0.0058414265513420105
1716735160851513600,4.392513671875,-0.0043392181396484375,-0.006034843623638153,-0.003508511930704117
1716735160861513700,4.402513671875,-0.018708229064941406,-0.00545155256986618,-0.003108251839876175
1716735160871513600,4.412513671875,-0.023499488830566406,-0.0025868527591228485,0.001999732106924057
1716735160881513700,4.422513671875,-0.013922691345214844,-0.002583451569080353,0.0020188912749290466
1716735160891513600,4.432513671875,-0.009137153625488281,-0.0020611174404621124,0.004564940929412842
1716735160901513700,4.442513671875,-0.016320228576660156,0.00020414963364601135,0.0046260543167591095
1716735160911513600,4.452513671875,-0.023502349853515625,0.0026790164411067963,0.004632461816072464
1716735160921513700,4.462513671875,-0.018712997436523438,0.0026114247739315033,0.0045839883387088776
1716735160931513600,4.472513671875,-0.011529922485351562,0.00033039599657058716,0.0016739927232265472
1716735160941513700,4.482513671875,-0.01631927490234375,-0.0020024366676807404,0.0018028318881988525
1716735160951513600,4.492513671875,-0.02350139617919922,-0.001941092312335968,0.004325930029153824
1716735160961513700,4.502513671875,-0.018712997436523438,-0.0019894614815711975,0.006668541580438614
1716735160971513600,4.512513671875,-0.013922691345214844,0.0005115121603012085,0.0038390159606933594
1716735160981513700,4.522513671875,-0.01871204376220703,-0.0018118135631084442,0.00630105659365654
1716735160991513600,4.532513671875,-0.028289794921875,0.0006404891610145569,0.0038971155881881714
1716735161001513700,4.542513671875,-0.021106719970703125,0.0004632323980331421,0.003906603902578354
1716735161011513600,4.552513671875,-0.01631641387939453,0.0005346387624740601,0.0009836070239543915
1716735161021513700,4.562513671875,-0.01631641387939453,0.000476788729429245,-0.0014011524617671967
1716735161031513600,4.572513671875,-0.023496627807617188,0.0006089918315410614,-0.0018006376922130585
1716735161041513700,4.582513671875,-0.023496627807617188,-0.0018853135406970978,-0.0018037743866443634
1716735161051513600,4.592513671875,-0.018708229064941406,-0.0019434504210948944,-0.0017940886318683624
1716735161061513700,4.602513671875,-0.023496627807617188,-0.0018822401762008667,-0.001784343272447586
1716735161071513600,4.612513671875,-0.02589130401611328,0.0005826950073242188,-0.004110630601644516
1716735161081513700,4.622513671875,-0.023496627807617188,0.0005248449742794037,-0.004101186990737915
1716735161091513600,4.632513671875,-0.01631450653076172,0.0005443952977657318,-0.0017103813588619232
1716735161101513700,4.642513671875,-0.01631450653076172,-0.0018466413021087646,0.0007032006978988647
1716735161111513600,4.652513671875,-0.018708229064941406,-0.001904703676700592,0.003107108175754547
1716735161121513700,4.662513671875,-0.0211029052734375,-0.004360102117061615,0.007885687053203583
1716735161131513600,4.672513671875,-0.016315460205078125,-0.003924533724784851,0.005240246653556824
1716735161141513700,4.682513671875,-0.016315460205078125,-0.0038633234798908234,0.0052499920129776
1716735161151513600,4.692513671875,-0.01871013641357422,-0.00612846203148365,0.007582996040582657
1716735161161513700,4.702513671875,-0.018708229064941406,-0.00822555273771286,0.007215440273284912
1716735161171513600,4.712513671875,-0.01631450653076172,-0.0031660571694374084,0.004418421536684036
1716735161181513700,4.722513671875,-0.01631450653076172,-0.002788696438074112,0.004057709127664566
1716735161191513600,4.732513671875,-0.01631450653076172,-0.00039118900895118713,0.0016827993094921112
1716735161201513700,4.742513671875,-0.01631450653076172,-0.0003911256790161133,-0.000711493194103241
1716735161211513600,4.752513671875,-0.016313552856445312,0.0022612661123275757,-0.0034665726125240326
1716735161221513700,4.762513671875,-0.016313552856445312,-0.00018119439482688904,-0.0035182908177375793
1716735161231513600,4.772513671875,-0.021100997924804688,-0.00514710508286953,-0.0035085976123809814
1716735161241513700,4.782513671875,-0.021100997924804688,-0.002685047686100006,-0.0011853314936161041
1716735161251513600,4.792513671875,-0.016312599182128906,-0.00033926963806152344,-0.0060253143310546875
1716735161261513700,4.802513671875,-0.013917922973632812,-0.00034585222601890564,-0.003669656813144684
1716735161271513600,4.812513671875,-0.016312599182128906,-0.00026517733931541443,-0.003663245588541031
1716735161281513700,4.822513671875,-0.018705368041992188,-0.0026690587401390076,-0.003721266984939575
1716735161291513600,4.832513671875,-0.018705368041992188,-0.0026497282087802887,-0.00372440367937088
1716735161301513700,4.842513671875,-0.018705368041992188,-0.0003715530037879944,0.0010831654071807861
1716735161311513600,4.852513671875,-0.018705368041992188,-0.0027659162878990173,-0.001310884952545166
1716735161321513700,4.862513671875,-0.018705368041992188,-0.00041045621037483215,-0.0013044364750385284
1716735161331513600,4.872513671875,-0.018706321716308594,-0.002743612974882126,-0.0012945421040058136
1716735161341513700,4.882513671875,-0.018708229064941406,-0.0024567805230617523,-0.001004233956336975
1716735161351513600,4.892513671875,-0.018708229064941406,-0.00006248429417610168,-0.001004289835691452
1716735161361513700,4.902513671875,-0.01871013641357422,0.0026862509548664093,-0.0006655268371105194
1716735161371513600,4.912513671875,-0.018711090087890625,0.002699296921491623,-0.0005883090198040009
1716735161381513700,4.922513671875,-0.018711090087890625,0.0026993900537490845,-0.0029825642704963684
1716735161391513600,4.932513671875,-0.021106719970703125,0.002473432570695877,-0.00015332922339439392
1716735161401513700,4.942513671875,-0.018711090087890625,0.002415090799331665,-0.002537675201892853
1716735161411513600,4.952513671875,-0.018711090087890625,0.000040084123611450195,-0.00254073366522789
1716735161421513700,4.962513671875,-0.016318321228027344,-0.0024219751358032227,-0.004863996058702469
1716735161431513600,4.972513671875,-0.013922691345214844,-0.0023509077727794647,-0.004915587604045868
1716735161441513700,4.982513671875,-0.013924598693847656,0.00016255304217338562,-0.0049154795706272125
1716735161451513600,4.992513671875,-0.01871490478515625,-0.0021705366671085358,-0.002034522593021393
1716735161461513700,5.002513671875,-0.016321182250976562,-0.002118907868862152,0.0004305988550186157
1716735161471513600,5.012513671875,-0.016321182250976562,-0.0021576471626758575,0.002831246703863144
1716735161481513700,5.022513671875,-0.016320228576660156,-0.002286873757839203,0.0027733445167541504
1716735161491513600,5.032513671875,-0.016321182250976562,-0.0023256726562976837,0.0005049444735050201
1716735161501513700,5.042513671875,-0.016321182250976562,0.00006193295121192932,0.000585600733757019
1716735161511513600,5.052513671875,-0.016321182250976562,-0.0023806430399417877,0.0029282011091709137
1716735161521513700,5.062513671875,-0.016321182250976562,-0.00003468245267868042,0.0004823245108127594
1716735161531513600,5.072513671875,-0.01871490478515625,-0.002367805689573288,0.005280554294586182
1716735161541513700,5.082513671875,-0.021109580993652344,-0.0019871070981025696,-0.002243500202894211
1716735161551513600,5.092513671875,-0.02350330352783203,0.00040705129504203796,0.0001507289707660675
1716735161561513700,5.102513671875,-0.02350330352783203,0.0004068724811077118,0.0025450363755226135
1716735161571513600,5.112513671875,-0.021109580993652344,0.00042952224612236023,0.0025611184537410736
1716735161581513700,5.122513671875,-0.06181049346923828,0.0028849318623542786,-0.0022175386548042297
1716735161591513600,5.132513671875,-0.03547477722167969,0.005340632051229477,-0.0023272745311260223
1716735161601513700,5.142513671875,-0.01871490478515625,0.0027784742414951324,-0.002140231430530548
1716735161611513600,5.152513671875,-0.030686378479003906,0.0004423558712005615,-0.0022691376507282257
1716735161621513700,5.162513671875,-0.042656898498535156,0.0005647130310535431,0.0025388486683368683
1716735161631513600,5.172513671875,-0.028291702270507812,-0.0018196851015090942,0.007265932857990265
1716735161641513700,5.182513671875,-0.023500442504882812,-0.0020642541348934174,0.009263195097446442
1716735161651513600,5.192513671875,-0.028287887573242188,0.00020431354641914368,0.009224362671375275
1716735161661513700,5.202513671875,-0.035470008850097656,0.0002530217170715332,0.008679501712322235
1716735161671513600,5.212513671875,-0.028285980224609375,0.00026590004563331604,0.008637621998786926
1716735161681513700,5.222513671875,-0.021101951599121094,-0.002237599343061447,0.005704887211322784
1716735161691513600,5.232513671875,-0.023492813110351562,-0.002314731478691101,0.00524061918258667
1716735161701513700,5.242513671875,-0.028280258178710938,-0.002224210649728775,0.002433784306049347
1716735161711513600,5.252513671875,-0.023489952087402344,0.0003926008939743042,-0.0004147961735725403
1716735161721513700,5.262513671875,-0.021096229553222656,0.00033438950777053833,-0.00040500983595848083
1716735161731513600,5.272513671875,-0.021096229553222656,0.000295788049697876,0.001995563507080078
1716735161741513700,5.282513671875,-0.025884628295898438,0.0027416832745075226,0.0019471310079097748
1716735161751513600,5.292513671875,-0.023488998413085938,0.0028124861419200897,-0.0004984624683856964
1716735161761513700,5.302513671875,-0.02109527587890625,0.00041812285780906677,-0.00289250910282135
1716735161771513600,5.312513671875,-0.023488998413085938,-0.0019567832350730896,-0.007684100419282913
1716735161781513700,5.322513671875,-0.025884628295898438,0.00044041499495506287,-0.005270373076200485
1716735161791513600,5.332513671875,-0.023489952087402344,0.00038244202733039856,-0.002866636961698532
1716735161801513700,5.342513671875,-0.018700599670410156,0.00026323646306991577,-0.0028667673468589783
1716735161811513600,5.352513671875,-0.018701553344726562,0.002737991511821747,-0.0004660375416278839
1716735161821513700,5.362513671875,-0.023489952087402344,0.0027994662523269653,-0.0028507038950920105
1716735161831513600,5.372513671875,-0.023489952087402344,0.0052035413682460785,0.0019956231117248535
1716735161841513700,5.382513671875,-0.021097183227539062,0.002822253853082657,-0.0003212951123714447
1716735161851513600,5.392513671875,-0.021097183227539062,0.00042788684368133545,-0.00032114237546920776
1716735161861513700,5.402513671875,-0.025884628295898438,0.00005365908145904541,-0.0001794770359992981
1716735161871513600,5.412513671875,-0.025885581970214844,-0.0022697001695632935,-0.00011169165372848511
1716735161881513700,5.422513671875,-0.023489952087402344,-0.00477350689470768,-0.0025671496987342834
1716735161891513600,5.432513671875,-0.02109527587890625,-0.002446915954351425,-0.002615664154291153
1716735161901513700,5.442513671875,-0.023491859436035156,-0.0022796951234340668,-0.0022058971226215363
1716735161911513600,5.452513671875,-0.02588653564453125,0.00012423843145370483,-0.00454210489988327
1716735161921513700,5.462513671875,-0.02588653564453125,-0.0022700130939483643,-0.004542078822851181
1716735161931513600,5.472513671875,-0.023494720458984375,-0.00445806048810482,-0.004138987511396408
1716735161941513700,5.482513671875,-0.02349376678466797,-0.00211542472243309,-0.004209887236356735
1716735161951513600,5.492513671875,-0.025888442993164062,0.00041091442108154297,-0.006645865738391876
1716735161961513700,5.502513671875,-0.02588939666748047,-0.0019123665988445282,-0.006697379052639008
1716735161971513600,5.512513671875,-0.02589130401611328,0.000568632036447525,-0.0037808194756507874
1716735161981513700,5.522513671875,-0.025893211364746094,0.0005780048668384552,-0.000851459801197052
1716735161991513600,5.532513671875,-0.025893211364746094,0.0005778446793556213,-0.000851314514875412
1716735162001513700,5.542513671875,-0.0258941650390625,0.0005292743444442749,-0.000783480703830719
1716735162011513600,5.552513671875,-0.0258941650390625,0.0029847994446754456,-0.0007738694548606873
1716735162021513700,5.562513671875,-0.0258941650390625,0.0006001554429531097,0.00395343080163002
1716735162031513600,5.572513671875,-0.025893211364746094,-0.0018523037433624268,0.003963235765695572
1716735162041513700,5.582513671875,-0.0258941650390625,-0.0018395036458969116,0.0016464516520500183
1716735162051513600,5.592513671875,-0.023499488830566406,-0.001829836517572403,-0.0008089765906333923
1716735162061513700,5.602513671875,-0.023499488830566406,0.002848852425813675,-0.0007509849965572357
1716735162071513600,5.612513671875,-0.023499488830566406,0.002842441201210022,-0.0006704330444335938
1716735162081513700,5.622513671875,-0.02110576629638672,0.0028619952499866486,-0.0006738156080245972
1716735162091513600,5.632513671875,-0.018711090087890625,0.002804044634103775,-0.0006642341613769531
1716735162101513700,5.642513671875,-0.02110576629638672,0.0004096589982509613,-0.0030583329498767853
1716735162111513600,5.652513671875,-0.02110576629638672,-0.001962054520845413,-0.0030421018600463867
1716735162121513700,5.662513671875,-0.018711090087890625,-0.001971617341041565,-0.0031002387404441833
1716735162131513600,5.672513671875,-0.01871013641357422,0.00038398057222366333,-0.0030938684940338135
1716735162141513700,5.682513671875,-0.01631641387939453,0.000377509742975235,-0.005526743829250336
1716735162151513600,5.692513671875,-0.01631641387939453,0.00038723647594451904,-0.005468752235174179
1716735162161513700,5.702513671875,-0.01871013641357422,0.00020984560251235962,-0.007853370159864426
1716735162171513600,5.712513671875,-0.021106719970703125,0.002603810280561447,-0.007376216351985931
1716735162181513700,5.722513671875,-0.021106719970703125,0.00021288543939590454,-0.00496276468038559
1716735162191513600,5.732513671875,-0.021109580993652344,0.00016408786177635193,-0.0020235739648342133
1716735162201513700,5.742513671875,-0.018713951110839844,0.00011250004172325134,-0.004488717764616013
1716735162211513600,5.752513671875,-0.021109580993652344,0.0001738220453262329,-0.004479102790355682
1716735162221513700,5.762513671875,-0.02111053466796875,0.004865001887083054,-0.0015914849936962128
1716735162231513600,5.772513671875,-0.023504257202148438,0.007278509438037872,0.0007995329797267914
1716735162241513700,5.782513671875,-0.023504257202148438,0.007329896092414856,0.0008706562221050262
1716735162251513600,5.792513671875,-0.02111053466796875,0.004958100616931915,0.0032811425626277924
1716735162261513700,5.802513671875,-0.018716812133789062,0.004948452115058899,0.0033423006534576416
1716735162271513600,5.812513671875,-0.018716812133789062,0.0049609653651714325,0.0034199506044387817
1716735162281513700,5.822513671875,-0.021111488342285156,0.004961054772138596,0.003419894725084305
1716735162291513600,5.832513671875,-0.02350330352783203,0.004445184022188187,0.005700934678316116
1716735162301513700,5.842513671875,-0.02350330352783203,0.004525881260633469,0.003313180059194565
1716735162311513600,5.852513671875,-0.023504257202148438,0.004645135253667831,0.0033132843673229218
1716735162321513700,5.862513671875,-0.01871490478515625,-0.00025926530361175537,0.0033324994146823883
1716735162331513600,5.872513671875,-0.01871490478515625,-0.00031735748052597046,0.0033421628177165985
1716735162341513700,5.882513671875,-0.021109580993652344,-0.00023679807782173157,0.0033486932516098022
1716735162351513600,5.892513671875,-0.02350330352783203,-0.00029480084776878357,0.005752503871917725
1716735162361513700,5.902513671875,-0.023500442504882812,-0.0005331337451934814,0.00527515634894371
1716735162371513600,5.912513671875,-0.023500442504882812,0.001802973449230194,0.0028906166553497314
1716735162381513700,5.922513671875,-0.02110767364501953,-0.00040096789598464966,0.002839222550392151
1716735162391513600,5.932513671875,-0.02110767364501953,0.0019929446280002594,0.005233660340309143
1716735162401513700,5.942513671875,-0.02110767364501953,-0.0028342008590698242,0.005240105092525482
1716735162411513600,5.952513671875,-0.02110767364501953,-0.0005079135298728943,0.005311157554388046
1716735162421513700,5.962513671875,-0.02110767364501953,0.001908913254737854,0.005327194929122925
1716735162431513600,5.972513671875,-0.023500442504882812,0.004235371947288513,0.0028846822679042816
1716735162441513700,5.982513671875,-0.02350139617919922,0.0042450688779354095,0.0029426291584968567
1716735162451513600,5.992513671875,-0.021106719970703125,0.004254870116710663,0.005275517702102661
1716735162461513700,6.002513671875,-0.02349853515625,0.0015417858958244324,0.004910897463560104
1716735162471513600,6.012513671875,-0.02349853515625,-0.000781625509262085,0.004859466105699539
1716735162481513700,6.022513671875,-0.02349567413330078,0.001342233270406723,0.00442708283662796
1716735162491513600,6.032513671875,-0.02588653564453125,0.0036014579236507416,0.0014587529003620148
1716735162501513700,6.042513671875,-0.023491859436035156,0.003601551055908203,-0.0009355023503303528
1716735162511513600,6.052513671875,-0.023489952087402344,0.003298666328191757,-0.003716804087162018
1716735162521513700,6.062513671875,-0.02109527587890625,0.003308359533548355,-0.0037779882550239563
1716735162531513600,6.072513671875,-0.023488998413085938,0.0033114776015281677,-0.0037585869431495667
1716735162541513700,6.082513671875,-0.023488998413085938,0.0008592978119850159,-0.0037490539252758026
1716735162551513600,6.092513671875,-0.02588367462158203,0.0008786246180534363,-0.00135798379778862
1716735162561513700,6.102513671875,-0.025884628295898438,0.0008819028735160828,-0.0013387426733970642
1716735162571513600,6.112513671875,-0.023489952087402344,0.0008917450904846191,-0.0012808814644813538
1716735162581513700,6.122513671875,-0.023489952087402344,0.003176264464855194,-0.0012228377163410187
1716735162591513600,6.132513671875,-0.02588367462158203,0.003060121089220047,-0.0035977400839328766
1716735162601513700,6.142513671875,-0.05461406707763672,0.0006657615303993225,-0.0035975873470306396
1716735162611513600,6.152513671875,-0.04264354705810547,0.0030632391571998596,-0.0011841356754302979
1716735162621513700,6.162513671875,-0.016305923461914062,0.0002627819776535034,0.0010389536619186401
1716735162631513600,6.172513671875,-0.006728172302246094,-0.0021829791367053986,-0.0014261417090892792
1716735162641513700,6.182513671875,-0.021093368530273438,-0.002121657133102417,-0.001416534185409546
1716735162651513600,6.192513671875,-0.033064842224121094,-0.0066586267203092575,0.001055300235748291
1716735162661513700,6.202513671875,-0.02109527587890625,-0.004193469882011414,0.003517158329486847
1716735162671513600,6.212513671875,-0.011518478393554688,0.0005372390151023865,0.0035265199840068817
1716735162681513700,6.222513671875,-0.018700599670410156,0.0005370751023292542,0.0035266801714897156
1716735162691513600,6.232513671875,-0.02588367462158203,0.0006177462637424469,0.003533080220222473
1716735162701513700,6.242513671875,-0.02109527587890625,0.003063526004552841,0.0034847743809223175
1716735162711513600,6.252513671875,-0.01869964599609375,0.0028958283364772797,0.001038968563079834
1716735162721513700,6.262513671875,-0.02348804473876953,0.002847447991371155,-0.0014068223536014557
1716735162731513600,6.272513671875,-0.025882720947265625,0.0005145668983459473,0.0009969882667064667
1716735162741513700,6.282513671875,-0.018700599670410156,-0.0018601901829242706,0.0009937211871147156
1716735162751513600,6.292513671875,-0.011517524719238281,-0.0019278526306152344,0.0010645538568496704
1716735162761513700,6.302513671875,-0.018700599670410156,-0.004241388291120529,0.0010709576308727264
1716735162771513600,6.312513671875,-0.023488998413085938,0.0006565861403942108,0.001132369041442871
1716735162781513700,6.322513671875,-0.02109527587890625,0.0006791017949581146,0.0011485330760478973
1716735162791513600,6.332513671875,-0.01630687713623047,-0.0017150528728961945,0.003542710095643997
1716735162801513700,6.342513671875,-0.018700599670410156,-0.00415763258934021,0.0034911110997200012
1716735162811513600,6.352513671875,-0.02588367462158203,-0.006480654701590538,0.0010451823472976685
1716735162821513700,6.362513671875,-0.025882720947265625,-0.003838054835796356,0.0006263330578804016
1716735162831513600,6.372513671875,-0.021094322204589844,-0.003886435180902481,0.000574745237827301
1716735162841513700,6.382513671875,-0.021094322204589844,0.0009534619748592377,0.0006457343697547913
1716735162851513600,6.392513671875,-0.028276443481445312,0.0032476596534252167,-0.004145927727222443
1716735162861513700,6.402513671875,-0.028276443481445312,0.005693439394235611,-0.0018000304698944092
1716735162871513600,6.412513671875,-0.02348804473876953,0.0008664317429065704,0.0006005354225635529
1716735162881513700,6.422513671875,-0.023487091064453125,-0.003989439457654953,-0.001842256635427475
1716735162891513600,6.432513671875,-0.025880813598632812,-0.006541913375258446,0.00043925270438194275
1716735162901513700,6.442513671875,-0.0282745361328125,-0.0017534159123897552,-0.0019549988210201263
1716735162911513600,6.452513671875,-0.02109241485595703,0.0005922913551330566,0.0003877319395542145
1716735162921513700,6.462513671875,-0.018697738647460938,0.003038071095943451,0.0003394298255443573
1716735162931513600,6.472513671875,-0.02348613739013672,0.0031186267733573914,-0.0020482391119003296
1716735162941513700,6.482513671875,-0.02348613739013672,0.0006664730608463287,-0.002038661390542984
1716735162951513600,6.492513671875,-0.02109241485595703,0.0006180144846439362,-0.0019709505140781403
1716735162961513700,6.502513671875,-0.023485183715820312,0.000508379191160202,-0.0020322613418102264
1716735162971513600,6.512513671875,-0.023485183715820312,0.0005083121359348297,-0.0020321570336818695
1716735162981513700,6.522513671875,-0.02348613739013672,0.000569518655538559,0.000371783971786499
1716735162991513600,6.532513671875,-0.02109241485595703,0.0005727969110012054,0.0003910250961780548
1716735163001513700,6.542513671875,-0.018697738647460938,0.003047589212656021,0.002791810780763626
1716735163011513600,6.552513671875,-0.02109241485595703,0.00310584157705307,0.005176186561584473
1716735163021513700,6.562513671875,-0.02588176727294922,0.0007245540618896484,0.00285927951335907
1716735163031513600,6.572513671875,-0.023487091064453125,-0.0015406496822834015,0.00519237294793129
1716735163041513700,6.582513671875,-0.023484230041503906,-0.006564175710082054,0.0047343820333480835
1716735163051513600,6.592513671875,-0.023484230041503906,-0.008948452770709991,0.0022787414491176605
1716735163061513700,6.602513671875,-0.0234832763671875,-0.006602531298995018,0.0022270865738391876
1716735163071513600,6.612513671875,-0.0234832763671875,-0.006541205570101738,-0.00015750527381896973
1716735163081513700,6.622513671875,-0.02587890625,-0.0013204552233219147,0.001966085284948349
1716735163091513600,6.632513671875,-0.02587890625,0.0010255500674247742,0.002033580094575882
1716735163101513700,6.642513671875,-0.028272628784179688,0.0010255016386508942,0.004427805542945862
1716735163111513600,6.652513671875,-0.023484230041503906,-0.0014750584959983826,0.0021108686923980713
1716735163121513700,6.662513671875,-0.021089553833007812,-0.0039886124432086945,0.0021108128130435944
1716735163131513600,6.672513671875,-0.021089553833007812,-0.003975734114646912,0.0020689330995082855
1716735163141513700,6.682513671875,-0.021089553833007812,-0.003966189920902252,0.0020078346133232117
1716735163151513600,6.692513671875,-0.021089553833007812,-0.0040244460105896,0.002017650753259659
1716735163161513700,6.702513671875,-0.021089553833007812,-0.0016201697289943695,0.004350326955318451
1716735163171513600,6.712513671875,-0.0234832763671875,0.0007255673408508301,-0.0003703683614730835
1716735163181513700,6.722513671875,-0.025877952575683594,0.0031232014298439026,0.0020429976284503937
1716735163191513600,6.732513671875,-0.025877952575683594,-0.0017231516540050507,-0.00034162774682044983
1716735163201513700,6.742513671875,-0.025877952575683594,-0.004046432673931122,-0.0003931410610675812
1716735163211513900,6.752513916015625,-0.028270721435546875,-0.004165638238191605,-0.00039327889680862427
1716735163221513700,6.762513671875,-0.02827167510986328,-0.006189236417412758,-0.0029482096433639526
1716735163231513900,6.772513916015625,-0.0234832763671875,-0.0038433782756328583,-0.002880629152059555
1716735163241513700,6.782513671875,-0.021089553833007812,-0.0037626735866069794,-0.00047998130321502686
1716735163251513900,6.792513916015625,-0.0234832763671875,-0.003759559243917465,-0.0028547756373882294
1716735163261513700,6.802513671875,-0.021089553833007812,0.0009711571037769318,-0.0004512108862400055
1716735163271513900,6.812513916015625,-0.021089553833007812,-0.0014840811491012573,-0.0004611164331436157
1716735163281513700,6.822513671875,-0.021089553833007812,-0.0015228241682052612,-0.0004546642303466797
1716735163291513900,6.832513916015625,-0.021089553833007812,0.0008745342493057251,-0.0052236877381801605
1716735163301513700,6.842513671875,-0.0234832763671875,0.003278549760580063,-0.007679201662540436
1716735163311513900,6.852513916015625,-0.023482322692871094,0.0008165016770362854,-0.005333255976438522
1716735163321513700,6.862513671875,-0.023482322692871094,0.0032202526926994324,-0.005394350737333298
1716735163331513900,6.872513916015625,-0.023482322692871094,0.0032234154641628265,-0.0029807724058628082
1716735163341513700,6.882513671875,-0.023482322692871094,0.0008484609425067902,-0.0029839277267456055
1716735163351513900,6.892513916015625,-0.023482322692871094,-0.001532863825559616,-0.0030258074402809143
1716735163361513700,6.902513671875,-0.023482322692871094,-0.0015329085290431976,-0.005419984459877014
1716735163371513900,6.912513916015625,-0.021087646484375,-0.003975488245487213,-0.007865779101848602
1716735163381513700,6.922513671875,-0.021087646484375,-0.006369715556502342,-0.007865708321332932
1716735163391513900,6.932513916015625,-0.023484230041503906,-0.00866728276014328,-0.005010534077882767
1716735163401513700,6.942513671875,-0.021093368530273438,-0.008371002972126007,-0.006936971098184586
1716735163411513900,6.952513916015625,-0.021093368530273438,-0.008409865200519562,-0.004536192864179611
1716735163421513700,6.962513671875,-0.02588176727294922,-0.00601564534008503,-0.004536263644695282
1716735163431513900,6.972513916015625,-0.02588176727294922,-0.003679536283016205,-0.0021324045956134796
1716735163441513700,6.982513671875,-0.02348804473876953,-0.001333765685558319,0.0003295503556728363
1716735163451513900,6.992513916015625,-0.025884628295898438,-0.003357570618391037,-0.0017483048141002655
1716735163461513700,7.002513671875,-0.023492813110351562,-0.0004928633570671082,0.0009654611349105835
1716735163471513900,7.012513916015625,-0.02349567413330078,0.004740267992019653,0.0012495294213294983
1716735163481513700,7.022513671875,-0.02589130401611328,0.004752952605485916,-0.0010671243071556091
1716735163491513900,7.032513916015625,-0.02589130401611328,0.002368226647377014,-0.0010089240968227386
1716735163501513700,7.042513671875,-0.023496627807617188,0.00003532692790031433,-0.0009992383420467377
1716735163511513600,7.052513671875,-0.023496627807617188,-0.0023493506014347076,-0.003454592078924179
1716735163521513700,7.062513671875,-0.021104812622070312,0.00243208184838295,-0.002896629273891449
1716735163531513600,7.072513671875,-0.023499488830566406,0.0024931803345680237,-0.0004925578832626343
1716735163541513700,7.082513671875,-0.025893211364746094,0.00016680359840393066,-0.002957753837108612
1716735163551513600,7.092513671875,-0.0258941650390625,0.00011848658323287964,-0.005284331738948822
1716735163561513700,7.102513671875,-0.023499488830566406,-0.0022726617753505707,-0.002870626747608185
1716735163571513600,7.112513671875,-0.0258941650390625,-0.004724839702248573,0.0019273124635219574
1716735163581513700,7.122513671875,-0.023499488830566406,-0.004715161398053169,0.0019853338599205017
1716735163591513600,7.132513671875,-0.021104812622070312,-0.00477292574942112,-0.0005187131464481354
1716735163601513700,7.142513671875,-0.021104812622070312,-0.002298027276992798,-0.0005122646689414978
1716735163611513600,7.152513671875,-0.02110767364501953,-0.001843467354774475,-0.00028957799077033997
1716735163621513700,7.162513671875,-0.02350139617919922,0.0006119720637798309,-0.0002797916531562805
1716735163631513600,7.172513671875,-0.023502349853515625,-0.004163520410656929,-0.00020249933004379272
1716735163641513700,7.182513671875,-0.02110767364501953,-0.0018885321915149689,-0.0025968290865421295
1716735163651513600,7.192513671875,-0.018712997436523438,-0.004340825602412224,-0.0025871731340885162
1716735163661513700,7.202513671875,-0.018712997436523438,-0.0019271820783615112,-0.002590436488389969
1716735163671513600,7.212513671875,-0.042654991149902344,0.0028547048568725586,-0.00023487582802772522
1716735163681513700,7.222513671875,-0.01871013641357422,-0.0000067390501499176025,-0.005323510617017746
1716735163691513600,7.232513671875,-0.021103858947753906,0.0021616220474243164,-0.0029712244868278503
1716735163701513700,7.242513671875,-0.028287887573242188,-0.0024754852056503296,0.002130068838596344
1716735163711513600,7.252513671875,-0.040259361267089844,-0.00714455172419548,-0.002777528017759323
1716735163721513700,7.262513671875,-0.03307628631591797,-0.009577438235282898,-0.0002576485276222229
1716735163731513600,7.272513671875,-0.030683517456054688,-0.009454973042011261,0.0021560005843639374
1716735163741513700,7.282513671875,-0.037868499755859375,-0.0040700677782297134,0.0022755973041057587
1716735163751513600,7.292513671875,-0.03786945343017578,0.0011986009776592255,0.004689615219831467
1716735163761513700,7.302513671875,-0.02589893341064453,0.0035539790987968445,0.0045769065618515015
1716735163771513600,7.312513671875,-0.023504257202148438,0.003966830670833588,0.001915372908115387
1716735163781513700,7.322513671875,-0.0330810546875,-0.003225395455956459,0.001976579427719116
1716735163791513600,7.332513671875,-0.037868499755859375,-0.007774926722049713,0.0014995522797107697
1716735163801513700,7.342513671875,-0.025897979736328125,-0.005367923527956009,-0.0032114312052726746
1716735163811513600,7.352513671875,-0.021109580993652344,-0.003041563555598259,-0.0032596997916698456
1716735163821513700,7.362513671875,-0.033080101013183594,-0.0005763210356235504,-0.005705542862415314
1716735163831513600,7.372513671875,-0.03547477722167969,0.0018274933099746704,-0.0032532215118408203
1716735163841513700,7.382513671875,-0.028291702270507812,0.004292476922273636,-0.0009104646742343903
1716735163851513600,7.392513671875,-0.023505210876464844,0.004298713058233261,-0.0005138851702213287
1716735163861513700,7.402513671875,-0.02589893341064453,-0.0005993209779262543,0.0018190070986747742
1716735163871513600,7.412513671875,-0.02829265594482422,-0.002993682399392128,0.004213351756334305
1716735163881513700,7.422513671875,-0.02589893341064453,-0.005375005304813385,0.0017772652208805084
1716735163891513600,7.432513671875,-0.023504257202148438,-0.0029709991067647934,0.0017159581184387207
1716735163901513700,7.442513671875,-0.02589893341064453,0.0018885023891925812,0.004177752882242203
1716735163911513600,7.452513671875,-0.030687332153320312,0.004282768815755844,0.004177656024694443
1716735163921513700,7.462513671875,-0.02589893341064453,0.0042957887053489685,0.004135698080062866
1716735163931513600,7.472513671875,-0.021109580993652344,0.004176575690507889,0.004135575145483017
1716735163941513700,7.482513671875,-0.023504257202148438,0.0018436796963214874,0.004145260900259018
1716735163951513600,7.492513671875,-0.02589893341064453,-0.00046996399760246277,0.004151787608861923
1716735163961513700,7.502513671875,-0.028291702270507812,-0.0029768552631139755,0.0038325227797031403
1716735163971513600,7.512513671875,-0.02110767364501953,-0.0006793253123760223,0.001096617430448532
1716735163981513700,7.522513671875,-0.02110576629638672,-0.0006695687770843506,0.000677548348903656
1716735163991513600,7.532513671875,-0.023499488830566406,0.00418032705783844,-0.0017070621252059937
1716735164001513700,7.542513671875,-0.023499488830566406,0.008991364389657974,-0.004085224121809006
1716735164011513600,7.552513671875,-0.02110576629638672,0.008881650865077972,-0.006421435624361038
1716735164021513700,7.562513671875,-0.018711090087890625,0.006538901478052139,-0.001681216061115265
1716735164031513600,7.572513671875,-0.021104812622070312,0.006209768354892731,-0.0016264431178569794
1716735164041513700,7.582513671875,-0.021104812622070312,0.0062098391354084015,-0.0016265399754047394
1716735164051513600,7.592513671875,-0.0211029052734375,0.005590666085481644,-0.0015236884355545044
1716735164061513700,7.602513671875,-0.0211029052734375,0.00565849244594574,0.000799521803855896
1716735164071513600,7.612513671875,-0.023497581481933594,0.005719728767871857,0.000809304416179657
1716735164081513700,7.622513671875,-0.023497581481933594,0.005732465535402298,0.0007674992084503174
1716735164091513600,7.632513671875,-0.018707275390625,0.002796553075313568,0.0032516121864318848
1716735164101513700,7.642513671875,-0.018705368041992188,0.0022645406424999237,0.0031610168516635895
1716735164111513600,7.652513671875,-0.02110004425048828,0.0022839829325675964,0.0007635504007339478
1716735164121513700,7.662513671875,-0.02349376678466797,-0.0001684240996837616,0.0007733404636383057
1716735164131513600,7.672513671875,-0.02110004425048828,-0.002559460699558258,0.003186918795108795
1716735164141513700,7.682513671875,-0.02110004425048828,-0.002421002835035324,-0.0016045160591602325
1716735164151513600,7.692513671875,-0.02349376678466797,-0.0024792104959487915,-0.001594729721546173
1716735164161513700,7.702513671875,-0.02349376678466797,-0.00008505210280418396,-0.003988906741142273
1716735164171513600,7.712513671875,-0.02110004425048828,0.002251032739877701,-0.006373368203639984
1716735164181513700,7.722513671875,-0.02109813690185547,-0.00024002417922019958,-0.006476510316133499
1716735164191513600,7.732513671875,-0.018703460693359375,-0.00024970993399620056,-0.006534527987241745
1716735164201513700,7.742513671875,-0.018703460693359375,-0.0002270527184009552,-0.011306844651699066
1716735164211513600,7.752513671875,-0.016309738159179688,0.0020383037626743317,-0.011365018784999847
1716735164221513700,7.762513671875,-0.018707275390625,0.004312634468078613,-0.0033473409712314606
1716735164231513600,7.772513671875,-0.021101951599121094,0.006719779223203659,-0.0032700039446353912
1716735164241513700,7.782513671875,-0.023496627807617188,0.006570965051651001,-0.0004533641040325165
1716735164251513600,7.792513671875,-0.023496627807617188,0.004118695855140686,-0.00044365227222442627
1716735164261513700,7.802513671875,-0.02589130401611328,0.004060603678226471,-0.002828191965818405
1716735164271513600,7.812513671875,-0.030679702758789062,0.004012264311313629,0.002027798444032669
1716735164281513700,7.822513671875,-0.028284072875976562,0.0014505162835121155,0.0019760429859161377
1716735164291513600,7.832513671875,-0.023494720458984375,-0.0014338009059429169,0.004531107842922211
1716735164301513700,7.842513671875,-0.025888442993164062,-0.0015402249991893768,0.004489149898290634
1716735164311513600,7.852513671875,-0.023494720458984375,-0.0015983916819095612,0.004618119448423386
1716735164321513700,7.862513671875,-0.023494720458984375,0.0031479448080062866,0.004605349153280258
1716735164331513600,7.872513671875,-0.02110004425048828,0.005484011024236679,0.002220839262008667
1716735164341513700,7.882513671875,-0.02109813690185547,0.0051681846380233765,0.0018756650388240814
1716735164351513600,7.892513671875,-0.023491859436035156,0.007581964135169983,0.0018723122775554657
1716735164361513700,7.902513671875,-0.023491859436035156,0.00524897500872612,-0.0005121491849422455
1716735164371513600,7.912513671875,-0.02349090576171875,0.0052007101476192474,0.0018303282558918
1716735164381513700,7.922513671875,-0.02349090576171875,0.0026999711990356445,0.001788504421710968
1716735164391513600,7.932513671875,-0.025885581970214844,0.005152169615030289,0.004173099994659424
1716735164401513700,7.942513671875,-0.025885581970214844,0.0028288885951042175,0.0041215792298316956
1716735164411513600,7.952513671875,-0.02588367462158203,0.002422656863927841,0.001556340605020523
1716735164421513700,7.962513671875,-0.025882720947265625,-0.000029638409614562988,-0.0008281916379928589
1716735164431513600,7.972513671875,-0.02827739715576172,-0.0023561306297779083,-0.0008990615606307983
1716735164441513700,7.982513671875,-0.028276443481445312,-0.0024045854806900024,-0.0008313469588756561
1716735164451513600,7.992513671875,-0.02588367462158203,-0.0023434869945049286,0.00157272070646286
1716735164461513700,8.002513671875,-0.02109241485595703,-0.0002521909773349762,0.0011856406927108765
1716735164471513600,8.012513671875,-0.02109241485595703,-0.00017470121383666992,0.003566935658454895
1716735164481513700,8.022513671875,-0.02109241485595703,-0.0001715347170829773,0.0035863108932971954
1716735164491513600,8.032513671875,-0.02109241485595703,-0.0001618713140487671,0.008313484489917755
1716735164501513700,8.042513671875,-0.02109241485595703,-0.0026238225400447845,0.00587097555398941
1716735164511513600,8.052513671875,-0.021091461181640625,-0.005114559084177017,0.005886849015951157
1716735164521513700,8.062513671875,-0.02109050750732422,-0.007366536185145378,0.0030315443873405457
1716735164531513600,8.072513671875,-0.021089553833007812,-0.007101891562342644,0.002590041607618332
1716735164541513700,8.082513671875,-0.021089553833007812,-0.00487532839179039,0.002657543867826462
1716735164551513600,8.092513671875,-0.021089553833007812,-0.0024716556072235107,0.002715751528739929
1716735164561513700,8.102513671875,-0.021089553833007812,-0.0024009905755519867,-0.0021239519119262695
1716735164571513600,8.112513671875,-0.0234832763671875,-0.00006488710641860962,-0.0045084841549396515
1716735164581513700,8.122513671875,-0.023482322692871094,-0.00244942307472229,-0.0045697130262851715
1716735164591513600,8.132513671875,-0.0234832763671875,-0.004791814833879471,-0.004618160426616669
1716735164601513700,8.142513671875,-0.0234832763671875,-0.004662808030843735,-0.002165950834751129
1716735164611513600,8.152513671875,-0.021089553833007812,-0.0022460632026195526,-0.0021497346460819244
1716735164621513700,8.162513671875,-0.021089553833007812,0.002542290836572647,0.0002444945275783539
1716735164631513600,8.172513671875,-0.0234832763671875,0.00016096234321594238,0.002596810460090637
1716735164641513700,8.182513671875,-0.02827167510986328,0.00015142187476158142,0.002538710832595825
1716735164651513600,8.192513671875,-0.02827167510986328,-0.0021622180938720703,0.00733364000916481
1716735164661513700,8.202513671875,-0.0234832763671875,0.0003609396517276764,0.00487828254699707
1716735164671513600,8.212513671875,-0.0234832763671875,-0.002091396600008011,0.002493772655725479
1716735164681513700,8.222513671875,-0.023484230041503906,-0.0044146813452243805,-0.0023461468517780304
1716735164691513600,8.232513671875,-0.02587890625,0.00037676841020584106,-0.0023266375064849854
1716735164701513700,8.242513671875,-0.013904571533203125,-0.00010027363896369934,-0.002446278929710388
1716735164711513600,8.252513671875,-0.0043277740478515625,-0.0001488029956817627,-0.00010358542203903198
1716735164721513700,8.262513671875,-0.011510848999023438,-0.005043677985668182,0.002368014305830002
1716735164731513600,8.272513671875,-0.04263496398925781,-0.004795409739017487,0.004701126366853714
1716735164741513700,8.282513671875,-0.033059120178222656,-0.004705213010311127,0.007159899920225143
1716735164751513600,8.292513671875,-0.009116172790527344,-0.004882298409938812,0.007169250398874283
1716735164761513700,8.302513671875,-0.011510848999023438,-0.002007506787776947,0.004436798393726349
1716735164771513600,8.312513671875,-0.0234832763671875,-0.001943156123161316,0.004585187882184982
1716735164781513700,8.322513671875,-0.0234832763671875,0.0005895271897315979,0.004582203924655914
1716735164791513600,8.332513671875,-0.009116172790527344,0.0008027367293834686,0.0016753971576690674
1716735164801513700,8.342513671875,-0.006722450256347656,-0.0015785880386829376,-0.0007606931030750275
1716735164811513600,8.352513671875,-0.023481369018554688,-0.006238030269742012,-0.0008218511939048767
1716735164821513700,8.362513671875,-0.02587604522705078,-0.008599866181612015,-0.003261227160692215
1716735164831513600,8.372513671875,-0.013904571533203125,-0.003931079059839249,0.001527346670627594
1716735164841513700,8.382513671875,-0.011511802673339844,-0.0009595751762390137,0.0014115013182163239
1716735164851513600,8.392513671875,-0.025879859924316406,-0.00033711642026901245,-0.0010662227869033813
1716735164861513700,8.402513671875,-0.02587890625,0.004461139440536499,0.0036608465015888214
1716735164871513600,8.412513671875,-0.018695831298828125,0.004354838281869888,0.001224566251039505
1716735164881513700,8.422513671875,-0.01869487762451172,0.0042551010847091675,0.0012211017310619354
1716735164891513600,8.432513671875,-0.02827167510986328,-0.0005910992622375488,0.0012306049466133118
1716735164901513700,8.442513671875,-0.025877952575683594,-0.0030240491032600403,0.0012370571494102478
1716735164911513600,8.452513671875,-0.01869487762451172,-0.005405375733971596,0.003589373081922531
1716735164921513700,8.462513671875,-0.013904571533203125,-0.0028111040592193604,0.003238063305616379
1716735164931513600,8.472513671875,-0.023481369018554688,-0.0004751160740852356,0.0008536577224731445
1716735164941513700,8.482513671875,-0.02826976776123047,0.002212684601545334,0.002861127257347107
1716735164951513600,8.492513671875,-0.021086692810058594,0.002106253057718277,0.002819173038005829
1716735164961513700,8.502513671875,-0.016298294067382812,-0.0026724860072135925,0.0027579404413700104
1716735164971513600,8.512513671875,-0.021087646484375,-0.002530675381422043,0.0027741752564907074
1716735164981513700,8.522513671875,-0.02348041534423828,-0.0026403144001960754,0.0028321929275989532
1716735164991513600,8.532513671875,-0.016298294067382812,0.002090122550725937,-0.0019466690719127655
1716735165001513700,8.542513671875,-0.013903617858886719,0.004445645958185196,0.00033469125628471375
1716735165011513600,8.552513671875,-0.021086692810058594,0.0044681839644908905,0.00035089626908302307
1716735165021513700,8.562513671875,-0.025875091552734375,0.001967601478099823,0.0028223171830177307
1716735165031513600,8.572513671875,-0.02348041534423828,0.001909509301185608,0.002831980586051941
1716735165041513700,8.582513671875,-0.0186920166015625,0.001870911568403244,0.00044415518641471863
1716735165051513600,8.592513671875,-0.021085739135742188,0.0019418299198150635,0.00039263442158699036
1716735165061513700,8.602513671875,-0.025875091552734375,0.001951415091753006,0.00045070424675941467
1716735165071513600,8.612513671875,-0.021087646484375,0.0019837170839309692,-0.0018693692982196808
1716735165081513700,8.622513671875,-0.01629924774169922,0.002054564654827118,-0.004195787012577057
1716735165091513600,8.632513671875,-0.018692970275878906,-0.0003879442811012268,-0.006522361189126968
1716735165101513700,8.642513671875,-0.021087646484375,0.004403475672006607,-0.001714508980512619
1716735165111513600,8.652513671875,-0.021087646484375,0.0015962198376655579,-0.0038411691784858704
1716735165121513700,8.662513671875,-0.0186920166015625,0.003893699496984482,-0.001550178974866867
1716735165131513600,8.672513671875,-0.021086692810058594,0.0039645470678806305,0.0007926039397716522
1716735165141513700,8.682513671875,-0.023481369018554688,0.0016508959233760834,0.0007991231977939606
1716735165151513600,8.692513671875,-0.006720542907714844,-0.0013462826609611511,-0.003789767622947693
1716735165161513700,8.702513671875,-0.0067195892333984375,0.005716975778341293,-0.013366617262363434
1716735165171513600,8.712513671875,-0.02347850799560547,0.02004358172416687,-0.006177641451358795
1716735165181513700,8.722513671875,-0.045027732849121094,0.005868595093488693,0.010530315339565277
1716735165191513600,8.732513671875,-0.01629638671875,-0.004153270274400711,0.008210044354200363
1716735165201513700,8.742513671875,-0.009113311767578125,-0.0017978139221668243,-0.013331320136785507
1716735165211513600,8.752513671875,-0.025873184204101562,0.010185997933149338,-0.008465498685836792
1716735165221513700,8.762513671875,-0.02108478546142578,-0.0017140917479991913,0.005848195403814316
1716735165231513600,8.772513671875,-0.018690109252929688,0.012612394988536835,-0.003722105175256729
1716735165241513700,8.782513671875,-0.004324913024902344,0.01016009971499443,-0.0013182386755943298
1716735165251513600,8.792513671875,-0.013899803161621094,0.00950542464852333,-0.008372221142053604
1716735165261513700,8.802513671875,-0.033054351806640625,-0.004837151616811752,-0.010750394314527512
1716735165271513600,8.812513671875,-0.009112358093261719,-0.017272893339395523,-0.0079210065305233
1716735165281513700,8.822513671875,-0.01629638671875,0.001890033483505249,-0.002597317099571228
1716735165291513600,8.832513671875,-0.018690109252929688,-0.007731912657618523,0.002158891409635544
1716735165301513700,8.842513671875,-0.02347850799560547,-0.017289303243160248,0.011732377111911774
1716735165311513600,8.852513671875,-0.0019311904907226562,0.023424997925758362,0.009296298027038574
1716735165321513700,8.862513671875,-0.011507987976074219,0.01863657310605049,0.006902169436216354
1716735165331513600,8.872513671875,-0.016297340393066406,0.0066882409155368805,-0.0050528384745121
1716735165341513700,8.882513671875,-0.02587413787841797,-0.0028692632913589478,-0.002661820501089096
1716735165351513600,8.892513671875,-0.025873184204101562,-0.007712667807936668,-0.005026869475841522
1716735165361513700,8.902513671875,-0.009114265441894531,0.009127307683229446,-0.00023194029927253723
1716735165371513600,8.912513671875,-0.021086692810058594,-0.007561253383755684,0.016595255583524704
1716735165381513700,8.922513671875,-0.023479461669921875,-0.0076613109558820724,-0.0026807859539985657
1716735165391513600,8.932513671875,-0.004324913024902344,-0.005324989557266235,-0.017155714333057404
1716735165401513700,8.942513671875,-0.025873184204101562,0.011457052081823349,0.009196534752845764
1716735165411513600,8.952513671875,-0.02347850799560547,0.006739716976881027,-0.00043187662959098816
1716735165421513700,8.962513671875,-0.013899803161621094,0.006272312253713608,-0.0028876662254333496
1716735165431513600,8.972513671875,-0.028264999389648438,0.003829844295978546,0.016214217990636826
1716735165441513700,8.982513671875,-0.016294479370117188,-0.015301259234547615,0.0018651746213436127
1716735165451513600,8.992513671875,-0.013898849487304688,-0.005821209400892258,0.011458124965429306
1716735165461513700,9.002513671875,-0.021081924438476562,0.0013711042702198029,-0.0004549473524093628
1716735165471513600,9.012513671875,-0.01629161834716797,-0.015262087807059288,-0.0010127797722816467
1716735165481513700,9.022513671875,-0.009108543395996094,0.008573617786169052,0.006127737462520599
1716735165491513600,9.032513671875,-0.018685340881347656,-0.001051492989063263,-0.015352452173829079
1716735165501513700,9.042513671875,0.005255699157714844,-0.005707796663045883,-0.008092358708381653
1716735165511513600,9.052513671875,-0.023474693298339844,-0.008021557703614235,-0.008085697889328003
1716735165521513700,9.062513671875,-0.00193023681640625,-0.0029302649199962616,0.013729948550462723
1716735165531513600,9.072513671875,-0.009112358093261719,0.00906989723443985,0.004088610410690308
1716735165541513700,9.082513671875,-0.016294479370117188,0.007020909339189529,-0.015500063076615334
1716735165551513600,9.092513671875,-0.0139007568359375,0.007033713161945343,0.00851937010884285
1716735165561513700,9.102513671875,-0.009112358093261719,-0.014433400705456734,0.003737404942512512
1716735165571513600,9.112513671875,-0.021083831787109375,-0.002462439239025116,0.01331423968076706
1716735165581513700,9.122513671875,-0.016295433044433594,-0.000045727938413619995,-0.0034290067851543427
1716735165591513600,9.132513671875,-0.009110450744628906,0.024167712777853012,0.012807995080947876
1716735165601513700,9.142513671875,-0.01629352569580078,0.00029676035046577454,0.0031795762479305267
1716735165611513600,9.152513671875,-0.004322052001953125,-0.004420727491378784,0.003128059208393097
1716735165621513700,9.162513671875,-0.025867462158203125,-0.011948157101869583,0.0003338567912578583
1716735165631513600,9.172513671875,-0.016290664672851562,0.0024299249053001404,-0.009284824132919312
1716735165641513700,9.182513671875,-0.021079063415527344,0.011968068778514862,0.0004176497459411621
1716735165651513600,9.192513671875,-0.013894081115722656,0.009119115769863129,-0.0020798295736312866
1716735165661513700,9.202513671875,-0.14557552337646484,0.03308042883872986,0.026647400110960007
1716735165671513600,9.212513671875,0.06272602081298828,0.013091988861560822,-0.03141040354967117
1716735165681513700,9.222513671875,0.0100555419921875,-0.004638161510229111,0.007157471030950546
1716735165691513600,9.232513671875,-0.02585601806640625,-0.023898262530565262,0.009390562772750854
1716735165701513700,9.242513671875,-0.10965442657470703,-0.021242862567305565,0.0023434683680534363
1716735165711513600,9.252513671875,0.017236709594726562,-0.03548860922455788,0.01682785153388977
1716735165721513700,9.262513671875,0.01963043212890625,0.012988928705453873,-0.00976608693599701
1716735165731513600,9.272513671875,-0.02346515655517578,0.017809562385082245,-0.00729764997959137
1716735165741513700,9.282513671875,-0.06895637512207031,0.0012404955923557281,0.023775383830070496
1716735165751513600,9.292513671875,-0.00670623779296875,-0.001082584261894226,-0.010152868926525116
1716735165761513700,9.302513671875,0.038784027099609375,-0.005790121853351593,-0.014934919774532318
1716735165771513600,9.312513671875,-0.016283035278320312,-0.015463599935173988,-0.024495771154761314
1716735165781513700,9.322513671875,-0.05219841003417969,-0.005487155169248581,-0.009640280157327652
1716735165791513600,9.332513671875,0.00047016143798828125,-0.0027576610445976257,0.014762841165065765
1716735165801513700,9.342513671875,0.017226219177246094,-0.019027138128876686,-0.004193764179944992
1716735165811513600,9.352513671875,-0.02108287811279297,0.007705714553594589,-0.008869137614965439
1716735165821513700,9.362513671875,-0.04023933410644531,0.027265310287475586,-0.006065163761377335
1716735165831513600,9.372513671875,-0.013902664184570312,-0.0015620514750480652,0.0059220194816589355
1716735165841513700,9.382513671875,0.02919292449951172,0.0007834918797016144,0.01065903902053833
1716735165851513600,9.392513671875,-0.011507034301757812,0.0027166716754436493,0.0033343657851219177
1716735165861513700,9.402513671875,-0.04263114929199219,0.00039365142583847046,0.008071035146713257
1716735165871513600,9.412513671875,-0.01868915557861328,-0.004310928285121918,0.0009142756462097168
1716735165881513700,9.422513671875,0.010041236877441406,-0.01871488429605961,0.02725694328546524
1716735165891513600,9.432513671875,-0.006716728210449219,-0.006421273574233055,0.012321371585130692
1716735165901513700,9.442513671875,-0.042629241943359375,0.022380061447620392,0.012269847095012665
1716735165911513600,9.452513671875,-0.037837982177734375,0.019912131130695343,-0.026601742953062057
1716735165921513700,9.462513671875,0.019622802734375,0.015065908432006836,0.0021381229162216187
1716735165931513600,9.472513671875,-0.009104728698730469,-0.00459400936961174,-0.0028245337307453156
1716735165941513700,9.482513671875,-0.04022979736328125,-0.016484461724758148,0.013941407203674316
1716735165951513600,9.492513671875,-0.02107715606689453,-0.0020579174160957336,-0.0028084032237529755
1716735165961513700,9.502513671875,-0.001922607421875,-0.004490841180086136,0.011563308537006378
1716735165971513600,9.512513671875,-0.011499404907226562,0.005037426948547363,0.0019349902868270874
1716735165981513700,9.522513671875,-0.033046722412109375,0.014627255499362946,0.006681434810161591
1716735165991513600,9.532513671875,-0.02347087860107422,0.019505854696035385,-0.00043660402297973633
1716735166001513700,9.542513671875,-0.01389312744140625,0.00981283187866211,0.0019770078361034393
1716735166011513600,9.552513671875,0.012447357177734375,-0.014970725402235985,-0.012785173952579498
1716735166021513700,9.562513671875,-0.011494636535644531,-0.0029803887009620667,-0.015182510018348694
1716735166031513600,9.572513671875,-0.028253555297851562,-0.0005154311656951904,-0.008051343262195587
1716735166041513700,9.582513671875,0.005263328552246094,0.004082605242729187,0.0067232027649879456
1716735166051513600,9.592513671875,-0.006707191467285156,0.01840934157371521,0.009123638272285461
1716735166061513700,9.602513671875,-0.03782939910888672,-0.008455684408545494,-0.0005243830382823944
1716735166071513600,9.612513671875,-0.021068572998046875,0.0054614730179309845,-0.0005891881883144379
1716735166081513700,9.622513671875,-0.009097099304199219,0.010194994509220123,-0.000560171902179718
1716735166091513600,9.632513671875,0.014845848083496094,-0.0161894541233778,0.006570756435394287
1716735166101513700,9.642513671875,-0.030645370483398438,-0.008916812017560005,0.0042412132024765015
1716735166111513600,9.652513671875,-0.030645370483398438,-0.004118721932172775,-0.010185178369283676
1716735166121513700,9.662513671875,-0.018672943115234375,-0.004176691174507141,-0.005387239158153534
1716735166131513600,9.672513671875,-0.011491775512695312,0.005422499030828476,-0.007765140384435654
1716735166141513700,9.682513671875,-0.016280174255371094,0.0054320283234119415,0.0017505735158920288
1716735166151513600,9.692513671875,-0.011491775512695312,-0.006464853882789612,-0.010252606123685837
1716735166161513700,9.702513671875,-0.0019178390502929688,0.010490931570529938,0.014153871685266495
1716735166171513600,9.712513671875,0.000476837158203125,-0.006249181926250458,-0.016973940655589104
1716735166181513700,9.722513671875,-0.00910186767578125,-0.0014385953545570374,-0.009417124092578888
1716735166191513600,9.732513671875,-0.01868152618408203,-0.013300597667694092,0.024640493094921112
1716735166201513700,9.742513671875,0.0028657913208007812,-0.010502956807613373,-0.009084690362215042
1716735166211513900,9.752513916015625,-0.01389312744140625,-0.0010456591844558716,0.002886362373828888
1716735166221513700,9.762513671875,-0.006711006164550781,0.0013195350766181946,0.01240842416882515
1716735166231513900,9.772513916015624,-0.016287803649902344,0.0013905689120292664,0.007568359375
1716735166241513700,9.782513671875,-0.009104728698730469,0.0013936124742031097,0.0075878724455833435
1716735166251513900,9.792513916015626,-0.004314422607421875,-0.008018402382731438,0.02150815725326538
1716735166261513700,9.802513671875,-0.0019197463989257812,-0.0032783858478069305,0.011879760771989822
1716735166271513900,9.812513916015625,-0.023468017578125,-0.000932641327381134,-0.0024177394807338715
1716735166281513700,9.822513671875,-0.011494636535644531,-0.005478724837303162,0.01364528015255928
1716735166291513900,9.832513916015625,-0.02346324920654297,0.011487428098917007,0.003517109900712967
1716735166301513700,9.842513671875,-0.0019140243530273438,0.0067801885306835175,-0.006530635058879852
1716735166311513900,9.852513916015624,-0.013885498046875,0.002133462578058243,-0.011302672326564789
1716735166321513700,9.862513671875,-0.009095191955566406,0.0018370561301708221,-0.013926029205322266
1716735166331513900,9.872513916015626,0.010058403015136719,-0.010443907231092453,0.005637075752019882
1716735166341513700,9.882513671875,-0.025855064392089844,-0.0008478052914142609,0.0008454844355583191
1716735166351513900,9.892513916015625,-0.01627826690673828,-0.0032901056110858917,-0.0016005262732505798
1716735166361513700,9.902513671875,-0.004306793212890625,0.003895815461874008,0.005601368844509125
1716735166371513900,9.912513916015625,0.010058403015136719,0.008713152259588242,-0.003920581191778183
1716735166381513700,9.922513671875,-0.018672943115234375,0.015960179269313812,0.005685310810804367
1716735166391513900,9.932513916015624,-0.009096145629882812,0.004008594900369644,0.005681987851858139
1716735166401513700,9.942513671875,-0.023461341857910156,0.02311362326145172,-0.006221164017915726
1716735166411513900,9.952513916015626,-0.021065711975097656,0.01297573372721672,-0.011035654693841934
1716735166421513700,9.962513671875,-0.0019102096557617188,0.005331933498382568,-0.0037565454840660095
1716735166431513900,9.972513916015625,-0.02106189727783203,-0.002298913896083832,-0.0013076923787593842
1716735166441513700,9.982513671875,-0.02106189727783203,-0.0003433413803577423,-0.003589257597923279
1716735166451513900,9.992513916015625,-0.0043010711669921875,0.006384305655956268,0.011030606925487518
1716735166461513700,10.002513671875,0.00048732757568359375,-0.0008562728762626648,0.006251726299524307
1716735166471513900,10.012513916015624,-0.018663406372070312,0.0011286437511444092,-0.0035156123340129852
1716735166481513700,10.022513671875,-0.011481285095214844,-0.001184847205877304,-0.013085983693599701
1716735166491513900,10.032513916015626,-0.011481285095214844,0.00355500727891922,-0.0011664628982543945
1716735166501513700,10.042513671875,-0.013875961303710938,-0.0059412457048892975,-0.005948338657617569
1716735166511513600,10.052513671875,-0.013875007629394531,-0.01078786887228489,0.0012440793216228485
1716735166521513700,10.062513671875,-0.013875007629394531,0.008375603705644608,-0.005999874323606491
1716735166531513600,10.072513671875,-0.01148223876953125,0.00585535541176796,0.0040154047310352325
1716735166541513700,10.082513671875,-0.01627063751220703,0.00343211367726326,-0.0008277967572212219
1716735166551513600,10.092513671875,-0.011481285095214844,0.019662395119667053,0.004247467964887619
1716735166561513700,10.102513671875,-0.016269683837890625,0.010046962648630142,0.016224786639213562
1716735166571513600,10.112513671875,-0.011481285095214844,0.0028771013021469116,0.004212051630020142
1716735166581513700,10.122513671875,-0.011481285095214844,-0.006757926195859909,0.0018276646733283997
1716735166591513600,10.132513671875,-0.004298210144042969,-0.006806377321481705,0.009077992290258408
1716735166601513700,10.142513671875,-0.013873100280761719,0.005100172013044357,-0.010462403297424316
1716735166611513600,10.152513671875,-0.00669097900390625,0.002648003399372101,0.003912333399057388
1716735166621513700,10.162513671875,-0.011479377746582031,0.00979185476899147,0.008707195520401001
1716735166631513600,10.172513671875,-0.018657684326171875,0.0022193752229213715,-0.008365258574485779
1716735166641513700,10.182513671875,-0.02105236053466797,-0.00016517192125320435,0.0035445280373096466
1716735166651513600,10.192513671875,-0.006683349609375,-0.010393023490905762,-0.01114998385310173
1716735166661513700,10.202513671875,-0.004288673400878906,0.0039724186062812805,0.0008208043873310089
1716735166671513600,10.212513671875,-0.016260147094726562,-0.019879402592778206,-0.0039030276238918304
1716735166681513700,10.222513671875,0.14175701141357422,0.01843101903796196,-0.03500821441411972
1716735166691513600,10.232513671875,0.06274890899658203,-0.0035844966769218445,-0.017952417954802513
1716735166701513700,10.242513671875,-0.0018978118896484375,0.008463587611913681,-0.0004901625216007233
1716735166711513600,10.252513671875,-0.0426025390625,-0.025313539430499077,-0.002046234905719757
1716735166721513700,10.262513671875,-0.07612419128417969,-0.020138299092650414,-0.008935332298278809
1716735166731513600,10.272513671875,0.05076408386230469,-0.007593568414449692,0.013193130493164062
1716735166741513700,10.282513671875,0.012453079223632812,-0.009513888508081436,0.01568758115172386
1716735166751513600,10.292513671875,-0.059375762939453125,0.044035591185092926,0.0012164823710918427
1716735166761513700,10.302513671875,-0.04501056671142578,0.02249724790453911,0.010851509869098663
1716735166771513600,10.312513671875,0.019636154174804688,0.012407828122377396,0.005850046873092651
1716735166781513700,10.322513671875,-0.004302024841308594,0.0022732168436050415,-0.011035382747650146
1716735166791513600,10.332513671875,-0.052184104919433594,-0.0031182952225208282,0.0008967891335487366
1716735166801513700,10.342513671875,-0.045001983642578125,-0.02465336211025715,0.008037671446800232
1716735166811513600,10.352513671875,0.007670402526855469,-0.019861673936247826,-0.008702520281076431
1716735166821513700,10.362513671875,-0.0019054412841796875,0.0016957931220531464,-0.0015811361372470856
1716735166831513600,10.372513671875,-0.040213584899902344,0.006506741046905518,-0.011141717433929443
1716735166841513700,10.382513671875,-0.033031463623046875,0.011433865875005722,0.017585426568984985
1716735166851513600,10.392513671875,0.01245880126953125,0.009110577404499054,0.005562897771596909
1716735166861513700,10.402513671875,0.010065078735351562,-0.00787448137998581,0.010428499430418015
1716735166871513600,10.412513671875,-0.018665313720703125,-0.0006723739206790924,0.005636781454086304
1716735166881513700,10.422513671875,-0.040213584899902344,-0.007842052727937698,0.012896668165922165
1716735166891513600,10.432513671875,0.00048732757568359375,-0.017396319657564163,0.0033360756933689117
1716735166901513700,10.442513671875,0.012457847595214844,-0.0005756989121437073,-0.0014425888657569885
1716735166911513600,10.452513671875,-0.016272544860839844,0.002257220447063446,0.014846332371234894
1716735166921513700,10.462513671875,-0.03303050994873047,0.02135273814201355,0.01006760448217392
1716735166931513600,10.472513671875,-0.016269683837890625,0.002034902572631836,0.011952299624681473
1716735166941513700,10.482513671875,0.010071754455566406,0.0017836503684520721,0.0042149946093559265
1716735166951513600,10.492513671875,-0.021053314208984375,-0.010174617171287537,0.001779068261384964
1716735166961513700,10.502513671875,-0.035416603088378906,-0.024500930681824684,-0.020252350717782974
1716735166971513600,10.512513671875,-0.009079933166503906,-0.010171536356210709,-0.0010726749897003174
1716735166981513700,10.522513671875,0.0028886795043945312,0.002218671143054962,0.02048509195446968
1716735166991513600,10.532513671875,-0.0138702392578125,0.009704489260911942,-0.0037856288254261017
1716735167001513700,10.542513671875,-0.018657684326171875,0.012050297111272812,0.003345392644405365
1716735167011513600,10.552513671875,-0.0138702392578125,0.009736809879541397,0.008140221238136292
1716735167021513700,10.562513671875,0.005283355712890625,0.009678713977336884,0.0009672902524471283
1716735167031513600,10.572513671875,-0.02105236053466797,-0.031061625108122826,0.01773325726389885
1716735167041513700,10.582513671875,-0.042598724365234375,-0.018810035660862923,-0.00906694307923317
1716735167051513600,10.592513671875,-0.013867378234863281,-0.014069866389036179,-0.013907022774219513
1716735167061513700,10.602513671875,0.0028905868530273438,0.002579960972070694,0.007698655128479004
1716735167071513600,10.612513671875,-0.011474609375,-0.018945181742310524,0.00771472230553627
1716735167081513700,10.622513671875,-0.028234481811523438,0.0007760152220726013,-0.006824299693107605
1716735167091513600,10.632513671875,-0.01865863800048828,-0.010817727074027061,0.0026302002370357513
1716735167101513700,10.642513671875,0.0028867721557617188,0.013598449528217316,0.002491738647222519
1716735167111513600,10.652513671875,-0.016265869140625,-0.01039195992052555,-0.0047424547374248505
1716735167121513700,10.662513671875,-0.025841712951660156,-0.012844257056713104,-0.004732780158519745
1716735167131513600,10.672513671875,-0.025844573974609375,-0.009898623451590538,0.014508124440908432
1716735167141513700,10.682513671875,0.0004901885986328125,0.0025784969329833984,-0.009617302566766739
1716735167151513600,10.692513671875,-0.018663406372070312,0.0025916211307048798,-0.002357449382543564
1716735167161513700,10.702513671875,-0.02105998992919922,0.000632893294095993,-0.0022510215640068054
1716735167171513600,10.712513671875,-0.013878822326660156,0.010612793266773224,-0.011676214635372162
1716735167181513700,10.722513671875,-0.0066967010498046875,-0.001396961510181427,0.0026954524219036102
1716735167191513600,10.732513671875,-0.0066967010498046875,-0.001442205160856247,0.002782519906759262
1716735167201513700,10.742513671875,-0.016274452209472656,-0.00615953654050827,0.0027309097349643707
1716735167211513600,10.752513671875,-0.018668174743652344,-0.003745749592781067,-0.009243514388799667
1716735167221513700,10.762513671875,-0.023459434509277344,0.02490384504199028,0.005711659789085388
1716735167231513600,10.772513671875,-0.013882637023925781,0.012945707887411118,0.0008813738822937012
1716735167241513700,10.782513671875,-0.02824687957763672,0.0056563206017017365,-0.02298305556178093
1716735167251513600,10.792513671875,-0.023459434509277344,-0.00667576864361763,-0.001097068190574646
1716735167261513700,10.802513671875,-0.009093284606933594,0.012300442904233932,-0.0010874606668949127
1716735167271513600,10.812513671875,-0.013881683349609375,0.009545192122459412,-0.0031434446573257446
1716735167281513700,10.822513671875,-0.004303932189941406,0.023426644504070282,-0.019584018737077713
1716735167291513600,10.832513671875,-0.006699562072753906,0.006257619708776474,-0.0024186111986637115
1716735167301513700,10.842513671875,-0.009093284606933594,-0.020610734820365906,-0.004426240921020508
1716735167311513600,10.852513671875,-0.013881683349609375,0.0058672986924648285,-0.004410009831190109
1716735167321513700,10.862513671875,-0.0114898681640625,-0.008698128163814545,0.015214283019304276
1716735167331513600,10.872513671875,-0.02824878692626953,-0.013486582785844803,0.005637511610984802
1716735167341513700,10.882513671875,0.00048160552978515625,-0.015919536352157593,0.005643971264362335
1716735167351513600,10.892513671875,-0.013884544372558594,-0.010653907433152199,0.010313358157873154
1716735167361513700,10.902513671875,-0.018672943115234375,0.004011448472738266,-0.011463318020105362
1716735167371513600,10.912513671875,-0.0043087005615234375,-0.007869143038988113,-0.001941334456205368
1716735167381513700,10.922513671875,-0.004307746887207031,0.0016590580344200134,-0.013844538480043411
1716735167391513600,10.932513671875,-0.013884544372558594,0.011177916079759598,-0.006652351468801498
1716735167401513700,10.942513671875,-0.028252601623535156,0.004204496741294861,0.008135542273521423
1716735167411513600,10.952513671875,-0.023464202880859375,0.009005773812532425,-0.0014831461012363434
1716735167421513700,10.962513671875,-0.0019168853759765625,0.011419117450714111,0.01766737550497055
1716735167431513600,10.972513671875,-0.009098052978515625,-0.0053886473178863525,0.017615843564271927
1716735167441513700,10.982513671875,-0.013882637023925781,-0.008014693856239319,-0.004609186202287674
1716735167451513600,10.992513671875,-0.023459434509277344,-0.005597982555627823,-0.006987225264310837
1716735167461513700,11.002513671875,-0.00909423828125,-0.0008097551763057709,0.002589758485555649
1716735167471513600,11.012513671875,-0.013882637023925781,0.011241994798183441,-0.009494174271821976
1716735167481513700,11.022513671875,-0.03303718566894531,-0.0006484575569629669,0.021636970341205597
1716735167491513600,11.032513671875,-0.025855064392089844,0.004081878811120987,-0.004689525812864304
1716735167501513700,11.042513671875,-0.01627826690673828,-0.0031362585723400116,0.007307291030883789
1716735167511513600,11.052513671875,-0.004306793212890625,-0.0007227063179016113,0.007304076105356216
1716735167521513700,11.062513671875,-0.021063804626464844,-0.008011680096387863,-0.005066629499197006
1716735167531513600,11.072513671875,-0.016275405883789062,-0.012729175388813019,0.018823858350515366
1716735167541513700,11.082513671875,-0.009092330932617188,0.003971986472606659,0.016439426690340042
1716735167551513600,11.092513671875,-0.02106189727783203,0.011306516826152802,-0.017601730301976204
1716735167561513700,11.102513671875,-0.013879776000976562,0.028188548982143402,-0.010399777442216873
1716735167571513600,11.112513671875,-0.009088516235351562,-0.0011290162801742554,0.0039041340351104736
1716735167581513700,11.122513671875,-0.01866626739501953,-0.015461791306734085,0.0063723064959049225
1716735167591513600,11.132513671875,-0.009089469909667969,0.0060862526297569275,0.013554703444242477
1716735167601513700,11.142513671875,-0.016272544860839844,-0.008198242634534836,-0.0008040778338909149
1716735167611513600,11.152513671875,-0.016272544860839844,-0.0034484341740608215,-0.0007977113127708435
1716735167621513700,11.162513671875,-0.01387786865234375,-0.005720168352127075,0.004010133445262909
1716735167631513600,11.172513671875,-0.02345561981201172,-0.005758855491876602,0.0017415434122085571
1716735167641513700,11.182513671875,-0.17428970336914062,0.011010080575942993,0.0016804635524749756
1716735167651513600,11.192513671875,-0.030635833740234375,0.030105840414762497,-0.001062002032995224
1716735167661513700,11.202513671875,0.09386634826660156,-0.0016990415751934052,-0.0037209242582321167
1716735167671513600,11.212513671875,0.060347557067871094,0.0005890429019927979,-0.00615726038813591
1716735167681513700,11.222513671875,-0.05936241149902344,-0.03776663914322853,0.008275669068098068
1716735167691513600,11.232513671875,-0.0928812026977539,-0.023321157321333885,-0.0012943744659423828
1716735167701513700,11.242513671875,0.0076732635498046875,0.00823565199971199,0.01782715693116188
1716735167711513600,11.252513671875,0.05076885223388672,0.02769903838634491,0.005566000938415527
1716735167721513700,11.262513671875,-0.03302764892578125,0.020597264170646667,0.015149090439081192
1716735167731513600,11.272513671875,-0.08090591430664062,0.003387071192264557,0.00010313838720321655
1716735167741513700,11.282513671875,0.010075569152832031,0.0007804706692695618,-0.007402230054140091
1716735167751513600,11.292513671875,0.026834487915039062,0.003136269748210907,-0.009790245443582535
1716735167761513700,11.302513671875,-0.040203094482421875,0.0008226893842220306,0.009250588715076447
1716735167771513600,11.312513671875,-0.0545654296875,-0.025884419679641724,-0.0053113289177417755
1716735167781513700,11.322513671875,0.010077476501464844,-0.009102337062358856,0.011464156210422516
1716735167791513600,11.332513671875,0.022047996520996094,-0.0015651248395442963,-0.00555289164185524
1716735167801513700,11.342513671875,-0.03780555725097656,0.0056303441524505615,-0.005594771355390549
1716735167811513600,11.352513671875,-0.049777984619140625,0.01767236366868019,-0.0007386840879917145
1716735167821513700,11.362513671875,-0.0018939971923828125,0.012845370918512344,0.001661885529756546
1716735167831513600,11.372513671875,0.02683734893798828,-0.004020478576421738,0.0016199424862861633
1716735167841513700,11.382513671875,-0.02344036102294922,-0.013587497174739838,0.015923775732517242
1716735167851513600,11.392513671875,-0.04498863220214844,-0.013574469834566116,-0.012848615646362305
1716735167861513700,11.402513671875,-0.013864517211914062,-0.011041508987545967,0.013484392315149307
1716735167871513600,11.412513671875,-0.013864517211914062,-0.010960659012198448,0.013490673154592514
1716735167881513700,11.422513671875,-0.023441314697265625,0.020115207880735397,-0.005594979971647263
1716735167891513600,11.432513671875,-0.06174945831298828,0.0034978240728378296,-0.0031846724450588226
1716735167901513700,11.442513671875,-0.03541374206542969,0.010683424770832062,-0.015136200934648514
1716735167911513600,11.452513671875,0.014865875244140625,-0.013416614383459091,-0.010341357439756393
1716735167921513700,11.462513671875,-0.016259193420410156,-0.008676670491695404,-0.003091033548116684
1716735167931513600,11.472513671875,-0.0354156494140625,-0.013346083462238312,0.0021746717393398285
1716735167941513700,11.482513671875,-0.03541851043701172,0.0013992562890052795,0.007218129932880402
1716735167951513600,11.492513671875,0.0076751708984375,0.006600566208362579,-0.01423938199877739
1716735167961513700,11.502513671875,-0.009083747863769531,0.023243997246026993,-0.002249147742986679
1716735167971513600,11.512513671875,-0.03781414031982422,0.011234402656555176,0.002545621246099472
1716735167981513700,11.522513671875,-0.021053314208984375,0.00116734579205513,0.014677610248327255
1716735167991513600,11.532513671875,0.0028886795043945312,-0.0013334229588508606,0.009847410023212433
1716735168001513700,11.542513671875,0.007678031921386719,-0.0013815239071846008,0.00021877512335777283
1716735168011513600,11.552513671875,-0.03302288055419922,-0.008554767817258835,-0.002236410975456238
1716735168021513700,11.562513671875,-0.04260063171386719,-0.01332065835595131,0.012144964188337326
1716735168031513600,11.572513671875,0.0028886795043945312,0.0034385696053504944,-0.0046142712235450745
1716735168041513700,11.582513671875,-0.004291534423828125,0.012967165559530258,0.002516571432352066
1716735168051513600,11.592513671875,-0.035416603088378906,0.001008894294500351,0.009657442569732666
1716735168061513700,11.602513671875,-0.033023834228515625,0.008281692862510681,0.004933610558509827
1716735168071513600,11.612513671875,0.005284309387207031,-0.001411091536283493,0.02171224355697632
1716735168081513700,11.622513671875,-0.011472702026367188,0.0008414462208747864,-0.00032895058393478394
1716735168091513600,11.632513671875,-0.025836944580078125,-0.0279889814555645,-0.007514793425798416
1716735168101513700,11.642513671875,-0.028230667114257812,-0.027966413646936417,-0.0028295330703258514
1716735168111513600,11.652513671875,-0.0018978118896484375,-0.007877785712480545,0.0017241649329662323
1716735168121513700,11.662513671875,-0.009081840515136719,-0.007255487143993378,-0.0223013274371624
1716735168131513600,11.672513671875,-0.025844573974609375,-0.0019513629376888275,-0.007703658193349838
1716735168141513700,11.682513671875,-0.03781890869140625,0.0033623352646827698,0.004557956010103226
1716735168151513600,11.692513671875,-0.023453712463378906,-0.006143786013126373,-0.004950985312461853
1716735168161513700,11.702513671875,-0.013878822326660156,-0.005757004022598267,-0.014353442937135696
1716735168171513600,11.712513671875,-0.023459434509277344,-0.022168580442667007,0.005219686776399612
1716735168181513700,11.722513671875,-0.033039093017578125,0.0022440440952777863,0.017390873283147812
1716735168191513600,11.732513671875,-0.009097099304199219,-0.002593100070953369,-0.006483204662799835
1716735168201513700,11.742513671875,-0.0067043304443359375,0.023813970386981964,-0.0016270317137241364
1716735168211513600,11.752513671875,-0.02825164794921875,0.016653817147016525,0.0056910403072834015
1716735168221513700,11.762513671875,-0.02346324920654297,0.007038287818431854,0.010485954582691193
1716735168231513600,11.772513671875,-0.04022407531738281,-0.009659789502620697,0.005707144737243652
1716735168241513700,11.782513671875,-0.013883590698242188,-0.00038268789649009705,-0.0018431060016155243
1716735168251513600,11.792513671875,-0.006701469421386719,0.002021290361881256,0.0028839297592639923
1716735168261513700,11.802513671875,-0.02824878692626953,-0.00046970322728157043,-0.001888372004032135
1716735168271513600,11.812513671875,-0.016279220581054688,0.011523805558681488,-0.004147138446569443
1716735168281513700,11.822513671875,-0.00909423828125,-0.008148891851305962,0.0005088783800601959
1716735168291513600,11.832513671875,-0.02585315704345703,0.008571617305278778,0.005303829908370972
1716735168301513700,11.842513671875,-0.013882637023925781,-0.0033286698162555695,0.00297754630446434
1716735168311513600,11.852513671875,-0.018671035766601562,0.008713115006685257,0.010108761489391327
1716735168321513700,11.862513671875,-0.0019092559814453125,0.01078822836279869,-0.0070151276886463165
1716735168331513600,11.872513671875,-0.018667221069335938,-0.015596283599734306,0.01938871666789055
1716735168341513700,11.882513671875,-0.023456573486328125,0.0060222819447517395,-0.011787347495555878
1716735168351513600,11.892513671875,-0.009091377258300781,-0.001141030341386795,-0.0022137239575386047
1716735168361513700,11.902513671875,-0.013878822326660156,0.010713998228311539,0.007382310926914215
1716735168371513600,11.912513671875,-0.011485099792480469,-0.0036287009716033936,-0.009360935539007187
1716735168381513700,11.922513671875,-0.035427093505859375,0.00589965283870697,-0.014081623405218124
1716735168391513600,11.932513671875,-0.011486053466796875,0.01041395589709282,-0.011423211544752121
1716735168401513700,11.942513671875,-0.01627349853515625,0.003182966262102127,-0.009080596268177032
1716735168411513600,11.952513671875,-0.009090423583984375,-0.008836442604660988,-0.009132187813520432
1716735168421513700,11.962513671875,-0.013878822326660156,-0.006419569253921509,0.0004606954753398895
1716735168431513600,11.972513671875,-0.011485099792480469,0.007955159991979599,0.005188010632991791
1716735168441513200,11.98251318359375,-0.011485099792480469,-0.0160354133695364,0.0028615854680538177
1716735168451513300,11.992513427734375,-0.006697654724121094,-0.003980480134487152,-0.011477846652269363
1716735168461513200,12.00251318359375,-0.021062850952148438,0.00326349213719368,-0.006679795682430267
1716735168471513300,12.012513427734374,-0.013879776000976562,-0.01114046573638916,0.019662879407405853
