time,seconds_elapsed,z,y,x
1716735156858948900,0.399948974609375,9.794978141784668,0.05267243832349777,0.019153613597154617
1716735156868949000,0.409948974609375,9.775824546813965,0.0454898327589035,0.0454898327589035
1716735156878948900,0.419948974609375,9.787796020507812,0.031124621629714966,0.040701430290937424
1716735156888949000,0.429948974609375,9.792584419250488,0.05506663769483566,0.05985504388809204
1716735156898948900,0.439948974609375,9.787796020507812,0.038307227194309235,0.0694318488240242
1716735156908949000,0.449948974609375,9.792584419250488,0.035913024097681046,0.0454898327589035
1716735156918948900,0.459948974609375,9.799766540527344,0.033518824726343155,0.05746084079146385
1716735156928949000,0.469948974609375,9.799766540527344,0.035913024097681046,0.05985504388809204
1716735156938948900,0.479948974609375,9.785401344299316,0.028730420395731926,0.05746084079146385
1716735156948949000,0.489948974609375,9.775824546813965,0.038307227194309235,0.07422025501728058
1716735156958948900,0.499948974609375,9.787796020507812,0.047884032130241394,0.06703764945268631
1716735156968949000,0.509948974609375,9.80216121673584,0.043095629662275314,0.021547814831137657
1716735156978948900,0.519948974609375,9.785401344299316,0.05267243832349777,0.05985504388809204
1716735156988949000,0.529948974609375,9.787796020507812,0.040701430290937424,0.0454898327589035
1716735156998948900,0.539948974609375,9.792584419250488,0.035913024097681046,0.047884032130241394
1716735157008949000,0.549948974609375,9.787796020507812,0.05027823522686958,0.021547814831137657
1716735157018948900,0.559948974609375,9.792584419250488,0.040701430290937424,0.035913024097681046
1716735157028949000,0.569948974609375,9.790189743041992,0.035913024097681046,0.047884032130241394
1716735157038948900,0.579948974609375,9.783007621765137,0.0454898327589035,0.033518824726343155
1716735157048949000,0.589948974609375,9.799766540527344,0.05746084079146385,0.043095629662275314
1716735157058948900,0.599948974609375,9.790189743041992,0.033518824726343155,0.031124621629714966
1716735157068949000,0.609948974609375,9.787796020507812,0.031124621629714966,0.05506663769483566
1716735157078948900,0.619948974609375,9.783007621765137,0.05267243832349777,0.035913024097681046
1716735157088949000,0.629948974609375,9.799766540527344,0.038307227194309235,0.0694318488240242
1716735157098948900,0.639948974609375,9.792584419250488,0.023942016065120697,0.05746084079146385
1716735157108949000,0.649948974609375,9.783007621765137,0.035913024097681046,0.047884032130241394
1716735157118948900,0.659948974609375,9.794978141784668,0.031124621629714966,0.06224924325942993
1716735157128949000,0.669948974609375,9.797372817993164,0.026336219161748886,0.05506663769483566
1716735157138948900,0.679948974609375,9.787796020507812,0.038307227194309235,0.05027823522686958
1716735157148949000,0.689948974609375,9.792584419250488,0.031124621629714966,0.05985504388809204
1716735157158948900,0.699948974609375,9.790189743041992,0.033518824726343155,0.05985504388809204
1716735157168949000,0.709948974609375,9.794978141784668,0.028730420395731926,0.05746084079146385
1716735157178948900,0.719948974609375,9.790189743041992,0.0454898327589035,0.038307227194309235
1716735157188949000,0.729948974609375,9.792584419250488,0.040701430290937424,0.040701430290937424
1716735157198948900,0.739948974609375,9.787796020507812,0.047884032130241394,0.033518824726343155
1716735157208949000,0.749948974609375,9.794978141784668,0.047884032130241394,0.040701430290937424
1716735157218948900,0.759948974609375,9.797372817993164,0.047884032130241394,0.031124621629714966
1716735157228949000,0.769948974609375,9.80455493927002,0.043095629662275314,0.016759412363171577
1716735157238948900,0.779948974609375,9.787796020507812,0.035913024097681046,0.040701430290937424
1716735157248949000,0.789948974609375,9.790189743041992,0.028730420395731926,0.033518824726343155
1716735157258948900,0.799948974609375,9.783007621765137,0.035913024097681046,0.038307227194309235
1716735157268949000,0.809948974609375,9.794978141784668,0.038307227194309235,0.05985504388809204
1716735157278948900,0.819948974609375,9.794978141784668,0.043095629662275314,0.040701430290937424
1716735157288949000,0.829948974609375,9.773430824279785,0.031124621629714966,0.05985504388809204
1716735157298948900,0.839948974609375,9.792584419250488,0.035913024097681046,0.05746084079146385
1716735157308949000,0.849948974609375,9.80455493927002,0.05267243832349777,0.05985504388809204
1716735157318948900,0.859948974609375,9.785401344299316,0.043095629662275314,0.05267243832349777
1716735157328949000,0.869948974609375,9.790189743041992,0.031124621629714966,0.040701430290937424
1716735157338948900,0.879948974609375,9.80216121673584,0.043095629662275314,0.05267243832349777
1716735157348949000,0.889948974609375,9.80455493927002,0.040701430290937424,0.05746084079146385
1716735157358948900,0.899948974609375,9.806949615478516,0.043095629662275314,0.021547814831137657
1716735157368949000,0.909948974609375,9.787796020507812,0.047884032130241394,0.05506663769483566
1716735157378948900,0.919948974609375,9.797372817993164,0.047884032130241394,0.038307227194309235
1716735157388949000,0.929948974609375,9.78061294555664,0.047884032130241394,0.05267243832349777
1716735157398948900,0.939948974609375,9.792584419250488,0.043095629662275314,0.026336219161748886
1716735157408949000,0.949948974609375,9.797372817993164,0.040701430290937424,0.028730420395731926
1716735157418948900,0.959948974609375,9.797372817993164,0.038307227194309235,0.05506663769483566
1716735157428949000,0.969948974609375,9.778219223022461,0.033518824726343155,0.040701430290937424
1716735157438948900,0.979948974609375,9.790189743041992,0.033518824726343155,0.047884032130241394
1716735157448949000,0.989948974609375,9.799766540527344,0.026336219161748886,0.047884032130241394
1716735157458948900,0.999948974609375,9.783007621765137,0.038307227194309235,0.06464344263076782
1716735157468949000,1.009948974609375,9.794978141784668,0.019153613597154617,0.047884032130241394
1716735157478948900,1.019948974609375,9.794978141784668,0.031124621629714966,0.038307227194309235
1716735157488949000,1.029948974609375,9.794978141784668,0.021547814831137657,0.06703764945268631
1716735157498948900,1.039948974609375,9.794978141784668,0.026336219161748886,0.07900865375995636
1716735157508949000,1.049948974609375,9.794978141784668,0.043095629662275314,0.06224924325942993
1716735157518948900,1.059948974609375,9.785401344299316,0.026336219161748886,0.0454898327589035
1716735157528949000,1.069948974609375,9.790189743041992,0.05267243832349777,0.026336219161748886
1716735157538948900,1.079948974609375,9.799766540527344,0.047884032130241394,0.05027823522686958
1716735157548949000,1.089948974609375,9.785401344299316,0.0454898327589035,0.05027823522686958
1716735157558948900,1.099948974609375,9.814131736755371,0.05027823522686958,0.05027823522686958
1716735157568949000,1.109948974609375,9.809343338012695,0.043095629662275314,0.038307227194309235
1716735157578948900,1.119948974609375,9.792584419250488,0.05506663769483566,0.040701430290937424
1716735157588949000,1.129948974609375,9.80216121673584,0.035913024097681046,0.031124621629714966
1716735157598948900,1.139948974609375,9.797372817993164,0.043095629662275314,0.05027823522686958
1716735157608949000,1.149948974609375,9.794978141784668,0.026336219161748886,0.043095629662275314
1716735157618948900,1.159948974609375,9.787796020507812,0.031124621629714966,0.038307227194309235
1716735157628949000,1.169948974609375,9.792584419250488,0.035913024097681046,0.0454898327589035
1716735157638948900,1.179948974609375,9.80455493927002,0.040701430290937424,0.0454898327589035
1716735157648949000,1.189948974609375,9.790189743041992,0.035913024097681046,0.043095629662275314
1716735157658948900,1.199948974609375,9.792584419250488,0.040701430290937424,0.05027823522686958
1716735157668949000,1.209948974609375,9.797372817993164,0.040701430290937424,0.05267243832349777
1716735157678948900,1.219948974609375,9.794978141784668,0.031124621629714966,0.047884032130241394
1716735157688949000,1.229948974609375,9.794978141784668,0.038307227194309235,0.0454898327589035
1716735157698948900,1.239948974609375,9.785401344299316,0.033518824726343155,0.05027823522686958
1716735157708949000,1.249948974609375,9.778219223022461,0.040701430290937424,0.035913024097681046
1716735157718948900,1.259948974609375,9.78061294555664,0.035913024097681046,0.047884032130241394
1716735157728949000,1.269948974609375,9.814131736755371,0.047884032130241394,0.05506663769483566
1716735157738948900,1.279948974609375,9.799766540527344,0.026336219161748886,0.05985504388809204
1716735157748949000,1.289948974609375,9.797372817993164,0.047884032130241394,0.047884032130241394
1716735157758948900,1.299948974609375,9.739912033081055,0.047884032130241394,0.040701430290937424
1716735157768949200,1.30994921875,9.847650527954102,0.05027823522686958,0.033518824726343155
1716735157778949000,1.31994921875,9.83568000793457,0.035913024097681046,0.040701430290937424
1716735157788949200,1.32994921875,9.749488830566406,0.019153613597154617,0.035913024097681046
1716735157798949000,1.33994921875,9.766247749328613,0.031124621629714966,0.038307227194309235
1716735157808949200,1.34994921875,9.850045204162598,0.014365210197865963,0.0454898327589035
1716735157818949000,1.35994921875,9.818920135498047,0.031124621629714966,0.047884032130241394
1716735157828949200,1.36994921875,9.761459350585938,0.05985504388809204,0.043095629662275314
1716735157838949000,1.37994921875,9.754277229309082,0.033518824726343155,0.06224924325942993
1716735157848949200,1.38994921875,9.821314811706543,0.05985504388809204,0.05027823522686958
1716735157858949000,1.39994921875,9.826103210449219,0.047884032130241394,0.06464344263076782
1716735157868949200,1.40994921875,9.785401344299316,0.05027823522686958,0.05506663769483566
1716735157878949000,1.41994921875,9.771036148071289,0.035913024097681046,0.05506663769483566
1716735157888949200,1.42994921875,9.830891609191895,0.035913024097681046,0.047884032130241394
1716735157898949000,1.43994921875,9.828496932983398,0.031124621629714966,0.06224924325942993
1716735157908949200,1.44994921875,9.773430824279785,0.043095629662275314,0.031124621629714966
1716735157918949000,1.45994921875,9.78061294555664,0.05027823522686958,0.0454898327589035
1716735157928949200,1.46994921875,9.821314811706543,0.05027823522686958,0.05267243832349777
1716735157938949000,1.47994921875,9.821314811706543,0.05027823522686958,0.040701430290937424
1716735157948949200,1.48994921875,9.790189743041992,0.038307227194309235,0.05027823522686958
1716735157958949000,1.49994921875,9.766247749328613,0.021547814831137657,0.035913024097681046
1716735157968949200,1.50994921875,9.80216121673584,0.033518824726343155,0.0454898327589035
1716735157978949000,1.51994921875,9.814131736755371,0.026336219161748886,0.05027823522686958
1716735157988949200,1.52994921875,9.785401344299316,0.033518824726343155,0.05985504388809204
1716735157998949000,1.53994921875,9.76864242553711,0.05027823522686958,0.038307227194309235
1716735158008949200,1.54994921875,9.80455493927002,0.05027823522686958,0.05027823522686958
1716735158018949000,1.55994921875,9.818920135498047,0.05506663769483566,0.05027823522686958
1716735158028949200,1.56994921875,9.792584419250488,0.038307227194309235,0.05506663769483566
1716735158038949000,1.57994921875,9.775824546813965,0.028730420395731926,0.047884032130241394
1716735158048949200,1.58994921875,9.806949615478516,0.035913024097681046,0.0454898327589035
1716735158058949000,1.59994921875,9.821314811706543,0.026336219161748886,0.05027823522686958
1716735158068949000,1.609948974609375,9.794978141784668,0.05027823522686958,0.05267243832349777
1716735158078948900,1.619948974609375,9.785401344299316,0.047884032130241394,0.05506663769483566
1716735158088949000,1.629948974609375,9.806949615478516,0.05027823522686958,0.033518824726343155
1716735158098948900,1.639948974609375,9.799766540527344,0.043095629662275314,0.0454898327589035
1716735158111513600,1.652513671875,9.797372817993164,0.035913024097681046,0.033518824726343155
1716735158121513700,1.662513671875,9.778219223022461,0.05027823522686958,0.043095629662275314
1716735158131513600,1.672513671875,9.792584419250488,0.0454898327589035,0.05027823522686958
1716735158141513700,1.682513671875,9.806949615478516,0.033518824726343155,0.047884032130241394
1716735158151513600,1.692513671875,9.794978141784668,0.040701430290937424,0.043095629662275314
1716735158161513700,1.702513671875,9.794978141784668,0.028730420395731926,0.033518824726343155
1716735158171513600,1.712513671875,9.790189743041992,0.043095629662275314,0.035913024097681046
1716735158181513700,1.722513671875,9.80455493927002,0.0454898327589035,0.043095629662275314
1716735158191513600,1.732513671875,9.794978141784668,0.035913024097681046,0.040701430290937424
1716735158201513700,1.742513671875,9.778219223022461,0.038307227194309235,0.0454898327589035
1716735158211513900,1.752513916015625,9.80216121673584,0.033518824726343155,0.047884032130241394
1716735158221513700,1.762513671875,9.797372817993164,0.047884032130241394,0.0694318488240242
1716735158231513900,1.772513916015625,9.806949615478516,0.038307227194309235,0.05506663769483566
1716735158241513700,1.782513671875,9.80216121673584,0.040701430290937424,0.043095629662275314
1716735158251513900,1.792513916015625,9.787796020507812,0.040701430290937424,0.05506663769483566
1716735158261513700,1.802513671875,9.792584419250488,0.043095629662275314,0.05506663769483566
1716735158271513900,1.812513916015625,9.794978141784668,0.035913024097681046,0.038307227194309235
1716735158281513700,1.822513671875,9.785401344299316,0.0454898327589035,0.038307227194309235
1716735158291513900,1.832513916015625,9.792584419250488,0.033518824726343155,0.043095629662275314
1716735158301513700,1.842513671875,9.794978141784668,0.043095629662275314,0.031124621629714966
1716735158311513900,1.852513916015625,9.792584419250488,0.05506663769483566,0.035913024097681046
1716735158321513700,1.862513671875,9.80455493927002,0.0454898327589035,0.038307227194309235
1716735158331513900,1.872513916015625,9.806949615478516,0.043095629662275314,0.040701430290937424
1716735158341513700,1.882513671875,9.797372817993164,0.043095629662275314,0.031124621629714966
1716735158351513900,1.892513916015625,9.80216121673584,0.043095629662275314,0.040701430290937424
1716735158361513700,1.902513671875,9.785401344299316,0.035913024097681046,0.05506663769483566
1716735158371513900,1.912513916015625,9.794978141784668,0.033518824726343155,0.047884032130241394
1716735158381513700,1.922513671875,9.794978141784668,0.05746084079146385,0.047884032130241394
1716735158391513900,1.932513916015625,9.797372817993164,0.038307227194309235,0.05027823522686958
1716735158401513700,1.942513671875,9.790189743041992,0.033518824726343155,0.040701430290937424
1716735158411513900,1.952513916015625,9.80455493927002,0.040701430290937424,0.06464344263076782
1716735158421513700,1.962513671875,9.80216121673584,0.031124621629714966,0.0454898327589035
1716735158431513900,1.972513916015625,9.80216121673584,0.035913024097681046,0.06224924325942993
1716735158441513700,1.982513671875,9.790189743041992,0.043095629662275314,0.038307227194309235
1716735158451513900,1.992513916015625,9.797372817993164,0.038307227194309235,0.05985504388809204
1716735158461513700,2.002513671875,9.806949615478516,0.0454898327589035,0.05267243832349777
1716735158471513900,2.012513916015625,9.794978141784668,0.038307227194309235,0.043095629662275314
1716735158481513700,2.022513671875,9.794978141784668,0.047884032130241394,0.031124621629714966
1716735158491513900,2.032513916015625,9.787796020507812,0.047884032130241394,0.033518824726343155
1716735158501513700,2.042513671875,9.80455493927002,0.0454898327589035,0.047884032130241394
1716735158511513600,2.052513671875,9.797372817993164,0.028730420395731926,0.038307227194309235
1716735158521513700,2.062513671875,9.797372817993164,0.047884032130241394,0.035913024097681046
1716735158531513600,2.072513671875,9.785401344299316,0.043095629662275314,0.047884032130241394
1716735158541513700,2.082513671875,9.806949615478516,0.035913024097681046,0.047884032130241394
1716735158551513600,2.092513671875,9.785401344299316,0.040701430290937424,0.05746084079146385
1716735158561513700,2.102513671875,9.787796020507812,0.047884032130241394,0.05985504388809204
1716735158571513600,2.112513671875,9.797372817993164,0.05027823522686958,0.05506663769483566
1716735158581513700,2.122513671875,9.794978141784668,0.043095629662275314,0.05027823522686958
1716735158591513600,2.132513671875,9.78061294555664,0.028730420395731926,0.05267243832349777
1716735158601513700,2.142513671875,9.80455493927002,0.033518824726343155,0.06703764945268631
1716735158611513600,2.152513671875,9.792584419250488,0.031124621629714966,0.05985504388809204
1716735158621513700,2.162513671875,9.797372817993164,0.028730420395731926,0.0454898327589035
1716735158631513600,2.172513671875,9.792584419250488,0.043095629662275314,0.05027823522686958
1716735158641513700,2.182513671875,9.799766540527344,0.047884032130241394,0.047884032130241394
1716735158651513600,2.192513671875,9.790189743041992,0.040701430290937424,0.05506663769483566
1716735158661513700,2.202513671875,9.792584419250488,0.040701430290937424,0.05267243832349777
1716735158671513600,2.212513671875,9.80455493927002,0.033518824726343155,0.038307227194309235
1716735158681513700,2.222513671875,9.797372817993164,0.043095629662275314,0.0454898327589035
1716735158691513600,2.232513671875,9.778219223022461,0.035913024097681046,0.028730420395731926
1716735158701513700,2.242513671875,9.80216121673584,0.031124621629714966,0.05506663769483566
1716735158711513600,2.252513671875,9.783007621765137,0.043095629662275314,0.0454898327589035
1716735158721513700,2.262513671875,9.790189743041992,0.047884032130241394,0.035913024097681046
1716735158731513600,2.272513671875,9.797372817993164,0.047884032130241394,0.05985504388809204
1716735158741513700,2.282513671875,9.78061294555664,0.038307227194309235,0.05267243832349777
1716735158751513600,2.292513671875,9.797372817993164,0.043095629662275314,0.05267243832349777
1716735158761513700,2.302513671875,9.80216121673584,0.033518824726343155,0.05985504388809204
1716735158771513600,2.312513671875,9.80216121673584,0.0454898327589035,0.06703764945268631
1716735158781513700,2.322513671875,9.792584419250488,0.035913024097681046,0.038307227194309235
1716735158791513600,2.332513671875,9.790189743041992,0.043095629662275314,0.05985504388809204
1716735158801513700,2.342513671875,9.773430824279785,0.031124621629714966,0.06224924325942993
1716735158811513600,2.352513671875,9.792584419250488,0.033518824726343155,0.05746084079146385
1716735158821513700,2.362513671875,9.792584419250488,0.031124621629714966,0.05506663769483566
1716735158831513600,2.372513671875,9.794978141784668,0.040701430290937424,0.05746084079146385
1716735158841513700,2.382513671875,9.78061294555664,0.043095629662275314,0.040701430290937424
1716735158851513600,2.392513671875,9.790189743041992,0.038307227194309235,0.043095629662275314
1716735158861513700,2.402513671875,9.787796020507812,0.021547814831137657,0.040701430290937424
1716735158871513600,2.412513671875,9.799766540527344,0.040701430290937424,0.038307227194309235
1716735158881513700,2.422513671875,9.80216121673584,0.043095629662275314,0.05027823522686958
1716735158891513600,2.432513671875,9.792584419250488,0.038307227194309235,0.031124621629714966
1716735158901513700,2.442513671875,9.627384185791016,0.05985504388809204,0.05746084079146385
1716735158911513600,2.452513671875,9.948206901550293,0.035913024097681046,0.019153613597154617
1716735158921513700,2.462513671875,9.840468406677246,0.033518824726343155,0.06703764945268631
1716735158931513600,2.472513671875,9.718363761901855,-0.004788403399288654,0.06703764945268631
1716735158941513700,2.482513671875,9.65372085571289,0.035913024097681046,0.05985504388809204
1716735158951513600,2.492513671875,9.909899711608887,0.033518824726343155,0.05506663769483566
1716735158961513700,2.502513671875,9.885957717895508,0.05746084079146385,0.05027823522686958
1716735158971513600,2.512513671875,9.742305755615234,0.05746084079146385,0.047884032130241394
1716735158981513700,2.522513671875,9.687239646911621,0.0454898327589035,0.047884032130241394
1716735158991513600,2.532513671875,9.833285331726074,0.047884032130241394,0.043095629662275314
1716735159001513700,2.542513671875,9.905111312866211,0.05506663769483566,0.023942016065120697
1716735159011513600,2.552513671875,9.756670951843262,0.004788403399288654,0.05746084079146385
1716735159021513700,2.562513671875,9.6896333694458,0.021547814831137657,0.043095629662275314
1716735159031513600,2.572513671875,9.814131736755371,0.040701430290937424,0.047884032130241394
1716735159041513700,2.582513671875,9.873987197875977,0.031124621629714966,0.033518824726343155
1716735159051513600,2.592513671875,9.773430824279785,0.05267243832349777,0.033518824726343155
1716735159061513700,2.602513671875,9.715970039367676,0.06224924325942993,0.05746084079146385
1716735159071513600,2.612513671875,9.821314811706543,0.05027823522686958,0.047884032130241394
1716735159081513700,2.622513671875,9.857227325439453,0.038307227194309235,0.047884032130241394
1716735159091513600,2.632513671875,9.778219223022461,0.019153613597154617,0.06224924325942993
1716735159101513700,2.642513671875,9.727940559387207,0.038307227194309235,0.035913024097681046
1716735159111513600,2.652513671875,9.790189743041992,0.035913024097681046,0.05027823522686958
1716735159121513700,2.662513671875,9.862015724182129,0.05267243832349777,0.0454898327589035
1716735159131513600,2.672513671875,9.78061294555664,0.040701430290937424,0.05506663769483566
1716735159141513700,2.682513671875,9.725546836853027,0.026336219161748886,0.06464344263076782
1716735159151513600,2.692513671875,9.783007621765137,0.047884032130241394,0.06224924325942993
1716735159161513700,2.702513671875,9.850045204162598,0.05027823522686958,0.0454898327589035
1716735159171513600,2.712513671875,9.814131736755371,0.031124621629714966,0.038307227194309235
1716735159181513700,2.722513671875,9.737517356872559,0.035913024097681046,0.047884032130241394
1716735159191513600,2.732513671875,9.778219223022461,0.035913024097681046,0.043095629662275314
1716735159201513700,2.742513671875,9.850045204162598,0.06224924325942993,0.028730420395731926
1716735159211513900,2.752513916015625,9.818920135498047,0.047884032130241394,0.035913024097681046
1716735159221513700,2.762513671875,9.759065628051758,0.040701430290937424,0.043095629662275314
1716735159231513900,2.772513916015625,9.76864242553711,0.035913024097681046,0.028730420395731926
1716735159241513700,2.782513671875,9.83807373046875,0.043095629662275314,0.014365210197865963
1716735159251513900,2.792513916015625,9.821314811706543,0.026336219161748886,0.028730420395731926
1716735159261513700,2.802513671875,9.761459350585938,0.031124621629714966,0.047884032130241394
1716735159271513900,2.812513916015625,9.78061294555664,0.05506663769483566,0.047884032130241394
1716735159281513700,2.822513671875,9.809343338012695,0.035913024097681046,0.05506663769483566
1716735159291513900,2.832513916015625,9.809343338012695,0.040701430290937424,0.05506663769483566
1716735159301513700,2.842513671875,9.775824546813965,0.031124621629714966,0.0454898327589035
1716735159311513900,2.852513916015625,9.783007621765137,0.047884032130241394,0.06224924325942993
1716735159321513700,2.862513671875,9.814131736755371,0.040701430290937424,0.035913024097681046
1716735159331513900,2.872513916015625,9.823708534240723,0.038307227194309235,0.06224924325942993
1716735159341513700,2.882513671875,9.78061294555664,0.019153613597154617,0.043095629662275314
1716735159351513900,2.892513916015625,9.78061294555664,0.026336219161748886,0.033518824726343155
1716735159361513700,2.902513671875,9.806949615478516,0.035913024097681046,0.047884032130241394
1716735159371513900,2.912513916015625,9.809343338012695,0.035913024097681046,0.028730420395731926
1716735159381513700,2.922513671875,9.778219223022461,0.035913024097681046,0.05506663769483566
1716735159391513900,2.932513916015625,9.783007621765137,0.0454898327589035,0.05027823522686958
1716735159401513700,2.942513671875,9.80216121673584,0.0454898327589035,0.033518824726343155
1716735159411513900,2.952513916015625,9.806949615478516,0.038307227194309235,0.05267243832349777
1716735159421513700,2.962513671875,9.785401344299316,0.043095629662275314,0.026336219161748886
1716735159431513900,2.972513916015625,9.783007621765137,0.038307227194309235,0.040701430290937424
1716735159441513700,2.982513671875,9.790189743041992,0.038307227194309235,0.047884032130241394
1716735159451513900,2.992513916015625,9.794978141784668,0.05267243832349777,0.0454898327589035
1716735159461513700,3.002513671875,9.783007621765137,0.038307227194309235,0.05267243832349777
1716735159471513900,3.012513916015625,9.783007621765137,0.040701430290937424,0.047884032130241394
1716735159481513700,3.022513671875,9.797372817993164,0.031124621629714966,0.05746084079146385
1716735159491513900,3.032513916015625,9.80455493927002,0.033518824726343155,0.0454898327589035
1716735159501513700,3.042513671875,9.794978141784668,0.026336219161748886,0.047884032130241394
1716735159511513600,3.052513671875,9.790189743041992,0.047884032130241394,0.05746084079146385
1716735159521513700,3.062513671875,9.792584419250488,0.05506663769483566,0.05027823522686958
1716735159531513600,3.072513671875,9.806949615478516,0.047884032130241394,0.05267243832349777
1716735159541513700,3.082513671875,9.80216121673584,0.028730420395731926,0.035913024097681046
1716735159551513600,3.092513671875,9.787796020507812,0.026336219161748886,0.05267243832349777
1716735159561513700,3.102513671875,9.799766540527344,0.047884032130241394,0.05027823522686958
1716735159571513600,3.112513671875,9.806949615478516,0.040701430290937424,0.035913024097681046
1716735159581513700,3.122513671875,9.80455493927002,0.040701430290937424,0.047884032130241394
1716735159591513600,3.132513671875,9.783007621765137,0.0454898327589035,0.040701430290937424
1716735159601513700,3.142513671875,9.80216121673584,0.0454898327589035,0.026336219161748886
1716735159611513600,3.152513671875,9.785401344299316,0.0454898327589035,0.038307227194309235
1716735159621513700,3.162513671875,9.790189743041992,0.040701430290937424,0.035913024097681046
1716735159631513600,3.172513671875,9.785401344299316,0.047884032130241394,0.043095629662275314
1716735159641513700,3.182513671875,9.797372817993164,0.047884032130241394,0.047884032130241394
1716735159651513600,3.192513671875,9.809343338012695,0.038307227194309235,0.040701430290937424
1716735159661513700,3.202513671875,9.799766540527344,0.040701430290937424,0.040701430290937424
1716735159671513600,3.212513671875,9.778219223022461,0.043095629662275314,0.040701430290937424
1716735159681513700,3.222513671875,9.78061294555664,0.038307227194309235,0.05027823522686958
1716735159691513600,3.232513671875,9.792584419250488,0.038307227194309235,0.05506663769483566
1716735159701513700,3.242513671875,9.794978141784668,0.043095629662275314,0.05027823522686958
1716735159711513600,3.252513671875,9.78061294555664,0.047884032130241394,0.043095629662275314
1716735159721513700,3.262513671875,9.672874450683594,0.07661445438861847,0.05267243832349777
1716735159731513600,3.272513671875,9.873987197875977,0.05267243832349777,0.028730420395731926
1716735159741513700,3.282513671875,9.897929191589355,0.031124621629714966,0.05267243832349777
1716735159751513600,3.292513671875,9.790189743041992,0.019153613597154617,0.0694318488240242
1716735159761513700,3.302513671875,9.670479774475098,0.023942016065120697,0.035913024097681046
1716735159771513600,3.312513671875,9.806949615478516,0.040701430290937424,0.043095629662275314
1716735159781513700,3.322513671875,9.8691987991333,0.06464344263076782,0.06224924325942993
1716735159791513600,3.332513671875,9.799766540527344,0.033518824726343155,0.040701430290937424
1716735159801513700,3.342513671875,9.694421768188477,0.043095629662275314,0.035913024097681046
1716735159811513600,3.352513671875,9.775824546813965,0.05985504388809204,0.040701430290937424
1716735159821513700,3.362513671875,9.900322914123535,0.040701430290937424,0.028730420395731926
1716735159831513600,3.372513671875,9.821314811706543,0.043095629662275314,0.0454898327589035
1716735159841513700,3.382513671875,9.699210166931152,0.033518824726343155,0.038307227194309235
1716735159851513600,3.392513671875,9.751882553100586,0.038307227194309235,0.043095629662275314
1716735159861513700,3.402513671875,9.881169319152832,0.035913024097681046,0.038307227194309235
1716735159871513600,3.412513671875,9.818920135498047,0.040701430290937424,0.0454898327589035
1716735159881513700,3.422513671875,9.720758438110352,0.05267243832349777,0.05506663769483566
1716735159891513900,3.432513916015625,9.76864242553711,0.047884032130241394,0.05027823522686958
1716735159901513700,3.442513671875,9.854833602905273,0.05746084079146385,0.047884032130241394
1716735159911513900,3.452513916015625,9.818920135498047,0.028730420395731926,0.06703764945268631
1716735159921513700,3.462513671875,9.742305755615234,0.014365210197865963,0.040701430290937424
1716735159931513900,3.472513916015625,9.749488830566406,0.019153613597154617,0.0454898327589035
1716735159941513700,3.482513671875,9.83807373046875,0.033518824726343155,0.040701430290937424
1716735159951513900,3.492513916015625,9.83568000793457,0.043095629662275314,0.05267243832349777
1716735159961513700,3.502513671875,9.749488830566406,0.0454898327589035,0.05985504388809204
1716735159971513900,3.512513916015625,9.759065628051758,0.05267243832349777,0.05027823522686958
1716735159981513700,3.522513671875,9.823708534240723,0.023942016065120697,0.05746084079146385
1716735159991513900,3.532513916015625,9.826103210449219,0.040701430290937424,0.023942016065120697
1716735160001513700,3.542513671875,9.761459350585938,0.031124621629714966,0.047884032130241394
1716735160011513900,3.552513916015625,9.759065628051758,0.035913024097681046,0.0454898327589035
1716735160021513700,3.562513671875,9.821314811706543,0.021547814831137657,0.040701430290937424
1716735160031513900,3.572513916015625,9.821314811706543,0.0454898327589035,0.05267243832349777
1716735160041513700,3.582513671875,9.785401344299316,0.05267243832349777,0.05746084079146385
1716735160051513900,3.592513916015625,9.751882553100586,0.0454898327589035,0.05506663769483566
1716735160061513700,3.602513671875,9.809343338012695,0.043095629662275314,0.043095629662275314
1716735160071513900,3.612513916015625,9.847650527954102,0.028730420395731926,0.040701430290937424
1716735160081513700,3.622513671875,9.773430824279785,0.031124621629714966,0.05267243832349777
1716735160091513900,3.632513916015625,9.763854026794434,0.040701430290937424,0.05506663769483566
1716735160101513700,3.642513671875,9.790189743041992,0.05506663769483566,0.047884032130241394
1716735160111513900,3.652513916015625,9.823708534240723,0.040701430290937424,0.038307227194309235
1716735160121513700,3.662513671875,9.790189743041992,0.05746084079146385,0.043095629662275314
1716735160131513900,3.672513916015625,9.775824546813965,0.0454898327589035,0.0454898327589035
1716735160141513700,3.682513671875,9.792584419250488,0.047884032130241394,0.05746084079146385
1716735160151513900,3.692513916015625,9.821314811706543,0.040701430290937424,0.047884032130241394
1716735160161513700,3.702513671875,9.790189743041992,0.038307227194309235,0.05746084079146385
1716735160171513900,3.712513916015625,9.773430824279785,0.023942016065120697,0.035913024097681046
1716735160181513700,3.722513671875,9.806949615478516,0.028730420395731926,0.038307227194309235
1716735160191513600,3.732513671875,9.809343338012695,0.0454898327589035,0.0454898327589035
1716735160201513700,3.742513671875,9.80216121673584,0.047884032130241394,0.040701430290937424
1716735160211513900,3.752513916015625,9.778219223022461,0.06224924325942993,0.035913024097681046
1716735160221513700,3.762513671875,9.799766540527344,0.038307227194309235,0.031124621629714966
1716735160231513900,3.772513916015625,9.809343338012695,0.028730420395731926,0.040701430290937424
1716735160241513700,3.782513671875,9.80216121673584,0.021547814831137657,0.043095629662275314
1716735160251513900,3.792513916015625,9.76864242553711,0.038307227194309235,0.043095629662275314
1716735160261513700,3.802513671875,9.785401344299316,0.05267243832349777,0.0454898327589035
1716735160271513900,3.812513916015625,9.821314811706543,0.05746084079146385,0.06224924325942993
1716735160281513700,3.822513671875,9.797372817993164,0.040701430290937424,0.040701430290937424
1716735160291513900,3.832513916015625,9.773430824279785,0.035913024097681046,0.040701430290937424
1716735160301513700,3.842513671875,9.792584419250488,0.038307227194309235,0.05985504388809204
1716735160311513900,3.852513916015625,9.80455493927002,0.031124621629714966,0.05267243832349777
1716735160321513700,3.862513671875,9.797372817993164,0.031124621629714966,0.05746084079146385
1716735160331513900,3.872513916015625,9.785401344299316,0.040701430290937424,0.06464344263076782
1716735160341513700,3.882513671875,9.787796020507812,0.05027823522686958,0.033518824726343155
1716735160351513900,3.892513916015625,9.80455493927002,0.033518824726343155,0.023942016065120697
1716735160361513700,3.902513671875,9.794978141784668,0.05985504388809204,0.040701430290937424
1716735160371513900,3.912513916015625,9.778219223022461,0.040701430290937424,0.016759412363171577
1716735160381513700,3.922513671875,9.783007621765137,0.038307227194309235,0.05985504388809204
1716735160391513900,3.932513916015625,9.794978141784668,0.0454898327589035,0.05746084079146385
1716735160401513700,3.942513671875,9.811738014221191,0.038307227194309235,0.06464344263076782
1716735160411513900,3.952513916015625,9.792584419250488,0.038307227194309235,0.035913024097681046
1716735160421513700,3.962513671875,9.792584419250488,0.043095629662275314,0.040701430290937424
1716735160431513900,3.972513916015625,9.806949615478516,0.038307227194309235,0.035913024097681046
1716735160441513700,3.982513671875,9.797372817993164,0.05027823522686958,0.05267243832349777
1716735160451513900,3.992513916015625,9.785401344299316,0.05985504388809204,0.06224924325942993
1716735160461513700,4.002513671875,9.790189743041992,0.05985504388809204,0.047884032130241394
1716735160471513900,4.012513916015625,9.783007621765137,0.023942016065120697,0.038307227194309235
1716735160481513700,4.022513671875,9.794978141784668,0.026336219161748886,0.038307227194309235
1716735160491513900,4.032513916015625,9.775824546813965,0.0454898327589035,0.05506663769483566
1716735160501513700,4.042513671875,9.78061294555664,0.047884032130241394,0.05267243832349777
1716735160511513600,4.052513671875,9.794978141784668,0.038307227194309235,0.0454898327589035
1716735160521513700,4.062513671875,9.80455493927002,0.05267243832349777,0.033518824726343155
1716735160531513600,4.072513671875,9.785401344299316,0.05267243832349777,0.05027823522686958
1716735160541513700,4.082513671875,9.783007621765137,0.043095629662275314,0.05267243832349777
1716735160551513600,4.092513671875,9.794978141784668,0.0454898327589035,0.0454898327589035
1716735160561513700,4.102513671875,9.797372817993164,0.040701430290937424,0.040701430290937424
1716735160571513600,4.112513671875,9.783007621765137,0.0454898327589035,0.043095629662275314
1716735160581513700,4.122513671875,9.790189743041992,0.05746084079146385,0.043095629662275314
1716735160591513600,4.132513671875,9.794978141784668,0.035913024097681046,0.05027823522686958
1716735160601513700,4.142513671875,9.797372817993164,0.026336219161748886,0.05027823522686958
1716735160611513600,4.152513671875,9.787796020507812,0.026336219161748886,0.023942016065120697
1716735160621513700,4.162513671875,9.78061294555664,0.023942016065120697,0.047884032130241394
1716735160631513600,4.172513671875,9.792584419250488,0.035913024097681046,0.035913024097681046
1716735160641513700,4.182513671875,9.792584419250488,0.038307227194309235,0.05746084079146385
1716735160651513600,4.192513671875,9.794978141784668,0.040701430290937424,0.035913024097681046
1716735160661513700,4.202513671875,9.790189743041992,0.0454898327589035,0.05027823522686958
1716735160671513600,4.212513671875,10.10622501373291,0.05985504388809204,0.033518824726343155
1716735160681513700,4.222513671875,9.924264907836914,0.05027823522686958,0.047884032130241394
1716735160691513600,4.232513671875,9.87159252166748,0.043095629662275314,0.028730420395731926
1716735160701513700,4.242513671875,9.706393241882324,0.026336219161748886,0.0454898327589035
1716735160711513600,4.252513671875,9.811738014221191,0.031124621629714966,0.038307227194309235
1716735160721513700,4.262513671875,9.92665958404541,0.043095629662275314,0.05746084079146385
1716735160731513600,4.272513671875,9.809343338012695,0.05267243832349777,0.038307227194309235
1716735160741513700,4.282513671875,9.715970039367676,0.043095629662275314,0.047884032130241394
1716735160751513600,4.292513671875,9.778219223022461,0.040701430290937424,0.035913024097681046
1716735160761513700,4.302513671875,9.876380920410156,0.019153613597154617,0.05027823522686958
1716735160771513600,4.312513671875,9.811738014221191,0.035913024097681046,0.05267243832349777
1716735160781513700,4.322513671875,9.730335235595703,0.031124621629714966,0.035913024097681046
1716735160791513600,4.332513671875,9.766247749328613,0.035913024097681046,0.05027823522686958
1716735160801513700,4.342513671875,9.845256805419922,0.05027823522686958,0.033518824726343155
1716735160811513600,4.352513671875,9.809343338012695,0.040701430290937424,0.0454898327589035
1716735160821513700,4.362513671875,9.74709415435791,0.040701430290937424,0.026336219161748886
1716735160831513600,4.372513671875,9.78061294555664,0.033518824726343155,0.0454898327589035
1716735160841513700,4.382513671875,9.847650527954102,0.05267243832349777,0.028730420395731926
1716735160851513600,4.392513671875,9.830891609191895,0.019153613597154617,0.0454898327589035
1716735160861513700,4.402513671875,9.737517356872559,0.031124621629714966,0.043095629662275314
1716735160871513600,4.412513671875,9.771036148071289,0.05267243832349777,0.06224924325942993
1716735160881513700,4.422513671875,9.833285331726074,0.035913024097681046,0.047884032130241394
1716735160891513600,4.432513671875,9.818920135498047,0.035913024097681046,0.05506663769483566
1716735160901513700,4.442513671875,9.766247749328613,0.05506663769483566,0.05027823522686958
1716735160911513600,4.452513671875,9.754277229309082,0.047884032130241394,0.047884032130241394
1716735160921513700,4.462513671875,9.809343338012695,0.043095629662275314,0.047884032130241394
1716735160931513600,4.472513671875,9.828496932983398,0.035913024097681046,0.038307227194309235
1716735160941513700,4.482513671875,9.78061294555664,0.031124621629714966,0.040701430290937424
1716735160951513600,4.492513671875,9.763854026794434,0.038307227194309235,0.05506663769483566
1716735160961513700,4.502513671875,9.806949615478516,0.035913024097681046,0.05746084079146385
1716735160971513600,4.512513671875,9.821314811706543,0.0454898327589035,0.035913024097681046
1716735160981513700,4.522513671875,9.778219223022461,0.026336219161748886,0.05746084079146385
1716735160991513600,4.532513671875,9.749488830566406,0.0454898327589035,0.043095629662275314
1716735161001513700,4.542513671875,9.821314811706543,0.040701430290937424,0.05027823522686958
1716735161011513600,4.552513671875,9.818920135498047,0.038307227194309235,0.035913024097681046
1716735161021513700,4.562513671875,9.790189743041992,0.038307227194309235,0.035913024097681046
1716735161031513600,4.572513671875,9.759065628051758,0.038307227194309235,0.047884032130241394
1716735161041513700,4.582513671875,9.790189743041992,0.026336219161748886,0.040701430290937424
1716735161051513600,4.592513671875,9.814131736755371,0.043095629662275314,0.0454898327589035
1716735161061513700,4.602513671875,9.773430824279785,0.033518824726343155,0.0454898327589035
1716735161071513600,4.612513671875,9.773430824279785,0.05027823522686958,0.031124621629714966
1716735161081513700,4.622513671875,9.80216121673584,0.038307227194309235,0.038307227194309235
1716735161091513600,4.632513671875,9.826103210449219,0.040701430290937424,0.05506663769483566
1716735161101513700,4.642513671875,9.792584419250488,0.033518824726343155,0.05506663769483566
1716735161111513600,4.652513671875,9.783007621765137,0.038307227194309235,0.05267243832349777
1716735161121513700,4.662513671875,9.78061294555664,0.023942016065120697,0.07422025501728058
1716735161131513600,4.672513671875,9.816526412963867,0.033518824726343155,0.0454898327589035
1716735161141513700,4.682513671875,9.790189743041992,0.033518824726343155,0.05267243832349777
1716735161151513600,4.692513671875,9.778219223022461,0.028730420395731926,0.05746084079146385
1716735161161513700,4.702513671875,9.790189743041992,0.026336219161748886,0.047884032130241394
1716735161171513600,4.712513671875,9.80455493927002,0.05267243832349777,0.040701430290937424
1716735161181513700,4.722513671875,9.792584419250488,0.038307227194309235,0.05027823522686958
1716735161191513600,4.732513671875,9.790189743041992,0.043095629662275314,0.043095629662275314
1716735161201513700,4.742513671875,9.790189743041992,0.033518824726343155,0.038307227194309235
1716735161211513600,4.752513671875,9.799766540527344,0.05027823522686958,0.038307227194309235
1716735161221513700,4.762513671875,9.797372817993164,0.023942016065120697,0.0454898327589035
1716735161231513600,4.772513671875,9.771036148071289,0.019153613597154617,0.0454898327589035
1716735161241513700,4.782513671875,9.787796020507812,0.040701430290937424,0.05506663769483566
1716735161251513600,4.792513671875,9.811738014221191,0.043095629662275314,0.026336219161748886
1716735161261513700,4.802513671875,9.80455493927002,0.038307227194309235,0.05746084079146385
1716735161271513600,4.812513671875,9.783007621765137,0.035913024097681046,0.038307227194309235
1716735161281513700,4.822513671875,9.778219223022461,0.031124621629714966,0.040701430290937424
1716735161291513600,4.832513671875,9.792584419250488,0.035913024097681046,0.043095629662275314
1716735161301513700,4.842513671875,9.792584419250488,0.05027823522686958,0.06224924325942993
1716735161311513600,4.852513671875,9.792584419250488,0.031124621629714966,0.040701430290937424
1716735161321513700,4.862513671875,9.790189743041992,0.05267243832349777,0.05027823522686958
1716735161331513600,4.872513671875,9.797372817993164,0.028730420395731926,0.043095629662275314
1716735161341513700,4.882513671875,9.797372817993164,0.040701430290937424,0.0454898327589035
1716735161351513600,4.892513671875,9.797372817993164,0.0454898327589035,0.043095629662275314
1716735161361513700,4.902513671875,9.790189743041992,0.047884032130241394,0.047884032130241394
1716735161371513600,4.912513671875,9.790189743041992,0.040701430290937424,0.05027823522686958
1716735161381513700,4.922513671875,9.792584419250488,0.035913024097681046,0.033518824726343155
1716735161391513600,4.932513671875,9.785401344299316,0.040701430290937424,0.05506663769483566
1716735161401513700,4.942513671875,9.797372817993164,0.043095629662275314,0.038307227194309235
1716735161411513600,4.952513671875,9.797372817993164,0.026336219161748886,0.038307227194309235
1716735161421513700,4.962513671875,9.80455493927002,0.026336219161748886,0.035913024097681046
1716735161431513600,4.972513671875,9.806949615478516,0.033518824726343155,0.035913024097681046
1716735161441513700,4.982513671875,9.794978141784668,0.043095629662275314,0.040701430290937424
1716735161451513600,4.992513671875,9.76864242553711,0.021547814831137657,0.047884032130241394
1716735161461513700,5.002513671875,9.80216121673584,0.033518824726343155,0.05027823522686958
1716735161471513600,5.012513671875,9.794978141784668,0.038307227194309235,0.05506663769483566
1716735161481513700,5.022513671875,9.790189743041992,0.035913024097681046,0.05027823522686958
1716735161491513600,5.032513671875,9.797372817993164,0.035913024097681046,0.040701430290937424
1716735161501513700,5.042513671875,9.790189743041992,0.043095629662275314,0.043095629662275314
1716735161511513600,5.052513671875,9.792584419250488,0.031124621629714966,0.05506663769483566
1716735161521513700,5.062513671875,9.792584419250488,0.05027823522686958,0.040701430290937424
1716735161531513600,5.072513671875,9.783007621765137,0.026336219161748886,0.06464344263076782
1716735161541513700,5.082513671875,9.78061294555664,0.035913024097681046,0.019153613597154617
1716735161551513600,5.092513671875,9.783007621765137,0.047884032130241394,0.05506663769483566
1716735161561513700,5.102513671875,9.792584419250488,0.038307227194309235,0.05506663769483566
1716735161571513600,5.112513671875,9.797372817993164,0.038307227194309235,0.0454898327589035
1716735161581513700,5.122513671875,9.584288597106934,0.05027823522686958,0.028730420395731926
1716735161591513600,5.132513671875,9.876380920410156,0.05267243832349777,0.038307227194309235
1716735161601513700,5.142513671875,9.857227325439453,0.026336219161748886,0.047884032130241394
1716735161611513600,5.152513671875,9.737517356872559,0.033518824726343155,0.047884032130241394
1716735161621513700,5.162513671875,9.723152160644531,0.040701430290937424,0.06224924325942993
1716735161631513600,5.172513671875,9.83568000793457,0.031124621629714966,0.07422025501728058
1716735161641513700,5.182513671875,9.80455493927002,0.033518824726343155,0.06464344263076782
1716735161651513600,5.192513671875,9.763854026794434,0.047884032130241394,0.05746084079146385
1716735161661513700,5.202513671875,9.74709415435791,0.043095629662275314,0.05506663769483566
1716735161671513600,5.212513671875,9.811738014221191,0.033518824726343155,0.05985504388809204
1716735161681513700,5.222513671875,9.818920135498047,0.028730420395731926,0.047884032130241394
1716735161691513600,5.232513671875,9.778219223022461,0.038307227194309235,0.05506663769483566
1716735161701513700,5.242513671875,9.761459350585938,0.040701430290937424,0.038307227194309235
1716735161711513600,5.252513671875,9.806949615478516,0.0454898327589035,0.033518824726343155
1716735161721513700,5.262513671875,9.80455493927002,0.043095629662275314,0.0454898327589035
1716735161731513600,5.272513671875,9.792584419250488,0.033518824726343155,0.05506663769483566
1716735161741513700,5.282513671875,9.771036148071289,0.047884032130241394,0.05267243832349777
1716735161751513600,5.292513671875,9.792584419250488,0.043095629662275314,0.035913024097681046
1716735161761513700,5.302513671875,9.797372817993164,0.026336219161748886,0.033518824726343155
1716735161771513600,5.312513671875,9.778219223022461,0.023942016065120697,0.016759412363171577
1716735161781513700,5.322513671875,9.773430824279785,0.05267243832349777,0.05746084079146385
1716735161791513600,5.332513671875,9.797372817993164,0.035913024097681046,0.05027823522686958
1716735161801513700,5.342513671875,9.809343338012695,0.035913024097681046,0.0454898327589035
1716735161811513600,5.352513671875,9.787796020507812,0.05027823522686958,0.05985504388809204
1716735161821513700,5.362513671875,9.763854026794434,0.040701430290937424,0.040701430290937424
1716735161831513600,5.372513671875,9.785401344299316,0.05027823522686958,0.06464344263076782
1716735161841513700,5.382513671875,9.794978141784668,0.028730420395731926,0.043095629662275314
1716735161851513600,5.392513671875,9.787796020507812,0.028730420395731926,0.05267243832349777
1716735161861513700,5.402513671875,9.771036148071289,0.038307227194309235,0.05267243832349777
1716735161871513600,5.412513671875,9.787796020507812,0.021547814831137657,0.05027823522686958
1716735161881513700,5.422513671875,9.80216121673584,0.028730420395731926,0.040701430290937424
1716735161891513600,5.432513671875,9.799766540527344,0.043095629662275314,0.040701430290937424
1716735161901513700,5.442513671875,9.783007621765137,0.040701430290937424,0.043095629662275314
1716735161911513600,5.452513671875,9.778219223022461,0.05027823522686958,0.028730420395731926
1716735161921513700,5.462513671875,9.787796020507812,0.028730420395731926,0.047884032130241394
1716735161931513600,5.472513671875,9.80216121673584,0.028730420395731926,0.043095629662275314
1716735161941513700,5.482513671875,9.787796020507812,0.040701430290937424,0.047884032130241394
1716735161951513600,5.492513671875,9.78061294555664,0.047884032130241394,0.033518824726343155
1716735161961513700,5.502513671875,9.787796020507812,0.031124621629714966,0.0454898327589035
1716735161971513600,5.512513671875,9.790189743041992,0.043095629662275314,0.05506663769483566
1716735161981513700,5.522513671875,9.787796020507812,0.033518824726343155,0.05267243832349777
1716735161991513600,5.532513671875,9.785401344299316,0.038307227194309235,0.0454898327589035
1716735162001513700,5.542513671875,9.790189743041992,0.040701430290937424,0.05027823522686958
1716735162011513600,5.552513671875,9.790189743041992,0.0454898327589035,0.05027823522686958
1716735162021513700,5.562513671875,9.785401344299316,0.033518824726343155,0.0694318488240242
1716735162031513600,5.572513671875,9.78061294555664,0.028730420395731926,0.05267243832349777
1716735162041513700,5.582513671875,9.787796020507812,0.033518824726343155,0.043095629662275314
1716735162051513600,5.592513671875,9.799766540527344,0.035913024097681046,0.038307227194309235
1716735162061513700,5.602513671875,9.787796020507812,0.05506663769483566,0.040701430290937424
1716735162071513600,5.612513671875,9.790189743041992,0.035913024097681046,0.0454898327589035
1716735162081513700,5.622513671875,9.794978141784668,0.043095629662275314,0.05027823522686958
1716735162091513600,5.632513671875,9.806949615478516,0.035913024097681046,0.047884032130241394
1716735162101513700,5.642513671875,9.778219223022461,0.028730420395731926,0.028730420395731926
1716735162111513600,5.652513671875,9.785401344299316,0.031124621629714966,0.0454898327589035
1716735162121513700,5.662513671875,9.80216121673584,0.038307227194309235,0.0454898327589035
1716735162131513600,5.672513671875,9.792584419250488,0.0454898327589035,0.043095629662275314
1716735162141513700,5.682513671875,9.80216121673584,0.038307227194309235,0.033518824726343155
1716735162151513600,5.692513671875,9.797372817993164,0.035913024097681046,0.040701430290937424
1716735162161513700,5.702513671875,9.783007621765137,0.035913024097681046,0.031124621629714966
1716735162171513600,5.712513671875,9.783007621765137,0.0454898327589035,0.033518824726343155
1716735162181513700,5.722513671875,9.794978141784668,0.033518824726343155,0.047884032130241394
1716735162191513600,5.732513671875,9.792584419250488,0.040701430290937424,0.047884032130241394
1716735162201513700,5.742513671875,9.799766540527344,0.043095629662275314,0.033518824726343155
1716735162211513600,5.752513671875,9.78061294555664,0.035913024097681046,0.040701430290937424
1716735162221513700,5.762513671875,9.792584419250488,0.05746084079146385,0.05746084079146385
1716735162231513600,5.772513671875,9.775824546813965,0.05506663769483566,0.05027823522686958
1716735162241513700,5.782513671875,9.790189743041992,0.047884032130241394,0.043095629662275314
1716735162251513600,5.792513671875,9.794978141784668,0.035913024097681046,0.05267243832349777
1716735162261513700,5.802513671875,9.797372817993164,0.040701430290937424,0.047884032130241394
1716735162271513600,5.812513671875,9.785401344299316,0.040701430290937424,0.0454898327589035
1716735162281513700,5.822513671875,9.792584419250488,0.040701430290937424,0.043095629662275314
1716735162291513600,5.832513671875,9.783007621765137,0.038307227194309235,0.05506663769483566
1716735162301513700,5.842513671875,9.787796020507812,0.043095629662275314,0.035913024097681046
1716735162311513600,5.852513671875,9.790189743041992,0.040701430290937424,0.047884032130241394
1716735162321513700,5.862513671875,9.814131736755371,0.023942016065120697,0.043095629662275314
1716735162331513600,5.872513671875,9.797372817993164,0.040701430290937424,0.05027823522686958
1716735162341513700,5.882513671875,9.785401344299316,0.043095629662275314,0.043095629662275314
1716735162351513600,5.892513671875,9.783007621765137,0.035913024097681046,0.05746084079146385
1716735162361513700,5.902513671875,9.783007621765137,0.040701430290937424,0.047884032130241394
1716735162371513600,5.912513671875,9.785401344299316,0.047884032130241394,0.035913024097681046
1716735162381513700,5.922513671875,9.794978141784668,0.028730420395731926,0.05267243832349777
1716735162391513600,5.932513671875,9.785401344299316,0.05506663769483566,0.05985504388809204
1716735162401513700,5.942513671875,9.787796020507812,0.019153613597154617,0.047884032130241394
1716735162411513600,5.952513671875,9.790189743041992,0.043095629662275314,0.05267243832349777
1716735162421513700,5.962513671875,9.792584419250488,0.05506663769483566,0.0454898327589035
1716735162431513600,5.972513671875,9.783007621765137,0.05027823522686958,0.035913024097681046
1716735162441513700,5.982513671875,9.787796020507812,0.0454898327589035,0.05267243832349777
1716735162451513600,5.992513671875,9.794978141784668,0.038307227194309235,0.05746084079146385
1716735162461513700,6.002513671875,9.783007621765137,0.035913024097681046,0.05027823522686958
1716735162471513600,6.012513671875,9.785401344299316,0.028730420395731926,0.047884032130241394
1716735162481513700,6.022513671875,9.790189743041992,0.05027823522686958,0.05267243832349777
1716735162491513600,6.032513671875,9.775824546813965,0.047884032130241394,0.040701430290937424
1716735162501513700,6.042513671875,9.80216121673584,0.0454898327589035,0.035913024097681046
1716735162511513600,6.052513671875,9.787796020507812,0.040701430290937424,0.033518824726343155
1716735162521513700,6.062513671875,9.794978141784668,0.040701430290937424,0.0454898327589035
1716735162531513600,6.072513671875,9.778219223022461,0.038307227194309235,0.047884032130241394
1716735162541513700,6.082513671875,9.785401344299316,0.028730420395731926,0.038307227194309235
1716735162551513600,6.092513671875,9.778219223022461,0.038307227194309235,0.05267243832349777
1716735162561513700,6.102513671875,9.783007621765137,0.038307227194309235,0.0454898327589035
1716735162571513600,6.112513671875,9.792584419250488,0.043095629662275314,0.047884032130241394
1716735162581513700,6.122513671875,9.792584419250488,0.047884032130241394,0.043095629662275314
1716735162591513600,6.132513671875,9.775824546813965,0.047884032130241394,0.033518824726343155
1716735162601513700,6.142513671875,9.646537780761719,0.028730420395731926,0.040701430290937424
1716735162611513600,6.152513671875,9.814131736755371,0.05506663769483566,0.05027823522686958
1716735162621513700,6.162513671875,9.905111312866211,0.033518824726343155,0.05985504388809204
1716735162631513600,6.172513671875,9.847650527954102,0.033518824726343155,0.033518824726343155
1716735162641513700,6.182513671875,9.732728958129883,0.035913024097681046,0.047884032130241394
1716735162651513600,6.192513671875,9.725546836853027,0.019153613597154617,0.05746084079146385
1716735162661513700,6.202513671875,9.83807373046875,0.0454898327589035,0.05506663769483566
1716735162671513600,6.212513671875,9.833285331726074,0.05506663769483566,0.0454898327589035
1716735162681513700,6.222513671875,9.761459350585938,0.043095629662275314,0.047884032130241394
1716735162691513600,6.232513671875,9.756670951843262,0.038307227194309235,0.0454898327589035
1716735162701513700,6.242513671875,9.806949615478516,0.05027823522686958,0.047884032130241394
1716735162711513600,6.252513671875,9.80455493927002,0.043095629662275314,0.038307227194309235
1716735162721513700,6.262513671875,9.771036148071289,0.0454898327589035,0.038307227194309235
1716735162731513600,6.272513671875,9.78061294555664,0.031124621629714966,0.05267243832349777
1716735162741513700,6.282513671875,9.816526412963867,0.033518824726343155,0.05267243832349777
1716735162751513600,6.292513671875,9.830891609191895,0.040701430290937424,0.05267243832349777
1716735162761513700,6.302513671875,9.763854026794434,0.031124621629714966,0.0454898327589035
1716735162771513600,6.312513671875,9.763854026794434,0.05506663769483566,0.047884032130241394
1716735162781513700,6.322513671875,9.80216121673584,0.040701430290937424,0.043095629662275314
1716735162791513600,6.332513671875,9.818920135498047,0.031124621629714966,0.05506663769483566
1716735162801513700,6.342513671875,9.785401344299316,0.031124621629714966,0.047884032130241394
1716735162811513600,6.352513671875,9.751882553100586,0.026336219161748886,0.035913024097681046
1716735162821513700,6.362513671875,9.790189743041992,0.040701430290937424,0.047884032130241394
1716735162831513600,6.372513671875,9.809343338012695,0.038307227194309235,0.05267243832349777
1716735162841513700,6.382513671875,9.785401344299316,0.05746084079146385,0.043095629662275314
1716735162851513600,6.392513671875,9.749488830566406,0.047884032130241394,0.021547814831137657
1716735162861513700,6.402513671875,9.787796020507812,0.05267243832349777,0.05985504388809204
1716735162871513600,6.412513671875,9.806949615478516,0.026336219161748886,0.05267243832349777
1716735162881513700,6.422513671875,9.792584419250488,0.021547814831137657,0.040701430290937424
1716735162891513600,6.432513671875,9.771036148071289,0.019153613597154617,0.05506663769483566
1716735162901513700,6.442513671875,9.771036148071289,0.05506663769483566,0.040701430290937424
1716735162911513600,6.452513671875,9.816526412963867,0.05506663769483566,0.05985504388809204
1716735162921513700,6.462513671875,9.797372817993164,0.05506663769483566,0.047884032130241394
1716735162931513600,6.472513671875,9.771036148071289,0.040701430290937424,0.038307227194309235
1716735162941513700,6.482513671875,9.787796020507812,0.031124621629714966,0.05027823522686958
1716735162951513600,6.492513671875,9.799766540527344,0.035913024097681046,0.043095629662275314
1716735162961513700,6.502513671875,9.778219223022461,0.035913024097681046,0.047884032130241394
1716735162971513600,6.512513671875,9.785401344299316,0.040701430290937424,0.047884032130241394
1716735162981513700,6.522513671875,9.787796020507812,0.040701430290937424,0.05746084079146385
1716735162991513600,6.532513671875,9.80216121673584,0.040701430290937424,0.047884032130241394
1716735163001513700,6.542513671875,9.799766540527344,0.05506663769483566,0.05506663769483566
1716735163011513600,6.552513671875,9.778219223022461,0.040701430290937424,0.05746084079146385
1716735163021513700,6.562513671875,9.763854026794434,0.033518824726343155,0.038307227194309235
1716735163031513600,6.572513671875,9.794978141784668,0.026336219161748886,0.05985504388809204
1716735163041513700,6.582513671875,9.787796020507812,0.011971008032560349,0.05746084079146385
1716735163051513600,6.592513671875,9.792584419250488,0.026336219161748886,0.0454898327589035
1716735163061513700,6.602513671875,9.785401344299316,0.0454898327589035,0.0454898327589035
1716735163071513600,6.612513671875,9.787796020507812,0.033518824726343155,0.043095629662275314
1716735163081513700,6.622513671875,9.778219223022461,0.05746084079146385,0.05506663769483566
1716735163091513600,6.632513671875,9.783007621765137,0.05267243832349777,0.05506663769483566
1716735163101513700,6.642513671875,9.775824546813965,0.0454898327589035,0.05985504388809204
1716735163111513600,6.652513671875,9.806949615478516,0.028730420395731926,0.040701430290937424
1716735163121513700,6.662513671875,9.799766540527344,0.023942016065120697,0.047884032130241394
1716735163131513600,6.672513671875,9.787796020507812,0.035913024097681046,0.05267243832349777
1716735163141513700,6.682513671875,9.787796020507812,0.033518824726343155,0.0454898327589035
1716735163151513600,6.692513671875,9.794978141784668,0.035913024097681046,0.05027823522686958
1716735163161513700,6.702513671875,9.787796020507812,0.0454898327589035,0.06224924325942993
1716735163171513600,6.712513671875,9.78061294555664,0.047884032130241394,0.033518824726343155
1716735163181513700,6.722513671875,9.78061294555664,0.047884032130241394,0.06224924325942993
1716735163191513600,6.732513671875,9.790189743041992,0.019153613597154617,0.035913024097681046
1716735163201513700,6.742513671875,9.787796020507812,0.026336219161748886,0.047884032130241394
1716735163211513900,6.752513916015625,9.775824546813965,0.033518824726343155,0.0454898327589035
1716735163221513700,6.762513671875,9.785401344299316,0.028730420395731926,0.033518824726343155
1716735163231513900,6.772513916015625,9.80455493927002,0.043095629662275314,0.040701430290937424
1716735163241513700,6.782513671875,9.80216121673584,0.038307227194309235,0.05506663769483566
1716735163251513900,6.792513916015625,9.783007621765137,0.038307227194309235,0.031124621629714966
1716735163261513700,6.802513671875,9.794978141784668,0.05506663769483566,0.05506663769483566
1716735163271513900,6.812513916015625,9.790189743041992,0.033518824726343155,0.05027823522686958
1716735163281513700,6.822513671875,9.794978141784668,0.038307227194309235,0.05267243832349777
1716735163291513900,6.832513916015625,9.792584419250488,0.05027823522686958,0.026336219161748886
1716735163301513700,6.842513671875,9.78061294555664,0.047884032130241394,0.031124621629714966
1716735163311513900,6.852513916015625,9.783007621765137,0.026336219161748886,0.05027823522686958
1716735163321513700,6.862513671875,9.785401344299316,0.05267243832349777,0.0454898327589035
1716735163331513900,6.872513916015625,9.790189743041992,0.0454898327589035,0.05746084079146385
1716735163341513700,6.882513671875,9.792584419250488,0.033518824726343155,0.047884032130241394
1716735163351513900,6.892513916015625,9.787796020507812,0.033518824726343155,0.040701430290937424
1716735163361513700,6.902513671875,9.790189743041992,0.043095629662275314,0.033518824726343155
1716735163371513900,6.912513916015625,9.797372817993164,0.026336219161748886,0.026336219161748886
1716735163381513700,6.922513671875,9.785401344299316,0.021547814831137657,0.040701430290937424
1716735163391513900,6.932513916015625,9.773430824279785,0.026336219161748886,0.047884032130241394
1716735163401513700,6.942513671875,9.797372817993164,0.031124621629714966,0.035913024097681046
1716735163411513900,6.952513916015625,9.787796020507812,0.026336219161748886,0.047884032130241394
1716735163421513700,6.962513671875,9.76864242553711,0.043095629662275314,0.040701430290937424
1716735163431513900,6.972513916015625,9.790189743041992,0.040701430290937424,0.05027823522686958
1716735163441513700,6.982513671875,9.792584419250488,0.047884032130241394,0.05506663769483566
1716735163451513900,6.992513916015625,9.78061294555664,0.023942016065120697,0.035913024097681046
1716735163461513700,7.002513671875,9.794978141784668,0.0454898327589035,0.05267243832349777
1716735163471513900,7.012513916015625,9.783007621765137,0.05746084079146385,0.05027823522686958
1716735163481513700,7.022513671875,9.778219223022461,0.040701430290937424,0.038307227194309235
1716735163491513900,7.032513916015625,9.787796020507812,0.033518824726343155,0.047884032130241394
1716735163501513700,7.042513671875,9.80216121673584,0.023942016065120697,0.047884032130241394
1716735163511513600,7.052513671875,9.785401344299316,0.028730420395731926,0.035913024097681046
1716735163521513700,7.062513671875,9.797372817993164,0.05506663769483566,0.047884032130241394
1716735163531513600,7.072513671875,9.783007621765137,0.038307227194309235,0.05027823522686958
1716735163541513700,7.082513671875,9.775824546813965,0.031124621629714966,0.035913024097681046
1716735163551513600,7.092513671875,9.785401344299316,0.043095629662275314,0.026336219161748886
1716735163561513700,7.102513671875,9.792584419250488,0.028730420395731926,0.05027823522686958
1716735163571513600,7.112513671875,9.775824546813965,0.026336219161748886,0.0694318488240242
1716735163581513700,7.122513671875,9.792584419250488,0.035913024097681046,0.043095629662275314
1716735163591513600,7.132513671875,9.794978141784668,0.038307227194309235,0.038307227194309235
1716735163601513700,7.142513671875,9.787796020507812,0.05027823522686958,0.05027823522686958
1716735163611513600,7.152513671875,9.790189743041992,0.033518824726343155,0.040701430290937424
1716735163621513700,7.162513671875,9.775824546813965,0.0454898327589035,0.043095629662275314
1716735163631513600,7.172513671875,9.790189743041992,0.014365210197865963,0.05027823522686958
1716735163641513700,7.182513671875,9.794978141784668,0.0454898327589035,0.028730420395731926
1716735163651513600,7.192513671875,9.80455493927002,0.026336219161748886,0.047884032130241394
1716735163661513700,7.202513671875,9.790189743041992,0.043095629662275314,0.0454898327589035
1716735163671513600,7.212513671875,9.675268173217773,0.06464344263076782,0.05746084079146385
1716735163681513700,7.222513671875,9.888352394104004,0.028730420395731926,0.026336219161748886
1716735163691513600,7.232513671875,9.778219223022461,0.0454898327589035,0.05267243832349777
1716735163701513700,7.242513671875,9.754277229309082,0.021547814831137657,0.06703764945268631
1716735163711513600,7.252513671875,9.718363761901855,0.011971008032560349,0.026336219161748886
1716735163721513700,7.262513671875,9.80216121673584,0.021547814831137657,0.05506663769483566
1716735163731513600,7.272513671875,9.785401344299316,0.033518824726343155,0.06224924325942993
1716735163741513700,7.282513671875,9.742305755615234,0.047884032130241394,0.043095629662275314
1716735163751513600,7.292513671875,9.773430824279785,0.05506663769483566,0.05985504388809204
1716735163761513700,7.302513671875,9.833285331726074,0.05267243832349777,0.05506663769483566
1716735163771513600,7.312513671875,9.797372817993164,0.043095629662275314,0.043095629662275314
1716735163781513700,7.322513671875,9.737517356872559,0.0071826050989329815,0.0454898327589035
1716735163791513600,7.332513671875,9.754277229309082,0.011971008032560349,0.047884032130241394
1716735163801513700,7.342513671875,9.828496932983398,0.035913024097681046,0.028730420395731926
1716735163811513600,7.352513671875,9.814131736755371,0.0454898327589035,0.038307227194309235
1716735163821513700,7.362513671875,9.730335235595703,0.0454898327589035,0.031124621629714966
1716735163831513600,7.372513671875,9.771036148071289,0.0454898327589035,0.05267243832349777
1716735163841513700,7.382513671875,9.814131736755371,0.05027823522686958,0.05985504388809204
1716735163851513600,7.392513671875,9.806949615478516,0.040701430290937424,0.043095629662275314
1716735163861513700,7.402513671875,9.775824546813965,0.019153613597154617,0.05506663769483566
1716735163871513600,7.412513671875,9.76864242553711,0.021547814831137657,0.06224924325942993
1716735163881513700,7.422513671875,9.797372817993164,0.023942016065120697,0.040701430290937424
1716735163891513600,7.432513671875,9.797372817993164,0.038307227194309235,0.0454898327589035
1716735163901513700,7.442513671875,9.78061294555664,0.05985504388809204,0.05746084079146385
1716735163911513600,7.452513671875,9.766247749328613,0.047884032130241394,0.05267243832349777
1716735163921513700,7.462513671875,9.809343338012695,0.038307227194309235,0.0454898327589035
1716735163931513600,7.472513671875,9.806949615478516,0.040701430290937424,0.05267243832349777
1716735163941513700,7.482513671875,9.78061294555664,0.031124621629714966,0.05027823522686958
1716735163951513600,7.492513671875,9.773430824279785,0.023942016065120697,0.05506663769483566
1716735163961513700,7.502513671875,9.778219223022461,0.023942016065120697,0.05267243832349777
1716735163971513600,7.512513671875,9.821314811706543,0.043095629662275314,0.033518824726343155
1716735163981513700,7.522513671875,9.785401344299316,0.040701430290937424,0.043095629662275314
1716735163991513600,7.532513671875,9.78061294555664,0.05746084079146385,0.033518824726343155
1716735164001513700,7.542513671875,9.783007621765137,0.05985504388809204,0.031124621629714966
1716735164011513600,7.552513671875,9.80455493927002,0.040701430290937424,0.028730420395731926
1716735164021513700,7.562513671875,9.797372817993164,0.033518824726343155,0.06224924325942993
1716735164031513600,7.572513671875,9.78061294555664,0.038307227194309235,0.047884032130241394
1716735164041513700,7.582513671875,9.792584419250488,0.043095629662275314,0.05027823522686958
1716735164051513600,7.592513671875,9.787796020507812,0.040701430290937424,0.043095629662275314
1716735164061513700,7.602513671875,9.787796020507812,0.043095629662275314,0.05267243832349777
1716735164071513600,7.612513671875,9.773430824279785,0.038307227194309235,0.05267243832349777
1716735164081513700,7.622513671875,9.792584419250488,0.0454898327589035,0.047884032130241394
1716735164091513600,7.632513671875,9.806949615478516,0.028730420395731926,0.05985504388809204
1716735164101513700,7.642513671875,9.790189743041992,0.038307227194309235,0.05267243832349777
1716735164111513600,7.652513671875,9.78061294555664,0.043095629662275314,0.040701430290937424
1716735164121513700,7.662513671875,9.783007621765137,0.033518824726343155,0.05027823522686958
1716735164131513600,7.672513671875,9.797372817993164,0.023942016065120697,0.05506663769483566
1716735164141513700,7.682513671875,9.785401344299316,0.031124621629714966,0.028730420395731926
1716735164151513600,7.692513671875,9.778219223022461,0.035913024097681046,0.0454898327589035
1716735164161513700,7.702513671875,9.787796020507812,0.05267243832349777,0.033518824726343155
1716735164171513600,7.712513671875,9.794978141784668,0.05027823522686958,0.028730420395731926
1716735164181513700,7.722513671875,9.794978141784668,0.028730420395731926,0.043095629662275314
1716735164191513600,7.732513671875,9.799766540527344,0.043095629662275314,0.043095629662275314
1716735164201513700,7.742513671875,9.790189743041992,0.043095629662275314,0.019153613597154617
1716735164211513600,7.752513671875,9.799766540527344,0.05506663769483566,0.038307227194309235
1716735164221513700,7.762513671875,9.783007621765137,0.05506663769483566,0.06703764945268631
1716735164231513600,7.772513671875,9.785401344299316,0.05985504388809204,0.043095629662275314
1716735164241513700,7.782513671875,9.78061294555664,0.0454898327589035,0.05985504388809204
1716735164251513600,7.792513671875,9.792584419250488,0.038307227194309235,0.0454898327589035
1716735164261513700,7.802513671875,9.78061294555664,0.043095629662275314,0.028730420395731926
1716735164271513600,7.812513671875,9.766247749328613,0.040701430290937424,0.06464344263076782
1716735164281513700,7.822513671875,9.797372817993164,0.035913024097681046,0.05027823522686958
1716735164291513600,7.832513671875,9.80216121673584,0.031124621629714966,0.06464344263076782
1716735164301513700,7.842513671875,9.778219223022461,0.040701430290937424,0.047884032130241394
1716735164311513600,7.852513671875,9.792584419250488,0.038307227194309235,0.05506663769483566
1716735164321513700,7.862513671875,9.792584419250488,0.06703764945268631,0.047884032130241394
1716735164331513600,7.872513671875,9.80216121673584,0.05506663769483566,0.040701430290937424
1716735164341513700,7.882513671875,9.792584419250488,0.040701430290937424,0.05027823522686958
1716735164351513600,7.892513671875,9.773430824279785,0.05267243832349777,0.047884032130241394
1716735164361513700,7.902513671875,9.783007621765137,0.035913024097681046,0.038307227194309235
1716735164371513600,7.912513671875,9.792584419250488,0.043095629662275314,0.05506663769483566
1716735164381513700,7.922513671875,9.792584419250488,0.038307227194309235,0.043095629662275314
1716735164391513600,7.932513671875,9.775824546813965,0.05027823522686958,0.05506663769483566
1716735164401513700,7.942513671875,9.790189743041992,0.031124621629714966,0.05027823522686958
1716735164411513600,7.952513671875,9.785401344299316,0.040701430290937424,0.043095629662275314
1716735164421513700,7.962513671875,9.783007621765137,0.035913024097681046,0.040701430290937424
1716735164431513600,7.972513671875,9.773430824279785,0.026336219161748886,0.0454898327589035
1716735164441513700,7.982513671875,9.783007621765137,0.035913024097681046,0.047884032130241394
1716735164451513600,7.992513671875,9.792584419250488,0.040701430290937424,0.05267243832349777
1716735164461513700,8.002513671875,9.806949615478516,0.047884032130241394,0.043095629662275314
1716735164471513600,8.012513671875,9.787796020507812,0.043095629662275314,0.05985504388809204
1716735164481513700,8.022513671875,9.785401344299316,0.040701430290937424,0.05027823522686958
1716735164491513600,8.032513671875,9.785401344299316,0.038307227194309235,0.0694318488240242
1716735164501513700,8.042513671875,9.785401344299316,0.031124621629714966,0.038307227194309235
1716735164511513600,8.052513671875,9.794978141784668,0.023942016065120697,0.05267243832349777
1716735164521513700,8.062513671875,9.785401344299316,0.026336219161748886,0.038307227194309235
1716735164531513600,8.072513671875,9.794978141784668,0.031124621629714966,0.05027823522686958
1716735164541513700,8.082513671875,9.787796020507812,0.043095629662275314,0.05267243832349777
1716735164551513600,8.092513671875,9.785401344299316,0.05027823522686958,0.0454898327589035
1716735164561513700,8.102513671875,9.787796020507812,0.040701430290937424,0.031124621629714966
1716735164571513600,8.112513671875,9.78061294555664,0.0454898327589035,0.033518824726343155
1716735164581513700,8.122513671875,9.783007621765137,0.023942016065120697,0.040701430290937424
1716735164591513600,8.132513671875,9.783007621765137,0.028730420395731926,0.0454898327589035
1716735164601513700,8.142513671875,9.787796020507812,0.040701430290937424,0.05027823522686958
1716735164611513600,8.152513671875,9.799766540527344,0.05267243832349777,0.0454898327589035
1716735164621513700,8.162513671875,9.794978141784668,0.05746084079146385,0.05267243832349777
1716735164631513600,8.172513671875,9.775824546813965,0.028730420395731926,0.05746084079146385
1716735164641513700,8.182513671875,9.766247749328613,0.0454898327589035,0.0454898327589035
1716735164651513600,8.192513671875,9.787796020507812,0.026336219161748886,0.0694318488240242
1716735164661513700,8.202513671875,9.806949615478516,0.05027823522686958,0.040701430290937424
1716735164671513600,8.212513671875,9.792584419250488,0.031124621629714966,0.038307227194309235
1716735164681513700,8.222513671875,9.785401344299316,0.026336219161748886,0.028730420395731926
1716735164691513600,8.232513671875,9.773430824279785,0.05746084079146385,0.05027823522686958
1716735164701513700,8.242513671875,9.840468406677246,0.038307227194309235,0.040701430290937424
1716735164711513600,8.252513671875,9.847650527954102,0.038307227194309235,0.05985504388809204
1716735164721513700,8.262513671875,9.766247749328613,0.014365210197865963,0.05506663769483566
1716735164731513600,8.272513671875,9.644144058227539,0.040701430290937424,0.06703764945268631
1716735164741513700,8.282513671875,9.814131736755371,0.038307227194309235,0.06703764945268631
1716735164751513600,8.292513671875,9.89553451538086,0.038307227194309235,0.05746084079146385
1716735164761513700,8.302513671875,9.785401344299316,0.043095629662275314,0.047884032130241394
1716735164771513600,8.312513671875,9.737517356872559,0.040701430290937424,0.05027823522686958
1716735164781513700,8.322513671875,9.783007621765137,0.05506663769483566,0.05746084079146385
1716735164791513600,8.332513671875,9.85962200164795,0.043095629662275314,0.035913024097681046
1716735164801513700,8.342513671875,9.809343338012695,0.033518824726343155,0.033518824726343155
1716735164811513600,8.352513671875,9.723152160644531,0.011971008032560349,0.047884032130241394
1716735164821513700,8.362513671875,9.778219223022461,0.021547814831137657,0.035913024097681046
1716735164831513600,8.372513671875,9.845256805419922,0.05027823522686958,0.06703764945268631
1716735164841513700,8.382513671875,9.806949615478516,0.05027823522686958,0.05267243832349777
1716735164851513600,8.392513671875,9.732728958129883,0.043095629662275314,0.040701430290937424
1716735164861513700,8.402513671875,9.783007621765137,0.05746084079146385,0.06703764945268631
1716735164871513600,8.412513671875,9.826103210449219,0.038307227194309235,0.038307227194309235
1716735164881513700,8.422513671875,9.797372817993164,0.038307227194309235,0.05027823522686958
1716735164891513600,8.432513671875,9.749488830566406,0.014365210197865963,0.05506663769483566
1716735164901513700,8.442513671875,9.792584419250488,0.021547814831137657,0.0454898327589035
1716735164911513600,8.452513671875,9.821314811706543,0.026336219161748886,0.05746084079146385
1716735164921513700,8.462513671875,9.816526412963867,0.05027823522686958,0.05267243832349777
1716735164931513600,8.472513671875,9.74709415435791,0.047884032130241394,0.043095629662275314
1716735164941513700,8.482513671875,9.761459350585938,0.047884032130241394,0.06224924325942993
1716735164951513600,8.492513671875,9.818920135498047,0.035913024097681046,0.05506663769483566
1716735164961513700,8.502513671875,9.809343338012695,0.016759412363171577,0.05506663769483566
1716735164971513600,8.512513671875,9.76864242553711,0.035913024097681046,0.05267243832349777
1716735164981513700,8.522513671875,9.773430824279785,0.035913024097681046,0.05746084079146385
1716735164991513600,8.532513671875,9.818920135498047,0.05506663769483566,0.031124621629714966
1716735165001513700,8.542513671875,9.80455493927002,0.05746084079146385,0.05746084079146385
1716735165011513600,8.552513671875,9.766247749328613,0.043095629662275314,0.0454898327589035
1716735165021513700,8.562513671875,9.766247749328613,0.035913024097681046,0.05985504388809204
1716735165031513600,8.572513671875,9.797372817993164,0.040701430290937424,0.05746084079146385
1716735165041513700,8.582513671875,9.809343338012695,0.043095629662275314,0.038307227194309235
1716735165051513600,8.592513671875,9.783007621765137,0.038307227194309235,0.05027823522686958
1716735165061513700,8.602513671875,9.771036148071289,0.0454898327589035,0.05267243832349777
1716735165071513600,8.612513671875,9.806949615478516,0.038307227194309235,0.033518824726343155
1716735165081513700,8.622513671875,9.814131736755371,0.0454898327589035,0.040701430290937424
1716735165091513600,8.632513671875,9.78061294555664,0.031124621629714966,0.038307227194309235
1716735165101513700,8.642513671875,9.78061294555664,0.06224924325942993,0.06224924325942993
1716735165111513600,8.652513671875,9.787796020507812,0.035913024097681046,0.038307227194309235
1716735165121513700,8.662513671875,9.806949615478516,0.05267243832349777,0.05506663769483566
1716735165131513600,8.672513671875,9.783007621765137,0.038307227194309235,0.05985504388809204
1716735165141513700,8.682513671875,9.778219223022461,0.033518824726343155,0.047884032130241394
1716735165151513600,8.692513671875,9.799766540527344,0.033518824726343155,0.040701430290937424
1716735165161513700,8.702513671875,9.799766540527344,0.040701430290937424,0.031124621629714966
1716735165171513600,8.712513671875,9.783007621765137,0.05506663769483566,0.038307227194309235
1716735165181513700,8.722513671875,9.761459350585938,0.040701430290937424,0.05506663769483566
1716735165191513600,8.732513671875,9.790189743041992,0.031124621629714966,0.05267243832349777
1716735165201513700,8.742513671875,9.797372817993164,0.033518824726343155,0.031124621629714966
1716735165211513600,8.752513671875,9.78061294555664,0.0454898327589035,0.035913024097681046
1716735165221513700,8.762513671875,9.785401344299316,0.033518824726343155,0.05027823522686958
1716735165231513600,8.772513671875,9.787796020507812,0.047884032130241394,0.040701430290937424
1716735165241513700,8.782513671875,9.80216121673584,0.0454898327589035,0.043095629662275314
1716735165251513600,8.792513671875,9.792584419250488,0.0454898327589035,0.035913024097681046
1716735165261513700,8.802513671875,9.773430824279785,0.031124621629714966,0.033518824726343155
1716735165271513600,8.812513671875,9.797372817993164,0.019153613597154617,0.035913024097681046
1716735165281513700,8.822513671875,9.790189743041992,0.038307227194309235,0.040701430290937424
1716735165291513600,8.832513671875,9.787796020507812,0.028730420395731926,0.0454898327589035
1716735165301513700,8.842513671875,9.783007621765137,0.019153613597154617,0.05506663769483566
1716735165311513600,8.852513671875,9.80455493927002,0.05985504388809204,0.05267243832349777
1716735165321513700,8.862513671875,9.794978141784668,0.05506663769483566,0.05027823522686958
1716735165331513600,8.872513671875,9.790189743041992,0.043095629662275314,0.038307227194309235
1716735165341513700,8.882513671875,9.78061294555664,0.033518824726343155,0.040701430290937424
1716735165351513600,8.892513671875,9.78061294555664,0.028730420395731926,0.038307227194309235
1716735165361513700,8.902513671875,9.797372817993164,0.0454898327589035,0.043095629662275314
1716735165371513600,8.912513671875,9.785401344299316,0.028730420395731926,0.05985504388809204
1716735165381513700,8.922513671875,9.783007621765137,0.028730420395731926,0.040701430290937424
1716735165391513600,8.932513671875,9.80216121673584,0.031124621629714966,0.026336219161748886
1716735165401513700,8.942513671875,9.78061294555664,0.047884032130241394,0.05267243832349777
1716735165411513600,8.952513671875,9.783007621765137,0.043095629662275314,0.043095629662275314
1716735165421513700,8.962513671875,9.792584419250488,0.043095629662275314,0.040701430290937424
1716735165431513600,8.972513671875,9.778219223022461,0.040701430290937424,0.05985504388809204
1716735165441513700,8.982513671875,9.790189743041992,0.021547814831137657,0.0454898327589035
1716735165451513600,8.992513671875,9.792584419250488,0.031124621629714966,0.05506663769483566
1716735165461513700,9.002513671875,9.785401344299316,0.038307227194309235,0.043095629662275314
1716735165471513600,9.012513671875,9.790189743041992,0.021547814831137657,0.043095629662275314
1716735165481513700,9.022513671875,9.797372817993164,0.0454898327589035,0.05027823522686958
1716735165491513600,9.032513671875,9.787796020507812,0.035913024097681046,0.028730420395731926
1716735165501513700,9.042513671875,9.811738014221191,0.031124621629714966,0.035913024097681046
1716735165511513600,9.052513671875,9.783007621765137,0.028730420395731926,0.035913024097681046
1716735165521513700,9.062513671875,9.80455493927002,0.033518824726343155,0.05746084079146385
1716735165531513600,9.072513671875,9.797372817993164,0.0454898327589035,0.047884032130241394
1716735165541513700,9.082513671875,9.790189743041992,0.043095629662275314,0.028730420395731926
1716735165551513600,9.092513671875,9.792584419250488,0.043095629662275314,0.05267243832349777
1716735165561513700,9.102513671875,9.797372817993164,0.021547814831137657,0.047884032130241394
1716735165571513600,9.112513671875,9.785401344299316,0.033518824726343155,0.05746084079146385
1716735165581513700,9.122513671875,9.790189743041992,0.035913024097681046,0.040701430290937424
1716735165591513600,9.132513671875,9.797372817993164,0.05985504388809204,0.05746084079146385
1716735165601513700,9.142513671875,9.790189743041992,0.035913024097681046,0.047884032130241394
1716735165611513600,9.152513671875,9.80216121673584,0.031124621629714966,0.047884032130241394
1716735165621513700,9.162513671875,9.78061294555664,0.023942016065120697,0.0454898327589035
1716735165631513600,9.172513671875,9.790189743041992,0.038307227194309235,0.035913024097681046
1716735165641513700,9.182513671875,9.785401344299316,0.047884032130241394,0.0454898327589035
1716735165651513600,9.192513671875,9.792584419250488,0.0454898327589035,0.043095629662275314
1716735165661513700,9.202513671875,9.660902976989746,0.0694318488240242,0.07182604819536209
1716735165671513600,9.212513671875,9.8691987991333,0.05027823522686958,0.014365210197865963
1716735165681513700,9.222513671875,9.816526412963867,0.033518824726343155,0.05267243832349777
1716735165691513600,9.232513671875,9.78061294555664,0.014365210197865963,0.05506663769483566
1716735165701513700,9.242513671875,9.696816444396973,0.016759412363171577,0.047884032130241394
1716735165711513600,9.252513671875,9.823708534240723,0.002394201699644327,0.06224924325942993
1716735165721513700,9.262513671875,9.826103210449219,0.05027823522686958,0.035913024097681046
1716735165731513600,9.272513671875,9.783007621765137,0.05506663769483566,0.038307227194309235
1716735165741513700,9.282513671875,9.737517356872559,0.038307227194309235,0.0694318488240242
1716735165751513600,9.292513671875,9.799766540527344,0.035913024097681046,0.035913024097681046
1716735165761513700,9.302513671875,9.845256805419922,0.031124621629714966,0.031124621629714966
1716735165771513600,9.312513671875,9.790189743041992,0.021547814831137657,0.021547814831137657
1716735165781513700,9.322513671875,9.754277229309082,0.031124621629714966,0.035913024097681046
1716735165791513600,9.332513671875,9.806949615478516,0.033518824726343155,0.05985504388809204
1716735165801513700,9.342513671875,9.823708534240723,0.016759412363171577,0.040701430290937424
1716735165811513600,9.352513671875,9.785401344299316,0.043095629662275314,0.035913024097681046
1716735165821513700,9.362513671875,9.766247749328613,0.06224924325942993,0.038307227194309235
1716735165831513600,9.372513671875,9.792584419250488,0.033518824726343155,0.05027823522686958
1716735165841513700,9.382513671875,9.83568000793457,0.035913024097681046,0.05506663769483566
1716735165851513600,9.392513671875,9.794978141784668,0.038307227194309235,0.047884032130241394
1716735165861513700,9.402513671875,9.763854026794434,0.035913024097681046,0.05267243832349777
1716735165871513600,9.412513671875,9.787796020507812,0.031124621629714966,0.0454898327589035
1716735165881513700,9.422513671875,9.816526412963867,0.016759412363171577,0.07182604819536209
1716735165891513600,9.432513671875,9.799766540527344,0.028730420395731926,0.05746084079146385
1716735165901513700,9.442513671875,9.763854026794434,0.05746084079146385,0.05746084079146385
1716735165911513600,9.452513671875,9.76864242553711,0.05506663769483566,0.019153613597154617
1716735165921513700,9.462513671875,9.826103210449219,0.05027823522686958,0.047884032130241394
1716735165931513600,9.472513671875,9.797372817993164,0.031124621629714966,0.043095629662275314
1716735165941513700,9.482513671875,9.766247749328613,0.019153613597154617,0.05985504388809204
1716735165951513600,9.492513671875,9.785401344299316,0.033518824726343155,0.043095629662275314
1716735165961513700,9.502513671875,9.80455493927002,0.031124621629714966,0.05746084079146385
1716735165971513600,9.512513671875,9.794978141784668,0.040701430290937424,0.047884032130241394
1716735165981513700,9.522513671875,9.773430824279785,0.05027823522686958,0.05267243832349777
1716735165991513600,9.532513671875,9.783007621765137,0.05506663769483566,0.0454898327589035
1716735166001513700,9.542513671875,9.792584419250488,0.0454898327589035,0.047884032130241394
1716735166011513600,9.552513671875,9.818920135498047,0.021547814831137657,0.033518824726343155
1716735166021513700,9.562513671875,9.794978141784668,0.033518824726343155,0.031124621629714966
1716735166031513600,9.572513671875,9.778219223022461,0.035913024097681046,0.038307227194309235
1716735166041513700,9.582513671875,9.811738014221191,0.040701430290937424,0.05267243832349777
1716735166051513600,9.592513671875,9.799766540527344,0.05506663769483566,0.05506663769483566
1716735166061513700,9.602513671875,9.76864242553711,0.028730420395731926,0.0454898327589035
1716735166071513600,9.612513671875,9.785401344299316,0.043095629662275314,0.0454898327589035
1716735166081513700,9.622513671875,9.797372817993164,0.047884032130241394,0.0454898327589035
1716735166091513600,9.632513671875,9.821314811706543,0.021547814831137657,0.05267243832349777
1716735166101513700,9.642513671875,9.775824546813965,0.028730420395731926,0.05027823522686958
1716735166111513600,9.652513671875,9.775824546813965,0.033518824726343155,0.035913024097681046
1716735166121513700,9.662513671875,9.787796020507812,0.033518824726343155,0.040701430290937424
1716735166131513600,9.672513671875,9.794978141784668,0.043095629662275314,0.038307227194309235
1716735166141513700,9.682513671875,9.790189743041992,0.043095629662275314,0.047884032130241394
1716735166151513600,9.692513671875,9.794978141784668,0.031124621629714966,0.035913024097681046
1716735166161513700,9.702513671875,9.80455493927002,0.047884032130241394,0.05985504388809204
1716735166171513600,9.712513671875,9.806949615478516,0.031124621629714966,0.028730420395731926
1716735166181513700,9.722513671875,9.797372817993164,0.035913024097681046,0.035913024097681046
1716735166191513600,9.732513671875,9.787796020507812,0.023942016065120697,0.0694318488240242
1716735166201513700,9.742513671875,9.809343338012695,0.026336219161748886,0.035913024097681046
1716735166211513900,9.752513916015625,9.792584419250488,0.035913024097681046,0.047884032130241394
1716735166221513700,9.762513671875,9.799766540527344,0.038307227194309235,0.05746084079146385
1716735166231513900,9.772513916015624,9.790189743041992,0.038307227194309235,0.05267243832349777
1716735166241513700,9.782513671875,9.797372817993164,0.038307227194309235,0.05267243832349777
1716735166251513900,9.792513916015626,9.80216121673584,0.028730420395731926,0.06703764945268631
1716735166261513700,9.802513671875,9.80455493927002,0.033518824726343155,0.05746084079146385
1716735166271513900,9.812513916015625,9.783007621765137,0.035913024097681046,0.043095629662275314
1716735166281513700,9.822513671875,9.794978141784668,0.031124621629714966,0.05985504388809204
1716735166291513900,9.832513916015625,9.783007621765137,0.047884032130241394,0.05027823522686958
1716735166301513700,9.842513671875,9.80455493927002,0.043095629662275314,0.040701430290937424
1716735166311513900,9.852513916015624,9.792584419250488,0.038307227194309235,0.035913024097681046
1716735166321513700,9.862513671875,9.797372817993164,0.038307227194309235,0.033518824726343155
1716735166331513900,9.872513916015626,9.816526412963867,0.026336219161748886,0.05267243832349777
1716735166341513700,9.882513671875,9.78061294555664,0.035913024097681046,0.047884032130241394
1716735166351513900,9.892513916015625,9.790189743041992,0.033518824726343155,0.0454898327589035
1716735166361513700,9.902513671875,9.80216121673584,0.040701430290937424,0.05267243832349777
1716735166371513900,9.912513916015625,9.816526412963867,0.0454898327589035,0.043095629662275314
1716735166381513700,9.922513671875,9.787796020507812,0.05267243832349777,0.05267243832349777
1716735166391513900,9.932513916015624,9.797372817993164,0.040701430290937424,0.05267243832349777
1716735166401513700,9.942513671875,9.783007621765137,0.05985504388809204,0.040701430290937424
1716735166411513900,9.952513916015626,9.785401344299316,0.05027823522686958,0.035913024097681046
1716735166421513700,9.962513671875,9.80455493927002,0.043095629662275314,0.043095629662275314
1716735166431513900,9.972513916015625,9.785401344299316,0.035913024097681046,0.0454898327589035
1716735166441513700,9.982513671875,9.785401344299316,0.038307227194309235,0.043095629662275314
1716735166451513900,9.992513916015625,9.80216121673584,0.0454898327589035,0.05746084079146385
1716735166461513700,10.002513671875,9.806949615478516,0.038307227194309235,0.05267243832349777
1716735166471513900,10.012513916015624,9.787796020507812,0.040701430290937424,0.043095629662275314
1716735166481513700,10.022513671875,9.794978141784668,0.038307227194309235,0.033518824726343155
1716735166491513900,10.032513916015626,9.794978141784668,0.043095629662275314,0.0454898327589035
1716735166501513700,10.042513671875,9.792584419250488,0.033518824726343155,0.040701430290937424
1716735166511513600,10.052513671875,9.792584419250488,0.028730420395731926,0.047884032130241394
1716735166521513700,10.062513671875,9.792584419250488,0.047884032130241394,0.040701430290937424
1716735166531513600,10.072513671875,9.794978141784668,0.0454898327589035,0.05027823522686958
1716735166541513700,10.082513671875,9.790189743041992,0.043095629662275314,0.0454898327589035
1716735166551513600,10.092513671875,9.794978141784668,0.05985504388809204,0.05027823522686958
1716735166561513700,10.102513671875,9.790189743041992,0.05027823522686958,0.06224924325942993
1716735166571513600,10.112513671875,9.794978141784668,0.043095629662275314,0.05027823522686958
1716735166581513700,10.122513671875,9.794978141784668,0.033518824726343155,0.047884032130241394
1716735166591513600,10.132513671875,9.80216121673584,0.033518824726343155,0.05506663769483566
1716735166601513700,10.142513671875,9.792584419250488,0.0454898327589035,0.035913024097681046
1716735166611513600,10.152513671875,9.799766540527344,0.043095629662275314,0.05027823522686958
1716735166621513700,10.162513671875,9.794978141784668,0.05027823522686958,0.05506663769483566
1716735166631513600,10.172513671875,9.787796020507812,0.043095629662275314,0.038307227194309235
1716735166641513700,10.182513671875,9.785401344299316,0.040701430290937424,0.05027823522686958
1716735166651513600,10.192513671875,9.799766540527344,0.031124621629714966,0.035913024097681046
1716735166661513700,10.202513671875,9.80216121673584,0.0454898327589035,0.047884032130241394
1716735166671513600,10.212513671875,9.790189743041992,0.021547814831137657,0.043095629662275314
1716735166681513700,10.222513671875,9.948206901550293,0.05985504388809204,0.011971008032560349
1716735166691513600,10.232513671875,9.8691987991333,0.038307227194309235,0.028730420395731926
1716735166701513700,10.242513671875,9.80455493927002,0.05027823522686958,0.0454898327589035
1716735166711513600,10.252513671875,9.763854026794434,0.016759412363171577,0.043095629662275314
1716735166721513700,10.262513671875,9.730335235595703,0.021547814831137657,0.035913024097681046
1716735166731513600,10.272513671875,9.857227325439453,0.033518824726343155,0.05746084079146385
1716735166741513700,10.282513671875,9.818920135498047,0.031124621629714966,0.05985504388809204
1716735166751513600,10.292513671875,9.74709415435791,0.08379705995321274,0.0454898327589035
1716735166761513700,10.302513671875,9.761459350585938,0.06224924325942993,0.05506663769483566
1716735166771513600,10.312513671875,9.826103210449219,0.05267243832349777,0.05027823522686958
1716735166781513700,10.322513671875,9.80216121673584,0.043095629662275314,0.033518824726343155
1716735166791513600,10.332513671875,9.754277229309082,0.038307227194309235,0.0454898327589035
1716735166801513700,10.342513671875,9.761459350585938,0.016759412363171577,0.05267243832349777
1716735166811513600,10.352513671875,9.814131736755371,0.021547814831137657,0.035913024097681046
1716735166821513700,10.362513671875,9.80455493927002,0.043095629662275314,0.043095629662275314
1716735166831513600,10.372513671875,9.766247749328613,0.047884032130241394,0.033518824726343155
1716735166841513700,10.382513671875,9.773430824279785,0.05267243832349777,0.06224924325942993
1716735166851513600,10.392513671875,9.818920135498047,0.05027823522686958,0.05027823522686958
1716735166861513700,10.402513671875,9.816526412963867,0.033518824726343155,0.05506663769483566
1716735166871513600,10.412513671875,9.787796020507812,0.040701430290937424,0.05027823522686958
1716735166881513700,10.422513671875,9.766247749328613,0.033518824726343155,0.05746084079146385
1716735166891513600,10.432513671875,9.806949615478516,0.023942016065120697,0.047884032130241394
1716735166901513700,10.442513671875,9.818920135498047,0.040701430290937424,0.043095629662275314
1716735166911513600,10.452513671875,9.790189743041992,0.043095629662275314,0.05985504388809204
1716735166921513700,10.462513671875,9.773430824279785,0.06224924325942993,0.05506663769483566
1716735166931513600,10.472513671875,9.790189743041992,0.043095629662275314,0.05746084079146385
1716735166941513700,10.482513671875,9.816526412963867,0.043095629662275314,0.05027823522686958
1716735166951513600,10.492513671875,9.785401344299316,0.031124621629714966,0.047884032130241394
1716735166961513700,10.502513671875,9.771036148071289,0.016759412363171577,0.026336219161748886
1716735166971513600,10.512513671875,9.797372817993164,0.031124621629714966,0.0454898327589035
1716735166981513700,10.522513671875,9.809343338012695,0.043095629662275314,0.06703764945268631
1716735166991513600,10.532513671875,9.792584419250488,0.05027823522686958,0.043095629662275314
1716735167001513700,10.542513671875,9.787796020507812,0.05267243832349777,0.05027823522686958
1716735167011513600,10.552513671875,9.792584419250488,0.05027823522686958,0.05506663769483566
1716735167021513700,10.562513671875,9.811738014221191,0.05027823522686958,0.047884032130241394
1716735167031513600,10.572513671875,9.785401344299316,0.009576806798577309,0.06464344263076782
1716735167041513700,10.582513671875,9.763854026794434,0.021547814831137657,0.038307227194309235
1716735167051513600,10.592513671875,9.792584419250488,0.026336219161748886,0.033518824726343155
1716735167061513700,10.602513671875,9.809343338012695,0.043095629662275314,0.05506663769483566
1716735167071513600,10.612513671875,9.794978141784668,0.021547814831137657,0.05506663769483566
1716735167081513700,10.622513671875,9.778219223022461,0.040701430290937424,0.040701430290937424
1716735167091513600,10.632513671875,9.787796020507812,0.028730420395731926,0.05027823522686958
1716735167101513700,10.642513671875,9.809343338012695,0.05267243832349777,0.05027823522686958
1716735167111513600,10.652513671875,9.790189743041992,0.028730420395731926,0.043095629662275314
1716735167121513700,10.662513671875,9.78061294555664,0.026336219161748886,0.043095629662275314
1716735167131513600,10.672513671875,9.78061294555664,0.028730420395731926,0.06224924325942993
1716735167141513700,10.682513671875,9.806949615478516,0.040701430290937424,0.038307227194309235
1716735167151513600,10.692513671875,9.787796020507812,0.040701430290937424,0.0454898327589035
1716735167161513700,10.702513671875,9.785401344299316,0.038307227194309235,0.0454898327589035
1716735167171513600,10.712513671875,9.792584419250488,0.047884032130241394,0.035913024097681046
1716735167181513700,10.722513671875,9.799766540527344,0.035913024097681046,0.05027823522686958
1716735167191513600,10.732513671875,9.792584419250488,0.047884032130241394,0.031124621629714966
1716735167201513700,10.742513671875,9.790189743041992,0.031124621629714966,0.05027823522686958
1716735167211513600,10.752513671875,9.787796020507812,0.033518824726343155,0.038307227194309235
1716735167221513700,10.762513671875,9.783007621765137,0.06224924325942993,0.05267243832349777
1716735167231513600,10.772513671875,9.792584419250488,0.05027823522686958,0.047884032130241394
1716735167241513700,10.782513671875,9.778219223022461,0.043095629662275314,0.023942016065120697
1716735167251513600,10.792513671875,9.783007621765137,0.031124621629714966,0.0454898327589035
1716735167261513700,10.802513671875,9.797372817993164,0.05027823522686958,0.0454898327589035
1716735167271513600,10.812513671875,9.792584419250488,0.047884032130241394,0.043095629662275314
1716735167281513700,10.822513671875,9.80216121673584,0.06224924325942993,0.026336219161748886
1716735167291513600,10.832513671875,9.799766540527344,0.0454898327589035,0.043095629662275314
1716735167301513700,10.842513671875,9.797372817993164,0.019153613597154617,0.040701430290937424
1716735167311513600,10.852513671875,9.792584419250488,0.0454898327589035,0.040701430290937424
1716735167321513700,10.862513671875,9.794978141784668,0.031124621629714966,0.05985504388809204
1716735167331513600,10.872513671875,9.778219223022461,0.026336219161748886,0.05027823522686958
1716735167341513700,10.882513671875,9.806949615478516,0.023942016065120697,0.05027823522686958
1716735167351513600,10.892513671875,9.792584419250488,0.028730420395731926,0.05506663769483566
1716735167361513700,10.902513671875,9.787796020507812,0.043095629662275314,0.033518824726343155
1716735167371513600,10.912513671875,9.80216121673584,0.031124621629714966,0.043095629662275314
1716735167381513700,10.922513671875,9.80216121673584,0.040701430290937424,0.031124621629714966
1716735167391513600,10.932513671875,9.792584419250488,0.05027823522686958,0.038307227194309235
1716735167401513700,10.942513671875,9.778219223022461,0.043095629662275314,0.05267243832349777
1716735167411513600,10.952513671875,9.783007621765137,0.047884032130241394,0.043095629662275314
1716735167421513700,10.962513671875,9.80455493927002,0.05027823522686958,0.06224924325942993
1716735167431513600,10.972513671875,9.797372817993164,0.033518824726343155,0.06224924325942993
1716735167441513700,10.982513671875,9.792584419250488,0.031124621629714966,0.040701430290937424
1716735167451513600,10.992513671875,9.783007621765137,0.033518824726343155,0.038307227194309235
1716735167461513700,11.002513671875,9.797372817993164,0.038307227194309235,0.047884032130241394
1716735167471513600,11.012513671875,9.792584419250488,0.05027823522686958,0.035913024097681046
1716735167481513700,11.022513671875,9.773430824279785,0.038307227194309235,0.06703764945268631
1716735167491513600,11.032513671875,9.78061294555664,0.043095629662275314,0.040701430290937424
1716735167501513700,11.042513671875,9.790189743041992,0.035913024097681046,0.05267243832349777
1716735167511513600,11.052513671875,9.80216121673584,0.038307227194309235,0.05267243832349777
1716735167521513700,11.062513671875,9.785401344299316,0.031124621629714966,0.040701430290937424
1716735167531513600,11.072513671875,9.790189743041992,0.026336219161748886,0.06464344263076782
1716735167541513700,11.082513671875,9.797372817993164,0.043095629662275314,0.06224924325942993
1716735167551513600,11.092513671875,9.785401344299316,0.05027823522686958,0.028730420395731926
1716735167561513700,11.102513671875,9.792584419250488,0.06703764945268631,0.035913024097681046
1716735167571513600,11.112513671875,9.797372817993164,0.038307227194309235,0.05027823522686958
1716735167581513700,11.122513671875,9.787796020507812,0.023942016065120697,0.05267243832349777
1716735167591513600,11.132513671875,9.797372817993164,0.0454898327589035,0.05985504388809204
1716735167601513700,11.142513671875,9.790189743041992,0.031124621629714966,0.0454898327589035
1716735167611513600,11.152513671875,9.790189743041992,0.035913024097681046,0.0454898327589035
1716735167621513700,11.162513671875,9.792584419250488,0.033518824726343155,0.05027823522686958
1716735167631513600,11.172513671875,9.783007621765137,0.033518824726343155,0.047884032130241394
1716735167641513700,11.182513671875,9.632172584533691,0.05027823522686958,0.047884032130241394
1716735167651513600,11.192513671875,9.775824546813965,0.0694318488240242,0.0454898327589035
1716735167661513700,11.202513671875,9.900322914123535,0.038307227194309235,0.043095629662275314
1716735167671513600,11.212513671875,9.866804122924805,0.040701430290937424,0.040701430290937424
1716735167681513700,11.222513671875,9.74709415435791,0.002394201699644327,0.05506663769483566
1716735167691513600,11.232513671875,9.71357536315918,0.016759412363171577,0.0454898327589035
1716735167701513700,11.242513671875,9.814131736755371,0.047884032130241394,0.06464344263076782
1716735167711513600,11.252513671875,9.857227325439453,0.06703764945268631,0.05267243832349777
1716735167721513700,11.262513671875,9.773430824279785,0.05985504388809204,0.06224924325942993
1716735167731513600,11.272513671875,9.725546836853027,0.043095629662275314,0.047884032130241394
1716735167741513700,11.282513671875,9.816526412963867,0.040701430290937424,0.040701430290937424
1716735167751513600,11.292513671875,9.833285331726074,0.043095629662275314,0.038307227194309235
1716735167761513700,11.302513671875,9.766247749328613,0.040701430290937424,0.05746084079146385
1716735167771513600,11.312513671875,9.751882553100586,0.014365210197865963,0.043095629662275314
1716735167781513700,11.322513671875,9.816526412963867,0.031124621629714966,0.05985504388809204
1716735167791513600,11.332513671875,9.828496932983398,0.038307227194309235,0.043095629662275314
1716735167801513700,11.342513671875,9.76864242553711,0.0454898327589035,0.043095629662275314
1716735167811513600,11.352513671875,9.756670951843262,0.05746084079146385,0.047884032130241394
1716735167821513700,11.362513671875,9.80455493927002,0.05267243832349777,0.05027823522686958
1716735167831513600,11.372513671875,9.833285331726074,0.035913024097681046,0.05027823522686958
1716735167841513700,11.382513671875,9.783007621765137,0.026336219161748886,0.06464344263076782
1716735167851513600,11.392513671875,9.761459350585938,0.026336219161748886,0.035913024097681046
1716735167861513700,11.402513671875,9.792584419250488,0.028730420395731926,0.06224924325942993
1716735167871513600,11.412513671875,9.823708534240723,0.047884032130241394,0.0454898327589035
1716735167881513700,11.422513671875,9.783007621765137,0.05985504388809204,0.043095629662275314
1716735167891513600,11.432513671875,9.74470043182373,0.043095629662275314,0.0454898327589035
1716735167901513700,11.442513671875,9.771036148071289,0.05027823522686958,0.033518824726343155
1716735167911513600,11.452513671875,9.821314811706543,0.026336219161748886,0.038307227194309235
1716735167921513700,11.462513671875,9.790189743041992,0.031124621629714966,0.0454898327589035
1716735167931513600,11.472513671875,9.771036148071289,0.026336219161748886,0.05027823522686958
1716735167941513700,11.482513671875,9.771036148071289,0.040701430290937424,0.05506663769483566
1716735167951513600,11.492513671875,9.814131736755371,0.0454898327589035,0.033518824726343155
1716735167961513700,11.502513671875,9.797372817993164,0.06224924325942993,0.0454898327589035
1716735167971513600,11.512513671875,9.76864242553711,0.05027823522686958,0.05027823522686958
1716735167981513700,11.522513671875,9.785401344299316,0.040701430290937424,0.06224924325942993
1716735167991513600,11.532513671875,9.809343338012695,0.038307227194309235,0.05746084079146385
1716735168001513700,11.542513671875,9.814131736755371,0.038307227194309235,0.047884032130241394
1716735168011513600,11.552513671875,9.773430824279785,0.031124621629714966,0.0454898327589035
1716735168021513700,11.562513671875,9.763854026794434,0.026336219161748886,0.05985504388809204
1716735168031513600,11.572513671875,9.809343338012695,0.043095629662275314,0.043095629662275314
1716735168041513700,11.582513671875,9.80216121673584,0.05267243832349777,0.05027823522686958
1716735168051513600,11.592513671875,9.771036148071289,0.040701430290937424,0.05746084079146385
1716735168061513700,11.602513671875,9.773430824279785,0.047884032130241394,0.05267243832349777
1716735168071513600,11.612513671875,9.811738014221191,0.038307227194309235,0.0694318488240242
1716735168081513700,11.622513671875,9.794978141784668,0.040701430290937424,0.047884032130241394
1716735168091513600,11.632513671875,9.78061294555664,0.011971008032560349,0.040701430290937424
1716735168101513700,11.642513671875,9.778219223022461,0.011971008032560349,0.0454898327589035
1716735168111513600,11.652513671875,9.80455493927002,0.031124621629714966,0.05027823522686958
1716735168121513700,11.662513671875,9.797372817993164,0.031124621629714966,0.026336219161748886
1716735168131513600,11.672513671875,9.78061294555664,0.035913024097681046,0.040701430290937424
1716735168141513700,11.682513671875,9.76864242553711,0.040701430290937424,0.05267243832349777
1716735168151513600,11.692513671875,9.783007621765137,0.031124621629714966,0.043095629662275314
1716735168161513700,11.702513671875,9.792584419250488,0.031124621629714966,0.033518824726343155
1716735168171513600,11.712513671875,9.783007621765137,0.014365210197865963,0.05267243832349777
1716735168181513700,11.722513671875,9.773430824279785,0.038307227194309235,0.06464344263076782
1716735168191513600,11.732513671875,9.797372817993164,0.033518824726343155,0.040701430290937424
1716735168201513700,11.742513671875,9.799766540527344,0.05985504388809204,0.0454898327589035
1716735168211513600,11.752513671875,9.778219223022461,0.05267243832349777,0.05267243832349777
1716735168221513700,11.762513671875,9.783007621765137,0.043095629662275314,0.05746084079146385
1716735168231513600,11.772513671875,9.766247749328613,0.026336219161748886,0.05267243832349777
1716735168241513700,11.782513671875,9.792584419250488,0.035913024097681046,0.0454898327589035
1716735168251513600,11.792513671875,9.799766540527344,0.038307227194309235,0.05027823522686958
1716735168261513700,11.802513671875,9.778219223022461,0.035913024097681046,0.0454898327589035
1716735168271513600,11.812513671875,9.790189743041992,0.047884032130241394,0.043095629662275314
1716735168281513700,11.822513671875,9.797372817993164,0.028730420395731926,0.047884032130241394
1716735168291513600,11.832513671875,9.78061294555664,0.0454898327589035,0.05267243832349777
1716735168301513700,11.842513671875,9.792584419250488,0.033518824726343155,0.05027823522686958
1716735168311513600,11.852513671875,9.787796020507812,0.0454898327589035,0.05746084079146385
1716735168321513700,11.862513671875,9.80455493927002,0.047884032130241394,0.040701430290937424
1716735168331513600,11.872513671875,9.787796020507812,0.021547814831137657,0.06703764945268631
1716735168341513700,11.882513671875,9.783007621765137,0.043095629662275314,0.035913024097681046
1716735168351513600,11.892513671875,9.797372817993164,0.035913024097681046,0.0454898327589035
1716735168361513700,11.902513671875,9.792584419250488,0.047884032130241394,0.05506663769483566
1716735168371513600,11.912513671875,9.794978141784668,0.033518824726343155,0.038307227194309235
1716735168381513700,11.922513671875,9.771036148071289,0.043095629662275314,0.033518824726343155
1716735168391513600,11.932513671875,9.794978141784668,0.047884032130241394,0.035913024097681046
1716735168401513700,11.942513671875,9.790189743041992,0.040701430290937424,0.038307227194309235
1716735168411513600,11.952513671875,9.797372817993164,0.028730420395731926,0.038307227194309235
1716735168421513700,11.962513671875,9.792584419250488,0.031124621629714966,0.047884032130241394
1716735168431513600,11.972513671875,9.794978141784668,0.0454898327589035,0.05267243832349777
1716735168441513200,11.98251318359375,9.794978141784668,0.021547814831137657,0.05027823522686958
1716735168451513300,11.992513427734375,9.799766540527344,0.033518824726343155,0.035913024097681046
1716735168461513200,12.00251318359375,9.785401344299316,0.040701430290937424,0.040701430290937424
1716735168471513300,12.012513427734374,9.792584419250488,0.026336219161748886,0.06703764945268631
1716735168481513500,12.022513427734374,9.792584419250488,0.040701430290937424,0.06464344263076782
1716735168491513300,12.032513427734376,9.790189743041992,0.033518824726343155,0.040701430290937424
1716735168501513500,12.042513427734375,9.783007621765137,0.035913024097681046,0.0454898327589035
1716735168511513300,12.052513427734375,9.790189743041992,0.035913024097681046,0.06703764945268631
1716735168521513500,12.062513427734375,9.806949615478516,0.0454898327589035,0.043095629662275314
1716735168531513300,12.072513427734375,9.787796020507812,0.047884032130241394,0.05506663769483566
1716735168541513500,12.082513427734375,9.785401344299316,0.043095629662275314,0.047884032130241394
1716735168551513300,12.092513427734374,9.785401344299316,0.038307227194309235,0.047884032130241394
1716735168561513500,12.102513427734374,9.785401344299316,0.033518824726343155,0.040701430290937424
1716735168571513300,12.112513427734376,9.792584419250488,0.038307227194309235,0.05027823522686958
1716735168581513500,12.122513427734376,9.785401344299316,0.043095629662275314,0.05506663769483566
1716735168591513300,12.132513427734375,9.792584419250488,0.028730420395731926,0.038307227194309235
1716735168601513500,12.142513427734375,9.787796020507812,0.0454898327589035,0.047884032130241394
1716735168611513300,12.152513427734375,9.799766540527344,0.031124621629714966,0.038307227194309235
1716735168621513500,12.162513427734375,9.787796020507812,0.035913024097681046,0.040701430290937424
1716735168631513300,12.172513427734375,9.78061294555664,0.035913024097681046,0.043095629662275314
1716735168641513500,12.182513427734374,9.787796020507812,0.023942016065120697,0.0454898327589035
1716735168651513300,12.192513427734376,9.787796020507812,0.047884032130241394,0.05506663769483566
1716735168661513500,12.202513427734376,9.783007621765137,0.026336219161748886,0.033518824726343155
1716735168671513300,12.212513427734375,9.648932456970215,0.031124621629714966,0.035913024097681046
1716735168681513500,12.222513427734375,9.771036148071289,0.06703764945268631,0.05027823522686958
1716735168691513300,12.232513427734375,9.907505989074707,0.033518824726343155,0.047884032130241394
1716735168701513500,12.242513427734375,9.842862129211426,0.021547814831137657,0.031124621629714966
1716735168711513300,12.252513427734375,9.696816444396973,0.019153613597154617,0.038307227194309235
1716735168721513500,12.262513427734374,9.730335235595703,0.023942016065120697,0.047884032130241394
1716735168731513300,12.272513427734374,9.83568000793457,0.038307227194309235,0.043095629662275314
1716735168741513700,12.282513671875,9.830891609191895,0.0694318488240242,0.043095629662275314
1716735168751513900,12.292513916015626,9.751882553100586,0.043095629662275314,0.043095629662275314
1716735168761513700,12.302513671875,9.754277229309082,0.043095629662275314,0.043095629662275314
1716735168771513900,12.312513916015625,9.840468406677246,0.047884032130241394,0.040701430290937424
1716735168781513700,12.322513671875,9.811738014221191,0.043095629662275314,0.035913024097681046
1716735168791513600,12.332513671875,9.763854026794434,0.028730420395731926,0.05027823522686958
1716735168801513700,12.342513671875,9.761459350585938,0.043095629662275314,0.047884032130241394
1716735168811513600,12.352513671875,9.821314811706543,0.033518824726343155,0.0454898327589035
1716735168821513700,12.362513671875,9.823708534240723,0.033518824726343155,0.038307227194309235
1716735168831513600,12.372513671875,9.756670951843262,0.0454898327589035,0.035913024097681046
1716735168841513700,12.382513671875,9.763854026794434,0.06703764945268631,0.05027823522686958
1716735168851513600,12.392513671875,9.821314811706543,0.047884032130241394,0.047884032130241394
1716735168861513700,12.402513671875,9.818920135498047,0.040701430290937424,0.06224924325942993
1716735168871513600,12.412513671875,9.771036148071289,0.023942016065120697,0.05267243832349777
1716735168881513700,12.422513671875,9.773430824279785,0.019153613597154617,0.038307227194309235
1716735168891513600,12.432513671875,9.811738014221191,0.019153613597154617,0.038307227194309235
1716735168901513200,12.44251318359375,9.814131736755371,0.05267243832349777,0.043095629662275314
1716735168911513300,12.452513427734376,9.763854026794434,0.05267243832349777,0.07661445438861847
1716735168921513200,12.46251318359375,9.761459350585938,0.07182604819536209,0.047884032130241394
1716735168931513300,12.472513427734375,9.790189743041992,0.038307227194309235,0.0454898327589035
1716735168941513200,12.48251318359375,9.811738014221191,0.038307227194309235,0.05267243832349777
1716735168951513300,12.492513427734375,9.797372817993164,0.028730420395731926,0.05267243832349777
1716735168961513200,12.50251318359375,9.773430824279785,0.026336219161748886,0.047884032130241394
1716735168971513300,12.512513427734374,9.794978141784668,0.019153613597154617,0.05985504388809204
1716735168981513200,12.52251318359375,9.811738014221191,0.038307227194309235,0.05985504388809204
1716735168991513300,12.532513427734376,9.790189743041992,0.043095629662275314,0.0454898327589035
1716735169001513200,12.54251318359375,9.773430824279785,0.05746084079146385,0.0454898327589035
1716735169011513300,12.552513427734375,9.797372817993164,0.040701430290937424,0.026336219161748886
1716735169021513200,12.56251318359375,9.816526412963867,0.019153613597154617,0.033518824726343155
1716735169031513300,12.572513427734375,9.778219223022461,0.0454898327589035,0.040701430290937424
1716735169041513200,12.58251318359375,9.771036148071289,0.043095629662275314,0.031124621629714966
1716735169051513300,12.592513427734374,9.797372817993164,0.043095629662275314,0.05267243832349777
1716735169061513200,12.60251318359375,9.806949615478516,0.031124621629714966,0.06703764945268631
1716735169071513300,12.612513427734376,9.783007621765137,0.05027823522686958,0.040701430290937424
1716735169081513200,12.62251318359375,9.778219223022461,0.035913024097681046,0.033518824726343155
1716735169091513300,12.632513427734375,9.792584419250488,0.05267243832349777,0.0454898327589035
1716735169101513200,12.64251318359375,9.811738014221191,0.033518824726343155,0.040701430290937424
1716735169111513300,12.652513427734375,9.794978141784668,0.028730420395731926,0.05027823522686958
1716735169121513200,12.66251318359375,9.778219223022461,0.033518824726343155,0.05027823522686958
1716735169131513300,12.672513427734375,9.775824546813965,0.031124621629714966,0.05506663769483566
1716735169141513200,12.68251318359375,9.809343338012695,0.040701430290937424,0.038307227194309235
1716735169151513300,12.692513427734376,9.792584419250488,0.038307227194309235,0.033518824726343155
1716735169161513200,12.70251318359375,9.787796020507812,0.05506663769483566,0.043095629662275314
1716735169171513300,12.712513427734375,9.797372817993164,0.047884032130241394,0.047884032130241394
1716735169181513200,12.72251318359375,9.799766540527344,0.033518824726343155,0.05267243832349777
1716735169191513300,12.732513427734375,9.799766540527344,0.040701430290937424,0.06464344263076782
1716735169201513700,12.742513671875,9.787796020507812,0.040701430290937424,0.05267243832349777
1716735169211513600,12.752513671875,9.785401344299316,0.047884032130241394,0.040701430290937424
1716735169221513700,12.762513671875,9.794978141784668,0.043095629662275314,0.031124621629714966
1716735169231513600,12.772513671875,9.792584419250488,0.05746084079146385,0.05746084079146385
1716735169241513700,12.782513671875,9.78061294555664,0.033518824726343155,0.0454898327589035
1716735169251513600,12.792513671875,9.792584419250488,0.019153613597154617,0.0454898327589035
1716735169261513700,12.802513671875,9.80455493927002,0.05027823522686958,0.0454898327589035
1716735169271513600,12.812513671875,9.785401344299316,0.0454898327589035,0.047884032130241394
1716735169281513700,12.822513671875,9.790189743041992,0.026336219161748886,0.047884032130241394
1716735169291513600,12.832513671875,9.794978141784668,0.033518824726343155,0.05027823522686958
1716735169301513700,12.842513671875,9.785401344299316,0.026336219161748886,0.038307227194309235
1716735169311513600,12.852513671875,9.799766540527344,0.0454898327589035,0.043095629662275314
1716735169321513700,12.862513671875,9.778219223022461,0.043095629662275314,0.038307227194309235
1716735169331513600,12.872513671875,9.790189743041992,0.05027823522686958,0.05267243832349777
1716735169341513700,12.882513671875,9.783007621765137,0.040701430290937424,0.0454898327589035
1716735169351023900,12.89202392578125,9.787796020507812,0.035913024097681046,0.047884032130241394
1716735169361023700,12.902023681640625,9.785401344299316,0.026336219161748886,0.043095629662275314
1716735169371024000,12.91202392578125,9.787796020507812,0.035913024097681046,0.0454898327589035
1716735169381023700,12.922023681640624,9.80455493927002,0.033518824726343155,0.06464344263076782
1716735169391023900,12.93202392578125,9.797372817993164,0.033518824726343155,0.05267243832349777
1716735169401023700,12.942023681640626,9.799766540527344,0.031124621629714966,0.035913024097681046
1716735169411024000,12.95202392578125,9.794978141784668,0.038307227194309235,0.05985504388809204
1716735169421023700,12.962023681640625,9.80216121673584,0.035913024097681046,0.05267243832349777
1716735169431023900,12.97202392578125,9.787796020507812,0.031124621629714966,0.035913024097681046
1716735169441023700,12.982023681640625,9.792584419250488,0.028730420395731926,0.035913024097681046
1716735169451024000,12.99202392578125,9.790189743041992,0.0454898327589035,0.06703764945268631
1716735169461023700,13.002023681640624,9.794978141784668,0.05027823522686958,0.043095629662275314
1716735169471023900,13.01202392578125,9.792584419250488,0.040701430290937424,0.043095629662275314
1716735169481023700,13.022023681640626,9.790189743041992,0.023942016065120697,0.05506663769483566
1716735169491024000,13.03202392578125,9.78061294555664,0.040701430290937424,0.05746084079146385
1716735169501023700,13.042023681640625,9.775824546813965,0.047884032130241394,0.035913024097681046
