time,seconds_elapsed,z,y,x
1717857650107767800,0.094767822265625,0.0005658057052642107,-0.0013742996379733086,0.0003695450723171234
1717857650117809000,0.104808837890625,-0.000743404496461153,-0.0003982512280344963,0.0014696968719363213
1717857650127849700,0.114849609375,0.0000760294497013092,-0.000287848524749279,0.0008320263586938381
1717857650137889800,0.124889892578125,-0.0003769742324948311,-0.0008321991190314293,0.00016969814896583557
1717857650147931000,0.134930908203125,-0.0013252783101052046,0.0009197872132062912,0.0011076168157160282
1717857650157972000,0.144971923828125,-0.0007124850526452065,-0.0007883645594120026,0.00012224726378917694
1717857650168012800,0.1550126953125,0.0012914992403239012,-0.001194668933749199,0.0007178289815783501
1717857650178054000,0.165053955078125,-0.0008480844553560019,-0.00015204213559627533,-0.00013837730512022972
1717857650188095000,0.175094970703125,0.0017133476212620735,-0.00007529556751251221,0.0012418627738952637
1717857650198135800,0.1851357421875,-0.0008451514877378941,0.000924987718462944,0.000906837172806263
1717857650208177000,0.195177001953125,0.00029703625477850437,-0.0005658464506268501,0.0004219324328005314
1717857650218217700,0.2052177734375,0.0003279286902397871,0.000007531605660915375,-0.0007107099518179893
1717857650228258800,0.2152587890625,0.00014158687554299831,0.001307627186179161,0.000684292521327734
1717857650238300000,0.2252998046875,0.00028859334997832775,0.00006233248859643936,0.0020757943857461214
1717857650248340700,0.2353408203125,-0.0002908718306571245,-0.001289932057261467,0.0002235686406493187
1717857650258381800,0.2453818359375,-0.0006860848516225815,-0.00148753821849823,0.0008209156803786755
1717857650268423000,0.2554228515625,-0.00001423410139977932,0.0004182523116469383,0.0011142920702695847
1717857650278463700,0.265463623046875,-0.0004840157926082611,-0.0007058680057525635,0.00038218870759010315
1717857650288504800,0.2755048828125,-0.0007667513564229012,-0.0010109832510352135,0.0003196415491402149
1717857650298546000,0.2855458984375,0.0008615055121481419,0.0003080805763602257,0.000883433036506176
1717857650308586800,0.295586669921875,-0.00012096669524908066,-0.001062844879925251,0.0005893255583941936
1717857650318627800,0.3056279296875,-0.000811257865279913,0.00001147482544183731,0.00034990767017006874
1717857650328669000,0.3156689453125,0.000026002991944551468,0.00031640660017728806,0.0008327905088663101
1717857650338709800,0.325709716796875,0.0004758106078952551,0.00021973345428705215,0.0011379886418581009
1717857650348750800,0.335750732421875,0.0001809296663850546,-0.00008600670844316483,-0.0010979599319398403
1717857650358792000,0.3457919921875,0.00041582039557397366,-0.00040185730904340744,-0.0023943870328366756
1717857650368832800,0.355832763671875,-0.0003712496254593134,0.0013068066909909248,-0.000867513008415699
1717857650378873900,0.365873779296875,0.0006021359004080296,0.00005006138235330582,-0.0003031892701983452
1717857650388915000,0.3759150390625,-0.00038527045398950577,-0.001220562495291233,-0.0002831239253282547
1717857650398955800,0.385955810546875,-0.0008326815441250801,-0.00014597736299037933,-0.0006647547706961632
1717857650408995800,0.395995849609375,-0.00018460885621607304,-0.0009660609066486359,0.00041509419679641724
1717857650419037000,0.406036865234375,-0.00045172381214797497,-0.0002781664952635765,0.0012241625227034092
1717857650429077800,0.416077880859375,0.001285327598452568,-0.0005333293229341507,0.0010783183388411999
1717857650439118800,0.426118896484375,0.00006826315075159073,0.00024617742747068405,0.00041918596252799034
1717857650449160000,0.436159912109375,-0.000162503682076931,-0.00014795642346143723,0.0009584249928593636
1717857650459200800,0.44620068359375,-0.00016197096556425095,-0.001049436628818512,0.0013088970445096493
1717857650469241900,0.456241943359375,-0.00010630115866661072,-0.002015158534049988,-0.0004543112590909004
1717857650479283000,0.466282958984375,0.0015302114188671112,-0.00010513979941606522,0.0006908481009304523
1717857650489323800,0.47632373046875,-0.0014416214544326067,-0.0003099124878644943,0.00009051524102687836
1717857650499364900,0.48636474609375,-0.0004786222707480192,0.00008423533290624619,0.0001112879253923893
1717857650509406000,0.496406005859375,0.0006726458668708801,-0.000455574132502079,0.0011975332163274288
1717857650519446800,0.50644677734375,-0.00013402546755969524,0.00023418478667736053,-0.0003004944883286953
1717857650529488000,0.51648779296875,-0.001563423778861761,0.0005961097776889801,0.0001256074756383896
1717857650539529000,0.526529052734375,0.001718389568850398,-4.386529326438904e-7,0.00036129727959632874
1717857650549569800,0.53656982421875,-0.001477893441915512,0.000966634601354599,0.0011102836579084396
1717857650559611000,0.54661083984375,-0.0002917214296758175,0.0008222917094826698,0.00025407737120985985
1717857650569652000,0.55665185546875,0.001158516388386488,-0.0006368225440382957,0.001287227962166071
1717857650579692800,0.56669287109375,0.0002842005342245102,0.00099143385887146,0.000032878946512937546
1717857650589734000,0.57673388671875,0.00038643484003841877,-0.0004435395821928978,-0.0006254552863538265
1717857650599774700,0.586774658203125,-0.00023860903456807137,-0.0009101247414946556,0.0027333234902471304
1717857650609815800,0.59681591796875,0.0003756291698664427,-0.001562559511512518,0.00013133278116583824
1717857650619857000,0.60685693359375,0.0007423467468470335,0.0010313596576452255,0.0015673092566430569
1717857650629897700,0.616897705078125,0.0005432101897895336,-0.0005950815975666046,-0.00018644658848643303
1717857650639938800,0.626938720703125,-0.0004277781117707491,-0.00035087019205093384,0.00044365739449858665
1717857650649980000,0.63697998046875,-0.000970703549683094,0.0007048621773719788,-0.0005197855643928051
1717857650660020700,0.647020751953125,0.000903629232198,-0.0005878368392586708,-0.0001165829598903656
1717857650670061800,0.657061767578125,-0.0007528625428676605,-0.0010669780895113945,-0.00025950465351343155
1717857650680103000,0.66710302734375,0.00020960369147360325,0.00023557431995868683,0.00010987557470798492
1717857650690143700,0.677143798828125,0.0007624349091202021,0.00034070294350385666,0.00018494296818971634
1717857650700184800,0.687184814453125,0.0008276824373751879,-0.001383693888783455,-0.0002470221370458603
1717857650710225000,0.697224853515625,0.00004262733273208141,0.0007292991504073143,-0.0002902103587985039
1717857650720266000,0.707265869140625,-0.0004849450197070837,-0.0001575332134962082,0.0006264494732022285
1717857650730306800,0.717306884765625,-0.0011027504224330187,-0.00039220694452524185,0.0008511017076671124
1717857650740348000,0.727347900390625,0.0009353668428957462,0.00003336649388074875,0.0009853248484432697
1717857650750388700,0.737388671875,0.00022786925546824932,-0.00032065529376268387,0.00012712646275758743
1717857650760429800,0.747429931640625,0.000331732677295804,-0.0004157302901148796,-0.0003895265981554985
1717857650770471000,0.757470947265625,-0.00047064037062227726,-0.0014646900817751884,0.000552282202988863
1717857650780511700,0.76751171875,-0.00030179601162672043,-0.0008505657315254211,-0.0002711671404540539
1717857650790552800,0.777552734375,-0.0020407545380294323,-0.0007906937971711159,0.000017756130546331406
1717857650800594000,0.787593994140625,-0.00014085532166063786,0.0001315595582127571,-0.00042858952656388283
1717857650810634800,0.797634765625,-0.0005868338048458099,0.00010471604764461517,0.0004536914639174938
1717857650820675800,0.80767578125,-0.0006209223065525293,0.0002842126414179802,0.0006009642966091633
1717857650830717000,0.817717041015625,-0.00024158507585525513,-0.0002732733264565468,-0.0019607297144830227
1717857650840757800,0.8277578125,-0.0006916592828929424,-0.0014868751168251038,0.0005777953192591667
1717857650850798800,0.837798828125,-0.0014046547003090382,0.00007438845932483673,-0.00031273625791072845
1717857650860840000,0.84783984375,0.0006257393397390842,-0.0006356099620461464,0.00023427698761224747
1717857650870880800,0.857880859375,0.00034780194982886314,-0.00011506956070661545,0.0011962559074163437
1717857650880921900,0.867921875,0.0003531286492943764,0.001132887788116932,0.0007491111755371094
1717857650890963000,0.877962890625,0.0010029079858213663,-0.00019811466336250305,0.00017389189451932907
1717857650901003800,0.888003662109375,-0.00013559358194470406,-0.0004713553935289383,0.00017762044444680214
1717857650911044900,0.898044921875,0.000031057512387633324,0.0009758146479725838,0.000181510578840971
1717857650921086000,0.9080859375,-0.0001433796714991331,-0.00015895813703536987,0.000026248395442962646
1717857650931126800,0.918126708984375,-0.0014508061576634645,0.00046954862773418427,-0.0003816075623035431
1717857650941167900,0.92816796875,-0.00024226377718150616,-0.000027664005756378174,-0.0005645668134093285
1717857650951208700,0.938208740234375,0.0009800652042031288,-0.0005047982558608055,0.00006994279101490974
1717857650961249800,0.948249755859375,-0.00021596066653728485,0.0007548760622739792,-0.00019237864762544632
1717857650971291000,0.958290771484375,-0.00205049617215991,-0.0006515616551041603,-0.0008386899717152119
1717857650981331700,0.968331787109375,0.0003210487775504589,0.00009279139339923859,0.001017000526189804
1717857650991372800,0.978372802734375,0.0002035421784967184,-0.00021476298570632935,0.00009999051690101624
1717857651001412900,0.988412841796875,0.0003737180959433317,-0.000013428740203380585,0.0014933561906218529
1717857651011454000,0.998453857421875,-0.0005787333939224482,-0.0007017422467470169,0.0000011562369763851166
1717857651021494800,1.008494873046875,0.0009163650684058666,-0.00010093394666910172,0.0006933119148015976
1717857651031536400,1.018536376953125,-0.0013466405216604471,-0.0005423668771982193,0.0006730579771101475
1717857651041577200,1.0285771484375,0.0002730940468609333,-0.0012009665369987488,-0.00006037624552845955
1717857651051618300,1.038618408203125,0.0015659539494663477,0.0007093893364071846,-0.0005766693502664566
1717857651061659400,1.048659423828125,0.0012290638405829668,0.00021723750978708267,-0.0016547166742384434
1717857651071700200,1.0587001953125,0.00033567030914127827,-0.0012680599465966225,-0.0018253186717629433
1717857651081741300,1.0687412109375,0.0010640451218932867,-0.0006488747894763947,-0.0007435423322021961
1717857651091782400,1.078782470703125,0.00011760788038372993,-0.0007180599495768547,0.000475557055324316
1717857651101823200,1.0888232421875,-0.00047414633445441723,-0.0015369821339845657,0.0006004590541124344
1717857651111864300,1.0988642578125,0.00035216729156672955,0.00011263135820627213,-0.0017208964563906193
1717857651121905400,1.108905517578125,0.0007878604810684919,0.0005824128165841103,-0.0008939849212765694
1717857651131946200,1.1189462890625,0.0009181343484669924,-0.0016728066839277744,0.0008525485172867775
1717857651141987300,1.1289873046875,-0.00016017979942262173,-0.0008299164474010468,0.0002376246266067028
1717857651152028400,1.1390283203125,0.0006036146078258753,0.0009727263823151588,-0.0021781567484140396
1717857651162069200,1.1490693359375,-0.0001583155244588852,-0.000787888653576374,0.0001262766309082508
1717857651172110300,1.1591103515625,-0.0001227925531566143,-0.0010159695520997047,-0.00022582150995731354
1717857651182151400,1.1691513671875,-0.001139587489888072,0.00010868348181247711,-0.00023674080148339272
1717857651192192300,1.179192138671875,-0.0002353498712182045,-0.0019072885625064373,0.00016437005251646042
1717857651202233300,1.1892333984375,-0.00044680479913949966,0.0001811617985367775,-0.00014295848086476326
1717857651212274400,1.1992744140625,0.000055878423154354095,0.001484876498579979,0.0009669000282883644
1717857651222315300,1.209315185546875,-0.00015051639638841152,0.0005727438256144524,0.0005256142467260361
1717857651232356400,1.2193564453125,0.00017098640091717243,0.0011498183012008667,-0.00038726581260561943
1717857651242397200,1.229397216796875,0.001591782784089446,0.00033089611679315567,0.001637002918869257
1717857651252438300,1.239438232421875,0.0015785181894898415,-0.0009951721876859665,-0.0004766448400914669
1717857651262479400,1.249479248046875,-0.00002976483665406704,-0.0005235262215137482,-0.00038343388587236404
1717857651272520200,1.259520263671875,-0.0005483976565301418,-0.00020846910774707794,-0.00023133400827646255
1717857651282561300,1.269561279296875,0.00060608284547925,-0.0002814400941133499,-0.0011261561885476112
1717857651292602400,1.279602294921875,0.001530276145786047,-0.002030158881098032,-0.0012356312945485115
1717857651302642400,1.289642333984375,-0.00016669020988047123,0.00005855876952409744,-0.0011189845390617847
1717857651312683300,1.299683349609375,0.0003886797931045294,0.0012055188417434692,-0.0012436467222869396
1717857651322724400,1.309724365234375,-0.00006751972250640392,0.0014167074114084244,0.0029228688217699528
1717857651332765400,1.319765380859375,-0.0004830341786146164,0.0006604893133044243,0.0029907156713306904
1717857651342806300,1.32980615234375,0.00038994988426566124,0.0005859201774001122,0.0018170606344938278
1717857651352847400,1.339847412109375,0.00007611187174916267,-0.0016987877897918224,-0.0041051339358091354
1717857651362888400,1.349888427734375,-0.0008400154765695333,-0.002578163519501686,-0.00344147440046072
1717857651372929300,1.35992919921875,0.0002503935247659683,0.00014661066234111786,-0.0025019580498337746
1717857651382970400,1.369970458984375,0.0001891409046947956,0.00046805478632450104,0.0007028901018202305
1717857651393011500,1.380011474609375,-0.0010950029827654362,0.0001637740060687065,-0.0004892554134130478
1717857651403052300,1.39005224609375,0.0008024992421269417,0.00011210888624191284,-0.0010146968998014927
1717857651413093400,1.40009326171875,0.0009182849898934364,0.00006314553320407867,-0.0016564405523240566
1717857651423134200,1.41013427734375,0.0004208064638078213,0.0009630275890231133,0.0002386649139225483
1717857651433175300,1.42017529296875,0.00040976982563734055,-0.0017512915655970573,0.0018572215922176838
1717857651443216400,1.43021630859375,-0.00006267521530389786,-0.00022529996931552887,0.001478253398090601
1717857651453257200,1.44025732421875,0.00001755240373313427,-0.001006673090159893,0.0018575391732156277
1717857651463298300,1.45029833984375,0.0016508691478520632,-0.0004300987347960472,0.00016217119991779327
1717857651473339400,1.46033935546875,0.0001867334358394146,0.00009757932275533676,0.0009446959011256695
1717857651483380200,1.470380126953125,-0.0012076979037374258,0.0012813545763492584,0.00026239408180117607
1717857651493421300,1.48042138671875,-0.00034806691110134125,-0.00008018314838409424,-0.0004505491815507412
1717857651503462400,1.49046240234375,-0.0006514007691293955,-0.0006216038018465042,-0.00042258575558662415
1717857651513503200,1.500503173828125,-0.0005105482414364815,-0.00009154994040727615,-0.0018930030055344105
1717857651523544300,1.51054443359375,-0.00047246506437659264,-0.0013136742636561394,-0.0016679661348462105
1717857651533585400,1.52058544921875,-0.00025479868054389954,0.0003068475052714348,0.00046437187120318413
1717857651543626200,1.530626220703125,-0.0013914357405155897,-0.0011256663128733635,-0.0013790684752166271
1717857651553667300,1.540667236328125,0.0000685530249029398,-0.0005831830203533173,-0.0012656282633543015
1717857651563708400,1.55070849609375,0.0000344645231962204,-0.0011080913245677948,-0.00046827783808112144
1717857651573748200,1.560748291015625,-0.0006003589369356632,-0.0005090851336717606,0.00010720454156398773
1717857651583789300,1.570789306640625,-0.0008746646344661713,-0.00005714688450098038,0.00021825823932886124
1717857651593830400,1.580830322265625,0.00047922926023602486,0.00038386695086956024,-0.0018113511614501476
1717857651603871200,1.590871337890625,0.0008933506906032562,0.00027920491993427277,-0.00014234846457839012
1717857651613912300,1.600912353515625,0.00028813001699745655,0.0003798026591539383,0.00045739952474832535
1717857651623953400,1.610953369140625,-0.001587534323334694,0.0013156374916434288,0.00035673240199685097
1717857651633994200,1.620994140625,-0.0012990629766136408,0.0008362345397472382,0.0018028062768280506
1717857651644035300,1.631035400390625,0.0010959180071949959,-0.0008311700075864792,-0.0012313327752053738
1717857651654076400,1.641076416015625,0.0002659258898347616,0.0003131348639726639,-0.00047534285113215446
1717857651664117200,1.6511171875,0.00030001415871083736,0.0004090089350938797,-0.0005078334361314774
1717857651674158300,1.661158447265625,-0.00002620159648358822,-0.0005127200856804848,0.00046869227662682533
1717857651684199400,1.671199462890625,-0.00041821878403425217,-0.0005982080474495888,-0.0000876421108841896
1717857651694240300,1.681240234375,-0.0001917276531457901,-0.0006533432751893997,-0.0007839617319405079
1717857651704281300,1.69128125,0.0005691377446055412,-0.0000453433021903038,0.0006573409773409367
1717857651714322400,1.701322509765625,-0.0004788327496498823,0.00009443890303373337,-0.0008069248870015144
1717857651724363300,1.71136328125,0.0004314354155212641,0.000040910206735134125,0.0005470262840390205
1717857651734404400,1.721404296875,0.0009210058487951756,-0.0009754765778779984,-0.0006428183987736702
1717857651744445400,1.731445556640625,-0.00031043984927237034,-0.0006545661017298698,0.0005574682727456093
1717857651754486300,1.741486328125,-0.0004733132664114237,-0.0006122933700680733,-0.00013836193829774857
1717857651764527400,1.75152734375,-0.0019873203709721565,0.00032487325370311737,-0.0006624720990657806
1717857651774568200,1.761568115234375,0.00017554755322635174,0.00041159335523843765,0.0011692829430103302
1717857651784609300,1.771609375,-0.00008064834401011467,-0.0003761695697903633,-0.0007987930439412594
1717857651794650400,1.781650390625,-0.00034971022978425026,-0.0006096251308917999,0.00024520745500922203
1717857651804691200,1.791691162109375,-0.00012280908413231373,0.0003397921100258827,-0.00011458573862910271
1717857651814732300,1.801732177734375,0.0014026088174432516,0.000032493844628334045,-0.000077064149081707
1717857651824773400,1.8117734375,-0.0009606801904737949,-0.00014247559010982513,-0.0017687040381133556
1717857651834814200,1.821814208984375,0.00004233838990330696,-0.0003802897408604622,0.00021597836166620255
1717857651844855300,1.831855224609375,-0.00008575967513024807,-0.0016415626741945744,-0.0006490163505077362
1717857651854896400,1.841896484375,-0.0009057773277163506,-0.0003222031518816948,0.0012004650197923183
1717857651864936400,1.8519365234375,0.0000819892156869173,-0.0007728096097707748,-0.00019529787823557854
1717857651874977300,1.861977294921875,-0.0007036917377263308,0.000426718033850193,0.00010773446410894394
1717857651885018400,1.872018310546875,0.000988214509561658,0.0005012871697545052,-0.0007444769144058228
1717857651895059500,1.8820595703125,0.0005936031229794025,0.00021923240274190903,-0.0002502766437828541
1717857651905100300,1.892100341796875,0.00022289110347628593,0.0008828919380903244,0.0006059296429157257
1717857651915141400,1.902141357421875,-0.0002918234094977379,-0.000098436139523983,0.000008474104106426239
1717857651925182500,1.912182373046875,0.0010056684259325266,-0.001639074645936489,-0.0011611864902079105
1717857651935223300,1.922223388671875,0.0007397823501378298,-0.0005868338048458099,0.000806054100394249
1717857651945264400,1.932264404296875,0.0003498957958072424,0.0008720457553863525,-0.00012205727398395538
1717857651955305200,1.94230517578125,-0.0002765136305242777,0.0006806645542383194,-0.001196849625557661
1717857651965346300,1.95234619140625,0.0010255055967718363,-0.00026768632233142853,-0.0004154783673584461
1717857651975387400,1.962387451171875,0.0007194923236966133,-0.00015714671462774277,-0.0010850210674107075
1717857651985428200,1.97242822265625,0.0010121739469468594,-0.00015315134078264236,0.0005738623440265656
1717857651995469300,1.98246923828125,-0.00038385321386158466,-0.00017499830573797226,0.0005930466577410698
1717857652005510400,1.992510498046875,-0.0006147492676973343,-0.0012040436267852783,-0.00039285561069846153
1717857652015551200,2.00255126953125,-0.00031089480035007,-0.00039559416472911835,-0.0012158011086285114
1717857652025592300,2.01259228515625,0.0014494545757770538,-0.00026350095868110657,0.0015184665098786354
1717857652035633200,2.022633056640625,-0.0002167362254112959,0.0007949704304337502,0.0021271570585668087
1717857652045674000,2.032674072265625,0.00021682633087038994,-0.0006599146872758865,0.0006922460161149502
1717857652055715000,2.042715087890625,0.0004124795086681843,-0.0008492050692439079,0.0020982827991247177
1717857652065756200,2.052756103515625,0.0005893134512007236,-0.00011576991528272629,-0.0002977633848786354
1717857652075797000,2.062796875,-0.0006114717107266188,0.000338003970682621,0.00014510611072182655
1717857652085838000,2.072838134765625,-0.00026259757578372955,-0.001040981151163578,-0.00042800605297088623
1717857652095879200,2.082879150390625,0.00039349962025880814,0.001002277247607708,0.0005481075495481491
1717857652105920000,2.092919921875,0.0007247971370816231,0.001101081259548664,0.00016168272122740746
1717857652115961000,2.102961181640625,0.0003469835501164198,-0.00029818806797266006,-0.00044289417564868927
1717857652126002200,2.113002197265625,0.0009579125326126814,0.0005668066442012787,-0.0003566080704331398
1717857652136042200,2.123042236328125,0.0008054298814386129,-0.0007153870537877083,-0.00067128986120224
1717857652146083000,2.1330830078125,0.0005036939401179552,-0.00041551515460014343,0.00013032136484980583
1717857652156124200,2.143124267578125,-0.0009751224424690008,-0.000992700457572937,-0.00018934858962893486
1717857652166165000,2.1531650390625,-0.00013995496556162834,0.0005458071827888489,0.0010058782063424587
1717857652176206000,2.1632060546875,-0.0005037947557866573,-0.000011945143342018127,-0.0003348439931869507
1717857652186247200,2.1732470703125,-0.0004787610378116369,-0.000415680930018425,0.0012369533069431782
1717857652196288000,2.1832880859375,0.0014366095419973135,-0.00044173840433359146,-0.0003031473606824875
1717857652206329000,2.1933291015625,-0.00003052596002817154,-0.0001935325562953949,0.0007133809849619865
1717857652216370200,2.2033701171875,-0.0005224745254963636,0.0007310938090085983,0.0009788796305656433
1717857652226411000,2.213410888671875,0.0014077846426516771,-0.001076393760740757,0.001530686393380165
1717857652236452000,2.2234521484375,0.0008066827431321144,0.00014930125325918198,0.00029741041362285614
1717857652246493200,2.2334931640625,0.0005845753476023674,-0.00016148947179317474,0.0007117982022464275
1717857652256534000,2.243533935546875,0.0002775189932435751,-0.0004793116822838783,-0.0007335119880735874
1717857652266575000,2.2535751953125,0.000316401245072484,-0.00005586910992860794,0.0008454760536551476
1717857652276616200,2.2636162109375,-0.0011645916383713484,-0.0015109814703464508,0.0006632902659475803
1717857652286657000,2.273656982421875,0.00013076979666948318,-0.0015823543071746826,-0.00138414790853858
1717857652296698000,2.283697998046875,-0.000387012492865324,-0.0006682602688670158,-0.001222151331603527
1717857652306739200,2.2937392578125,-0.001311928266659379,-0.0009761219844222069,0.0004423242062330246
1717857652316780000,2.303780029296875,-0.0011833596508949995,0.00023024436086416245,-6.62636011838913e-7
1717857652326821000,2.313821044921875,0.0005160034634172916,0.0020883316174149513,0.0013000252656638622
1717857652336862200,2.3238623046875,0.000026105903089046478,0.0012087421491742134,0.0021729462314397097
1717857652346903000,2.333903076171875,-0.0004170441534370184,0.001651626080274582,0.0018677478656172752
1717857652356944100,2.343944091796875,-0.00026321387849748135,0.00013786368072032928,-0.0005415687337517738
1717857652366985000,2.35398486328125,-0.0008594957180321217,-0.0019420655444264412,-0.0023314794525504112
1717857652377026000,2.364026123046875,-0.0008458509109914303,-0.0004439493641257286,-0.002607123926281929
1717857652387067100,2.374067138671875,-0.00030469661578536034,0.0012077437713742256,0.00040757469832897186
1717857652397108000,2.38410791015625,-0.00007479405030608177,-0.0004319287836551666,0.001045167911797762
1717857652407148000,2.39414794921875,0.0007555794436484575,-0.0009501799941062927,-0.0007628523744642735
1717857652417189000,2.404189208984375,-0.0011308500543236732,0.0000341758131980896,-0.0010928073897957802
1717857652427230200,2.414230224609375,0.0006287007126957178,-0.00018899701535701752,-0.000918104313313961
1717857652437271000,2.42427099609375,-0.00008961814455688,-0.0005015293136239052,-0.0015615131705999374
1717857652447312100,2.43431201171875,-0.0002869584131985903,0.0002140626311302185,0.0014129714109003544
1717857652457353200,2.444353271484375,-0.000513910548761487,-0.0009434344246983528,0.00034262053668498993
1717857652467394000,2.45439404296875,-0.0007461381610482931,0.00035432446748018265,0.00047817546874284744
1717857652477435100,2.46443505859375,0.0005683794151991606,0.00019906740635633469,0.001955043990164995
1717857652487476200,2.474476318359375,-0.0005104672163724899,-0.00026671960949897766,0.0016229478642344475
1717857652497517000,2.48451708984375,-0.0009093361441046,0.000029537826776504517,0.0009976327419281006
1717857652507558100,2.49455810546875,-0.0006747115403413773,0.00044632237404584885,0.000620795413851738
1717857652517599200,2.50459912109375,0.00137800769880414,-0.00014172587543725967,-0.001884437631815672
1717857652527640000,2.51464013671875,0.000051487237215042114,0.00151103176176548,-0.001258594449609518
1717857652537681200,2.52468115234375,0.0013717042747884989,0.000250495970249176,-0.0004115612246096134
1717857652547722000,2.534721923828125,-0.00023098592646420002,-0.0007700268179178238,-0.0005995803512632847
1717857652557763000,2.54476318359375,0.0007657001260668039,0.00013582967221736908,0.0014582439325749874
1717857652567804200,2.55480419921875,-0.00029450422152876854,-0.0002926727756857872,-0.0007346030324697495
1717857652577845000,2.564844970703125,-0.0008320885244756937,-0.0010181404650211334,0.0012512318789958954
1717857652587886000,2.574885986328125,0.0003804487641900778,0.0006215684115886688,0.0007494920864701271
1717857652597927200,2.58492724609375,-0.0006865581963211298,-0.000496620312333107,-0.0004948158748447895
1717857652607968000,2.594968017578125,-0.0007305005565285683,0.0008794348686933517,-0.0008743163198232651
1717857652618009000,2.605009033203125,0.0007196664810180664,-0.0011414969339966774,-0.0003231121227145195
1717857652628050200,2.61505029296875,-0.0020375042222440243,-0.0005803694948554039,0.0007570660673081875
1717857652638091000,2.625091064453125,0.0019466704688966274,-0.00030050892382860184,-0.0002616564743220806
1717857652648132000,2.635132080078125,-0.0010507171973586082,-0.0006568394601345062,0.0002605891786515713
1717857652658173200,2.645173095703125,0.0021497090347111225,-0.0007397662848234177,-0.0005714874714612961
1717857652668214000,2.655214111328125,0.0007526148110628128,0.00014413706958293915,0.00034703686833381653
1717857652678255000,2.665255126953125,0.00102163664996624,-0.0007001832127571106,0.001192889641970396
1717857652688296200,2.675296142578125,-0.0008689414244145155,-0.0003214823082089424,0.00036917394027113914
1717857652698336000,2.6853359375,-0.0002701000776141882,-0.0006415899842977524,0.0002906643785536289
1717857652708377000,2.695377197265625,-0.00005491659976541996,-0.0000037634745240211487,-0.00102706765756011
1717857652718418200,2.705418212890625,-0.0004355870187282562,0.00038300734013319016,0.0006316914223134518
1717857652728459000,2.715458984375,-0.00007499498315155506,0.0008389400318264961,0.0007502022199332714
1717857652738500000,2.7255,-0.001020980766043067,-0.00048773176968097687,0.00047249626368284225
1717857652748541200,2.735541259765625,-0.0012750464957207441,-0.00015190709382295609,0.00039899302646517754
1717857652758582000,2.74558203125,0.00011386070400476456,-0.0009070998057723045,0.0009535052813589573
1717857652768623000,2.755623046875,-0.0009692469611763954,-0.0005750032141804695,-0.0015378817915916443
1717857652778664200,2.765664306640625,0.0017058360390365124,-0.00038159359246492386,-0.000452396459877491
1717857652788705000,2.775705078125,-0.00010830909013748169,-0.00004736706614494324,0.00027597835287451744
1717857652798746000,2.78574609375,0.0009241118095815182,-0.0009414954110980034,-0.00019377050921320915
1717857652808787200,2.795787109375,-0.0011148042976856232,0.0002902168780565262,-0.0021088500507175922
1717857652818828000,2.805828125,-0.0012349879834800959,-0.0011434955522418022,-0.0011001736856997013
1717857652828869000,2.815869140625,0.0005514605436474085,-0.0002787671983242035,-0.0008895178325474262
1717857652838910200,2.82591015625,-0.0014180517755448818,-0.00013867206871509552,0.0008116592653095722
1717857652848951000,2.835950927734375,-0.00014213123358786106,0.000964408740401268,0.0009951507672667503
1717857652858992000,2.8459921875,0.00015629385598003864,0.0007685627788305283,-0.0013210102915763855
1717857652869033200,2.856033203125,-0.0012301476672291756,0.0002444526180624962,-0.00048344582319259644
1717857652879074000,2.866073974609375,0.002051060553640127,-0.002292767632752657,0.00033397506922483444
1717857652889115100,2.876115234375,-0.0011242262553423643,-0.00037369411438703537,0.0007651406340301037
1717857652899156000,2.886156005859375,-0.0014137150719761848,0.0005158483982086182,0.0001345304772257805
1717857652909197000,2.896197021484375,-0.00035936967469751835,-0.00009721145033836365,-0.000017269514501094818
1717857652919238100,2.906238037109375,0.0002392008900642395,-0.00047222431749105453,0.0012767603620886803
1717857652929279000,2.916279052734375,-0.0007749309297651052,-0.0005238894373178482,-0.00039437320083379745
1717857652939320000,2.926320068359375,0.0010879503097385168,0.0013988688588142395,0.00032422086223959923
1717857652949361200,2.936361083984375,0.00017901347018778324,-0.0004743989557027817,-0.0000030817463994026184
1717857652959402000,2.946402099609375,-0.000571137061342597,0.00006666965782642365,-0.000028396956622600555
1717857652969443000,2.956443115234375,-0.00085982377640903,-0.0014049932360649109,0.00021421723067760468
1717857652979483100,2.966483154296875,0.00020006089471280575,-0.0006901221349835396,0.000058916863054037094
1717857652989524200,2.976524169921875,0.00033961073495447636,-0.0008030403405427933,-0.0009538829326629639
1717857652999565000,2.98656494140625,-0.000492968363687396,-0.00011105090379714966,-0.00009849434718489647
1717857653009606100,2.996606201171875,-0.00015980703756213188,-0.0008604638278484344,-0.0006084893830120564
1717857653019647200,3.006647216796875,0.0013219856191426516,-0.0010058069601655006,-0.0005434434860944748
1717857653029688000,3.01668798828125,0.0006087913643568754,0.00044188741594552994,0.0011631101369857788
1717857653039730000,3.02672998046875,0.000677905511111021,0.0008299024775624275,0.0012105056084692478
1717857653049770800,3.036770751953125,-0.0005048043094575405,-0.0004753135144710541,0.0007497784681618214
1717857653059811800,3.046811767578125,0.0017371757421642542,0.0014872103929519653,0.0005400539375841618
1717857653069853000,3.05685302734375,0.0005360899958759546,0.00039584748446941376,-0.0006242799572646618
1717857653079893800,3.066893798828125,0.0008286940865218639,-0.0007931981235742569,-0.0004325299523770809
1717857653089934800,3.076934814453125,0.0009117848239839077,-0.0007037157192826271,-0.0005225446075201035
1717857653099976000,3.086975830078125,0.0010135984048247337,-0.0014962195418775082,0.0010166671127080917
1717857653110016800,3.097016845703125,0.0007813707925379276,0.0003360351547598839,-0.000408124178647995
1717857653120057900,3.107057861328125,-0.0005997119005769491,-0.0010457178577780724,-0.00007896171882748604
1717857653130099000,3.117098876953125,0.00006714370101690292,0.0024848347529768944,0.0014366433024406433
1717857653140139800,3.127139892578125,0.0013641261029988527,0.00043766945600509644,0.00021367287263274193
1717857653150180900,3.137180908203125,-0.001377598149701953,0.0012584561482071877,0.002698934869840741
1717857653160221700,3.1472216796875,0.0005365330725908279,-0.000277029350399971,-0.0004695383831858635
1717857653170262800,3.1572626953125,0.0009333440102636814,-0.0008943499997258186,0.0006362060084939003
1717857653180304000,3.167303955078125,0.0016056154854595661,-0.0006705159321427345,-0.00019707903265953064
1717857653190344700,3.1773447265625,-0.0004410236142575741,-0.00004387367516756058,-0.00042744260281324387
1717857653200385800,3.1873857421875,-0.00048597087152302265,0.00020896084606647491,0.00021362118422985077
1717857653210427000,3.197427001953125,0.00018248241394758224,0.00003558862954378128,0.0003880579024553299
1717857653220467700,3.2074677734375,0.0007691155187785625,-0.0005895979702472687,-0.0007982193492352962
1717857653230508800,3.2175087890625,-0.0014066870789974928,0.0004769982770085335,-0.0005015432834625244
1717857653240550000,3.2275498046875,0.0005482819397002459,0.0009899325668811798,0.0015463121235370636
1717857653250590000,3.23758984375,-0.0010642621200531721,-0.0009192880243062973,0.0007167374715209007
1717857653260630800,3.247630859375,0.0010567745193839073,0.0010475600138306618,0.0002553267404437065
1717857653270672000,3.257671875,0.0003654179163277149,-0.0007751071825623512,-0.0012118085287511349
1717857653280713000,3.267712890625,-0.0015711297746747732,0.0002235742285847664,-0.0013014585711061954
1717857653290753800,3.27775390625,0.00013941852375864983,0.00035273749381303787,0.00023385370150208473
1717857653300795000,3.287794921875,-0.00004955241456627846,0.0002445485442876816,-0.0006722267717123032
1717857653310835700,3.297835693359375,-0.00040961173363029957,0.0005369633436203003,0.002756593283265829
1717857653320876800,3.307876708984375,0.0014858816284686327,0.000977296382188797,0.0025720992125570774
1717857653330918000,3.31791796875,0.0013577837962657213,0.0016308361664414406,0.004686116240918636
1717857653340958700,3.327958740234375,0.0007011082489043474,0.00027261581271886826,-0.0008039842359721661
1717857653350999800,3.337999755859375,-0.0006163576617836952,-0.0028187818825244904,-0.0032618152908980846
1717857653361041000,3.348041015625,-0.00041162059642374516,-0.0016492009162902832,-0.0026757395826280117
1717857653371081700,3.358081787109375,-0.000172734959051013,-0.0001799352467060089,-0.0010751797817647457
1717857653381122800,3.368122802734375,0.0006488861981779337,0.00032456591725349426,0.00045868800953030586
1717857653391164000,3.378163818359375,0.0020600950811058283,0.00010671932250261307,0.0009018378332257271
1717857653401204700,3.388204833984375,-0.00013944273814558983,-0.0015187449753284454,-0.0007955282926559448
1717857653411245800,3.398245849609375,0.00044938246719539165,-0.00019408855587244034,-0.001359586138278246
1717857653421287000,3.408286865234375,-0.000358769204467535,0.0002594543620944023,-0.00041559385135769844
1717857653431327700,3.41832763671875,0.0002729324623942375,0.0013542799279093742,0.001993501791730523
1717857653441368800,3.428368896484375,0.000544835114851594,-0.00042601488530635834,0.0015597501769661903
1717857653451410000,3.438409912109375,-0.0008730317931622267,0.000173996202647686,0.001347496174275875
1717857653461450800,3.44845068359375,-0.0010714686941355467,-0.0012757359072566032,-0.0009083840996026993
1717857653471491800,3.458491943359375,0.00010884413495659828,-0.00016226805746555328,0.0010879216715693474
1717857653481533000,3.468532958984375,0.000021836254745721817,0.0008706320077180862,0.001053855288773775
1717857653491573800,3.47857373046875,0.0012900335714221,-0.00045215990394353867,-0.0002910406328737736
1717857653501614800,3.48861474609375,0.0008580365683883429,-0.0009545115754008293,-0.0008806902915239334
1717857653511655700,3.49865576171875,0.0006780072581022978,-0.00019204802811145782,0.00016326876357197762
1717857653521696800,3.50869677734375,0.000850033713504672,0.0001170160248875618,0.000645788386464119
1717857653531736800,3.51873681640625,-0.000024015549570322037,-0.0006494419649243355,-0.0004921802319586277
1717857653541778000,3.52877783203125,0.0002786803524941206,-0.00047146156430244446,0.00048755714669823647
1717857653551818800,3.53881884765625,-0.00015035481192171574,-0.0011148806661367416,-0.0018640141934156418
1717857653561859800,3.54885986328125,0.0004943751264363527,0.0004817219451069832,-0.0016395021229982376
1717857653571901000,3.55890087890625,0.0016089084092527628,0.00010887905955314636,0.001097960863262415
1717857653581941800,3.568941650390625,-0.00032716826535761356,-0.00020654592663049698,0.00038365647196769714
1717857653591982800,3.57898291015625,0.00016258703544735909,0.00027015991508960724,-0.00039212219417095184
1717857653602024000,3.58902392578125,-0.000618180725723505,0.000470893457531929,-0.0013576098717749119
1717857653612064800,3.599064697265625,-0.00041471514850854874,0.0006890064105391502,0.0009446926414966583
1717857653622105900,3.60910595703125,-0.00006381142884492874,-0.00007210113108158112,-0.0010974924080073833
1717857653632147000,3.61914697265625,-0.0011304074432700872,-0.0003988714888691902,0.00012756185606122017
1717857653642187800,3.629187744140625,0.0009577872697263956,-0.000632978044450283,0.0004693330265581608
1717857653652228900,3.639228759765625,-0.0008092203643172979,0.00026104506105184555,0.0001753200776875019
1717857653662270000,3.64927001953125,0.0009782800916582346,0.0009447019547224045,-0.0000538509339094162
1717857653672310800,3.659310791015625,0.0013974613975733519,-0.00015038996934890747,-0.0005172407254576683
1717857653682351900,3.669351806640625,-0.0005987235344946384,-0.001187676563858986,-0.000513879582285881
1717857653692392700,3.679392822265625,0.0024814887437969446,0.001060296781361103,0.000518361572176218
1717857653702433800,3.689433837890625,-0.0006562850903719664,-0.0001421058550477028,-0.000585455447435379
1717857653712475000,3.699474853515625,0.0006414733361452818,-0.0006387848407030106,-0.0010597645305097103
1717857653722515700,3.709515625,0.0009373424109071493,-0.0006415927782654762,0.0009934925474226475
1717857653732556800,3.719556884765625,0.0004885999951511621,-0.0015611820854246616,0.0015085479244589806
1717857653742598000,3.729597900390625,0.0011530322954058647,-0.0015339264646172523,-0.002414795570075512
1717857653752638700,3.739638671875,0.0006182696670293808,-0.00018104072660207748,-0.00023499876260757446
1717857653762679800,3.7496796875,0.0014455136843025684,-0.00008607283234596252,-0.00025606295093894005
1717857653772721000,3.759720947265625,0.0010199407115578651,-0.000012835487723350525,-0.0006512757390737534
1717857653782761700,3.76976171875,-0.0005857711657881737,-0.00010792911052703857,-0.0005841976962983608
1717857653792802800,3.779802734375,0.0005362185183912516,-0.0018120859749615192,-0.0006611626595258713
1717857653802844000,3.789843994140625,0.0010134896729141474,-0.000941907986998558,0.000659555196762085
1717857653812884700,3.799884765625,-0.0015785652212798595,-0.0012335246428847313,-0.00048320693895220757
1717857653822925800,3.80992578125,-0.0006389357149600983,-0.0006569745019078255,-0.0009603421203792095
1717857653832967000,3.819966796875,0.001259898068383336,-0.0006998507305979729,-0.0015579555183649063
1717857653843007000,3.830007080078125,-0.001567929983139038,-0.0004076864570379257,-0.0005784444510936737
1717857653853047800,3.8400478515625,0.001332785002887249,-0.001341124065220356,-0.000480706337839365
1717857653863089000,3.8500888671875,-0.0010049252305179834,0.0009702686220407486,-0.000129032414406538
1717857653873129700,3.860129638671875,-0.0004211601335555315,-0.0010057976469397545,-0.0010145334526896477
1717857653883170800,3.8701708984375,-0.00029442296363413334,-0.00027615390717983246,0.0006687301211059093
1717857653893212000,3.8802119140625,-0.0001596671063452959,-0.0002543162554502487,0.00035394448786973953
1717857653903252700,3.890252685546875,-0.000266622519120574,-0.0006030946969985962,-0.00039696600288152695
1717857653913293800,3.9002939453125,0.00014297175221145153,0.0005250200629234314,-0.001189522910863161
1717857653923335000,3.9103349609375,-0.0007140117231756449,0.000021709129214286804,-0.0004612710326910019
1717857653933375700,3.920375732421875,0.0006958658341318369,-0.0001370161771774292,-0.000699357595294714
1717857653943416800,3.930416748046875,0.0008506507147103548,0.0009337551891803741,-0.00020521553233265877
1717857653953458000,3.9404580078125,0.0009587749373167753,-0.00041034258902072906,-0.0007458371110260487
1717857653963498800,3.950498779296875,-0.0006790675688534975,-0.00012901611626148224,-0.0011443081311881542
1717857653973539800,3.960539794921875,0.0009273511823266745,-0.00022675469517707825,-0.0007821181789040565
1717857653983581000,3.970580810546875,-0.0007746012415736914,-0.00038144178688526154,0.0003415104001760483
1717857653993621800,3.980621826171875,0.0005146348848938942,0.0014297738671302795,0.0003833221271634102
1717857654003662800,3.990662841796875,-0.00016658264212310314,-0.0004055323079228401,-0.001796648371964693
1717857654013704000,4.000703857421875,-0.000880842562764883,-0.0005682511255145073,0.0001072450540959835
1717857654023744800,4.010744873046875,-0.001032260712236166,-0.0008878456428647041,-0.000644356943666935
1717857654033785600,4.02078564453125,-0.00025488389655947685,-0.0009371144697070122,0.000008916482329368591
1717857654043826700,4.03082666015625,0.00036259787157177925,0.000007657334208488464,-0.0002926019951701164
1717857654053867500,4.040867431640625,0.0011215987615287304,-0.0005263062193989754,-0.0007535950280725956
1717857654063908600,4.05090869140625,0.0003450780641287565,0.0010222187265753746,0.0006264010444283485
1717857654073949700,4.06094970703125,-0.00024933950044214725,0.0013689622282981873,-0.0006591067649424076
1717857654083990500,4.070990478515625,0.0001940417569130659,-0.00039688218384981155,0.0000033066608011722565
1717857654094031600,4.081031494140625,0.0005591611843556166,0.0005554640665650368,-0.00018391339108347893
1717857654104072400,4.091072509765625,0.00019971560686826706,0.0001145610585808754,0.0009670322760939598
1717857654114113500,4.101113525390625,0.001021567266434431,0.0006573135033249855,-0.00005855131894350052
1717857654124153300,4.1111533203125,-0.0016972282901406288,0.00038553960621356964,0.00010819127783179283
1717857654134194400,4.1211943359375,0.0013821846805512905,0.0008926047012209892,0.0010157967917621136
1717857654144235300,4.1312353515625,0.00042240810580551624,0.0008042948320508003,0.00036083534359931946
1717857654154276400,4.1412763671875,0.00007566413842141628,0.0002482263371348381,0.0024343726690858603
1717857654164317400,4.1513173828125,-0.00075318175368011,-0.00047510117292404175,0.00001557404175400734
1717857654174358300,4.161358154296875,0.0016796158161014318,-0.0003949403762817383,0.0014843069948256016
1717857654184399400,4.1713994140625,0.00037195091135799885,-0.0008302470669150352,-0.000059726182371377945
1717857654194440400,4.1814404296875,-0.001613701693713665,-0.00009574741125106812,-0.0009928978979587555
1717857654204481300,4.191481201171875,0.0011658708099275827,-0.000028839334845542908,0.0009145778603851795
1717857654214522400,4.2015224609375,0.0005227176006883383,0.00003134831786155701,-0.00008597178384661674
1717857654224563500,4.2115634765625,0.0008535997476428747,0.00035953987389802933,0.0014997529797255993
1717857654234604300,4.221604248046875,-0.00029182550497353077,0.0009749960154294968,0.000803602859377861
1717857654244645400,4.231645263671875,-0.00036590429954230785,-0.00022114347666502,0.001187620684504509
1717857654254686500,4.2416865234375,-0.00005777645856142044,-0.0005859965458512306,0.001449675764888525
1717857654264727300,4.251727294921875,-0.000009875278919935226,-0.0005535827949643135,-0.0005684038624167442
1717857654274768400,4.261768310546875,0.00005377409979701042,-0.00018153991550207138,0.00031017279252409935
1717857654284809500,4.2718095703125,-0.001539064571261406,0.0001284722238779068,0.000563901849091053
1717857654294850300,4.281850341796875,-0.00029803160578012466,-0.0004936419427394867,-0.0010198797099292278
1717857654304891400,4.291891357421875,0.00048567657358944416,-0.0015275226905941963,-0.0005392567254602909
1717857654314932200,4.30193212890625,0.0018311052117496729,0.0005380250513553619,0.001285274513065815
1717857654324973600,4.3119736328125,-0.0004175023641437292,0.0007376577705144882,-0.000017433427274227142
1717857654335014700,4.3220146484375,0.000058138277381658554,0.0013288799673318863,0.0027916687540709972
1717857654345055500,4.332055419921875,-0.00021113292314112186,0.0006216457113623619,0.0022548811975866556
1717857654355096600,4.3420966796875,0.0007500019855797291,-0.002391188871115446,0.000621564220637083
1717857654365137700,4.3521376953125,-0.00048101763240993023,-0.0009235469624400139,-0.0005428139120340347
1717857654375178500,4.362178466796875,-0.000016562407836318016,-0.0008202167227864265,-0.001550554297864437
1717857654385219600,4.372219482421875,-0.0004946717526763678,-0.00048096664249897003,0.00029319804161787033
1717857654395260700,4.3822607421875,-0.000024623703211545944,0.0008761798962950706,-0.0002040141262114048
1717857654405301500,4.392301513671875,0.00011762557551264763,0.0006012748926877975,0.0005261567421257496
1717857654415341300,4.40234130859375,0.00046490179374814034,0.0001741042360663414,-0.0015252763405442238
1717857654425382400,4.41238232421875,-0.000015694648027420044,-0.00032937154173851013,-0.0008848560974001884
1717857654435423500,4.422423583984375,0.001022405456751585,0.00021790806204080582,0.00022408459335565567
1717857654445464300,4.43246435546875,0.00033800979144871235,0.00026509538292884827,0.0010265978053212166
1717857654455505400,4.44250537109375,0.0002956653479486704,0.0009415382519364357,-0.0002988576889038086
1717857654465546500,4.45254638671875,-0.0016362783499062061,-0.0012900382280349731,-0.0012545096687972546
1717857654475587300,4.46258740234375,-0.0012477231211960316,-0.0016213352791965008,0.0006531127728521824
1717857654485628400,4.47262841796875,0.0004452767316251993,-0.00032931379973888397,0.0007192054763436317
1717857654495669200,4.482669189453125,0.0005504719447344542,0.000857657752931118,0.0011085597798228264
1717857654505710300,4.49271044921875,-0.00021091988310217857,0.0005640238523483276,-0.001766145695000887
1717857654515751400,4.50275146484375,-0.0003030654042959213,-0.0011819452047348022,-0.0004473482258617878
1717857654525792300,4.512792236328125,0.0016185373533517122,-0.00077106524258852,0.0008164467290043831
1717857654535833300,4.522833251953125,0.0007519444916397333,0.00023054983466863632,0.0000803493894636631
1717857654545874400,4.53287451171875,0.0006437012925744057,-0.0018734992481768131,-0.000056010670959949493
1717857654555915300,4.542915283203125,0.0006277221255004406,-0.0004590945318341255,0.0008816882036626339
1717857654565956400,4.552956298828125,0.00017270655371248722,-0.000963279977440834,0.00020401785150170326
1717857654575997400,4.56299755859375,0.0009189241100102663,0.00010065268725156784,-0.0009512617252767086
1717857654586038300,4.573038330078125,-0.00015557371079921722,0.0004759533330798149,-0.0008271527476608753
1717857654596079400,4.583079345703125,0.0019137023482471704,-0.00044416822493076324,0.0021422719582915306
1717857654606120400,4.593120361328125,-0.00030517391860485077,-0.000493878498673439,-0.0004620403051376343
1717857654616161300,4.603161376953125,-0.0004255487583577633,-0.0012424923479557037,-0.0003605736419558525
1717857654626202600,4.61320263671875,0.0014218785800039768,-0.000011203810572624207,0.0004152236506342888
1717857654636243500,4.623243408203125,0.0004903050139546394,-0.0012743407860398293,-0.0006894557736814022
1717857654646284500,4.633284423828125,-0.0002774109598249197,-0.00035454146564006805,0.0002339603379368782
1717857654656325600,4.64332568359375,-0.00004518311470746994,0.0008010035380721092,-0.00021638022735714912
1717857654666366500,4.653366455078125,0.0005305639933794737,0.00043795909732580185,0.000029655639082193375
1717857654676407600,4.663407470703125,-0.00005346722900867462,-0.00042330753058195114,0.0016179648227989674
1717857654686448600,4.67344873046875,0.002247929573059082,-0.00047596637159585953,0.00014735152944922447
1717857654696489500,4.683489501953125,-0.0012533282861113548,-0.00037742964923381805,-0.0017466885037720203
1717857654706530600,4.693530517578125,0.0004802895709872246,-0.001172511838376522,-0.0006839246489107609
1717857654716571600,4.703571533203125,0.000627296045422554,0.000027774833142757416,0.0014058579690754414
1717857654726612500,4.713612548828125,-0.00015115714631974697,-0.0008531138300895691,-0.00038263387978076935
1717857654736652300,4.72365234375,-0.00024942774325609207,0.0002425108104944229,0.0010323035530745983
1717857654746693400,4.733693359375,0.0008682634215801954,0.0021164705976843834,0.00012559723109006882
1717857654756734500,4.743734375,-0.000048663001507520676,-0.0009592138230800629,0.0004915157333016396
1717857654766775300,4.753775390625,-0.001580547308549285,-0.0006323996931314468,-0.0003337501548230648
1717857654776816400,4.76381640625,-0.0012364669237285852,-0.00004330836236476898,-0.0003776922821998596
1717857654786857500,4.773857421875,-0.00027825823053717613,-0.00045389868319034576,-0.0004427502863109112
1717857654796898300,4.783898193359375,0.00011482439003884792,0.000018013641238212585,-0.00034155044704675674
1717857654806939400,4.793939453125,0.0006376036908477545,-0.00005308631807565689,-0.00027458975091576576
1717857654816980500,4.80398046875,0.000267957104369998,-0.0009377887472510338,-0.0005955006927251816
1717857654827021300,4.814021240234375,0.0006739730015397072,-0.00009973812848329544,0.0002978048287332058
1717857654837062400,4.8240625,0.0007565310224890709,-0.001342635601758957,-0.0007842374034225941
1717857654847103200,4.834103271484375,0.0007758233696222305,0.0006611896678805351,-0.0008556293323636055
1717857654857144300,4.844144287109375,-0.0012250093277543783,-0.00033669639378786087,-0.00043245311826467514
1717857654867185400,4.854185302734375,0.0005510495975613594,-0.001327292062342167,0.0007426412776112556
1717857654877226200,4.864226318359375,-0.00016347668133676052,-0.0011954652145504951,-0.0022094729356467724
1717857654887267300,4.874267333984375,0.0005563003942370415,-0.0010150857269763947,-0.0000946992076933384
1717857654897308400,4.884308349609375,-0.0004162860568612814,-0.00017645582556724548,-0.0007136180065572262
1717857654907349200,4.894349365234375,0.0005531148053705692,-0.0003301640972495079,-0.0002076425589621067
1717857654917390300,4.904390380859375,-0.000699902419000864,-0.0018026256002485752,0.0003351094201207161
1717857654927431700,4.914431640625,-0.0011470085009932518,-0.000506669282913208,0.0005814516916871071
1717857654937472500,4.924472412109375,0.00041999551467597485,0.001118391752243042,-0.001244411338120699
1717857654947513600,4.934513671875,0.0009386492893099785,0.0005284938961267471,0.00013667019084095955
1717857654957554700,4.9445546875,-0.00022914703004062176,-0.0006323782727122307,-0.0005757254548370838
1717857654967595500,4.954595458984375,0.0009857802651822567,-0.000714094378054142,-0.0020576943643391132
1717857654977636600,4.96463671875,0.0008331811986863613,-0.00019317958503961563,-0.00041239382699131966
1717857654987677700,4.974677734375,0.00040975422598421574,-0.0008063549175858498,0.00034253858029842377
1717857654997718500,4.984718505859375,-0.0010621750261634588,-0.0005150046199560165,-0.0011967686004936695
1717857655007759600,4.994759521484375,-0.0006859030108898878,0.0005722362548112869,0.0004392256960272789
1717857655017800400,5.004800537109375,-0.0012451668735593557,0.0006606532260775566,0.000028299633413553238
1717857655027840300,5.01484033203125,0.00009125401265919209,-0.0010964004322886467,0.0003947918303310871
1717857655037881000,5.024881103515625,0.0013890124391764402,-0.0008343448862433434,0.00008852872997522354
1717857655047922200,5.034922119140625,0.0005257274024188519,0.0003658141940832138,0.000046236906200647354
1717857655057963000,5.044962890625,-0.00014538923278450966,-0.0013540545478463173,0.000743186566978693
1717857655068004000,5.055004150390625,-0.0005469496827572584,-0.0006205420941114426,-0.0006835879758000374
1717857655078045200,5.065045166015625,0.0015255222097039223,0.0002476479858160019,0.0015321620739996433
1717857655088086000,5.0750859375,0.0010716875549405813,0.00012301374226808548,-0.0011422885581851006
1717857655098127000,5.085127197265625,-0.0011722922790795565,-0.0002492964267730713,0.0002827690914273262
1717857655108168200,5.095168212890625,-0.0003429169300943613,-0.00009213201701641083,-0.000259478110820055
1717857655118209000,5.105208984375,-0.0011551810894161463,0.0002636658027768135,0.0010257633402943611
1717857655128250000,5.11525,-0.00007334956899285316,-0.0006513046100735664,0.0005126702599227428
1717857655138291200,5.125291259765625,-0.0006067806389182806,-0.0004217401146888733,-0.0013190517202019691
1717857655148332000,5.13533203125,0.0002827548887580633,0.000862988643348217,0.00048774154856801033
1717857655158373000,5.145373046875,0.0007077956106513739,-0.0011634109541773796,0.0029394475277513266
1717857655168414200,5.155414306640625,-0.0007926183752715588,-0.0002992786467075348,0.0008886461146175861
1717857655178455000,5.165455078125,0.00044575147330760956,-0.0007173949852585793,-0.001179032027721405
1717857655188496100,5.17549609375,-0.0004545692354440689,-0.00040904339402914047,-0.0009773047640919685
1717857655198537200,5.185537109375,-0.00003565405495464802,-0.0003919992595911026,-0.0004300251603126526
1717857655208578000,5.195578125,0.0012935632839798927,0.0005350736901164055,0.0004874635487794876
1717857655218619100,5.205619140625,0.0006826338358223438,-0.00003271177411079407,0.0007918626070022583
1717857655228660200,5.21566015625,-0.0014563449658453465,-0.002135375514626503,0.0008801845833659172
1717857655238701000,5.225701171875,-0.00034287734888494015,-0.0010607894510030746,0.0010040216147899628
1717857655248742100,5.2357421875,0.0014866150449961424,-0.0009915344417095184,0.0009946483187377453
1717857655258783000,5.245782958984375,-0.0004822600167244673,0.0007981099188327789,-0.00011242786422371864
1717857655268824000,5.255823974609375,0.0005493850912898779,0.0010275663807988167,0.000027095898985862732
1717857655278865200,5.265865234375,0.00036376272328197956,0.00006802938878536224,-0.0007585366256535053
1717857655288906000,5.275906005859375,0.00027888035401701927,-0.0005609439685940742,0.0017431266605854034
1717857655298947000,5.285947021484375,-0.000660682562738657,0.0003368072211742401,0.00002964865416288376
1717857655308988200,5.29598828125,-0.0003126149531453848,0.00021766312420368195,0.000792061910033226
1717857655319029000,5.306029052734375,0.0009891381487250328,0.0006978316232562065,-0.00040183309465646744
1717857655329069000,5.316069091796875,-0.00005858042277395725,0.0016080765053629875,0.0008360524661839008
1717857655339110100,5.326110107421875,0.00046393158845603466,0.003251778893172741,0.0029210413340479136
1717857655349151200,5.336151123046875,-0.0007174864877015352,0.0006250124424695969,0.0012141154147684574
1717857655359192000,5.346192138671875,0.0005070350598543882,-0.0011590393260121346,-0.00023810658603906631
1717857655369233200,5.356233154296875,0.00006783008575439453,-0.0005555329844355583,0.0004900321364402771
1717857655379274200,5.366274169921875,-0.0004461600910872221,-0.00023568794131278992,-0.0008426136337220669
1717857655389315000,5.376315185546875,-0.0008787838742136955,-0.0005997410044074059,-0.0004989602603018284
1717857655399356200,5.386356201171875,0.0010389585513621569,0.0002897549420595169,-0.0002568787895143032
1717857655409397200,5.396397216796875,0.0014018723741173744,-0.0006063263863325119,-0.00023546116426587105
1717857655419438000,5.40643798828125,-0.0004618074744939804,-0.001063590869307518,-0.000241053756326437
1717857655429479200,5.416479248046875,-0.00017319060862064362,0.0005086539313197136,-0.0015273704193532467
1717857655439520000,5.42652001953125,0.00011602859012782574,0.000034611672163009644,-0.0013334923423826694
1717857655449561000,5.43656103515625,0.0005575544200837612,-0.0009935684502124786,0.0017396551556885242
1717857655459602200,5.446602294921875,0.000936522614210844,-0.0011032912880182266,0.00021845754235982895
1717857655469643000,5.45664306640625,0.0006550357211381197,-0.0005372688174247742,0.000021235551685094833
1717857655479684000,5.46668408203125,-0.0005484465509653091,0.0006560934707522392,-0.0006237821653485298
1717857655489725200,5.47672509765625,-0.00106850266456604,0.0012653283774852753,0.0008249599486589432
1717857655499766000,5.48676611328125,-0.0007289496716111898,0.0005577271804213524,0.00039805518463253975
1717857655509807000,5.49680712890625,0.0009580822661519051,-0.001784841064363718,0.00019340310245752335
1717857655519848200,5.50684814453125,-0.0012882938608527184,0.0008879071101546288,0.00046531204134225845
1717857655529889000,5.516888916015625,0.0006035151891410351,0.00013798847794532776,0.0010602250695228577
1717857655539930000,5.52693017578125,-0.0003991648554801941,0.0007598362863063812,-0.0007331478409469128
1717857655549971200,5.53697119140625,0.0002795832697302103,-0.00005113240331411362,0.0015944461338222027
1717857655560012000,5.547011962890625,0.0017485825810581446,-0.00011850986629724503,-0.0005203699693083763
1717857655570053000,5.55705322265625,0.0006750035099685192,0.0008611464872956276,-0.00022711092606186867
1717857655580094200,5.56709423828125,0.0011330675333738327,-0.0006861500442028046,-0.0009051519446074963
1717857655590135000,5.577135009765625,-0.000338046345859766,-0.00015756301581859589,0.0006980081088840961
1717857655600176000,5.587176025390625,0.0003703546244651079,0.0008363286033272743,-0.00006312364712357521
1717857655610217200,5.59721728515625,-0.0014973522629588842,0.0007828790694475174,0.0001665232703089714
1717857655620257000,5.607257080078125,0.0001277085393667221,-0.0011532390490174294,0.00026319595053792
1717857655630298000,5.617298095703125,-0.0013773951213806868,-0.0003521358594298363,0.0011439407244324684
1717857655640339200,5.627339111328125,0.00030945101752877235,0.0006825020536780357,0.0009023924358189106
1717857655650380000,5.637380126953125,0.00017781788483262062,0.00037701893597841263,-0.00014184275642037392
1717857655660421000,5.647421142578125,0.0006249626167118549,-0.0005793226882815361,0.0009604394435882568
1717857655670462200,5.657462158203125,-0.0009516598656773567,-0.0004959916695952415,0.0009275563061237335
1717857655680503000,5.6675029296875,0.0002654050476849079,0.0002811187878251076,0.001055920496582985
1717857655690544000,5.677544189453125,0.0001785680651664734,-0.0003322158008813858,0.0004922682419419289
1717857655700585200,5.687585205078125,0.0011868407018482685,0.0010249316692352295,0.0010768319480121136
1717857655710626000,5.6976259765625,-0.0006956064607948065,-0.0004899650812149048,0.002290847012773156
1717857655720667100,5.707667236328125,0.0004538141656666994,0.00038807932287454605,-0.00067165307700634
1717857655730708200,5.717708251953125,0.0002219781745225191,0.0008195843547582626,0.000013505108654499054
1717857655740749000,5.7277490234375,-0.000040076905861496925,-0.0005599325522780418,0.0006140479817986488
1717857655750790100,5.7377900390625,0.00043275090865790844,-0.0006947098299860954,-0.00003736652433872223
1717857655760831200,5.747831298828125,-0.00036033825017511845,-0.0004696724936366081,-0.00014149630442261696
1717857655770872000,5.7578720703125,0.0006736931391060352,0.0007031075656414032,-0.0008275364525616169
1717857655780913200,5.7679130859375,-0.00034975982271134853,0.0008591683581471443,0.0007253526709973812
1717857655790954200,5.777954345703125,0.00007426692172884941,0.00008967239409685135,0.0008916584774851799
1717857655800995000,5.7879951171875,-0.0007758138235658407,0.0009030010551214218,0.0005696825683116913
1717857655811036200,5.7980361328125,-0.00020256172865629196,-0.0010997215285897255,-0.0012825592420995235
1717857655821077000,5.808076904296875,-0.0019695693626999855,0.00010642409324645996,-0.00034459400922060013
1717857655831118000,5.8181181640625,0.0005833881441503763,0.000609654001891613,0.0015665022656321526
1717857655841159200,5.8281591796875,-0.00064299744553864,0.0011364268139004707,-0.0010761525481939316
1717857655851200000,5.838199951171875,0.0005496579688042402,-0.0006212107837200165,-0.0006923507899045944
1717857655861241000,5.848240966796875,-0.0005856477655470371,-0.00021188333630561829,0.00025333743542432785
1717857655871282200,5.8582822265625,-0.0012016671244055033,-0.0011831661686301231,0.001161719672381878
1717857655881323000,5.868322998046875,0.0004140727687627077,0.0013372497633099556,0.0003388030454516411
1717857655891364000,5.878364013671875,0.00005126930773258209,-0.0006158025935292244,-0.0015360917896032333
1717857655901405200,5.8884052734375,0.0023495773784816265,-0.0004922319203615189,-0.0010548587888479233
1717857655911446000,5.898446044921875,0.00015668664127588272,-0.0010283058509230614,-0.00031892163679003716
1717857655921486000,5.908486083984375,0.0014294111169874668,0.00042791012674570084,-0.00123904412612319
1717857655931527200,5.918527099609375,-0.0011250576935708523,-0.0008865529671311378,0.00036441441625356674
1717857655941568300,5.928568359375,-0.0004904265515506268,-0.0014311699196696281,0.00019716797396540642
1717857655951609000,5.938609130859375,0.000563010573387146,-0.00042203906923532486,0.000015143770724534988
1717857655961650200,5.948650146484375,0.0004713977687060833,0.0005936902016401291,-0.00039258645847439766
1717857655971691000,5.95869091796875,0.0006141648627817631,-0.00016317423433065414,0.0004378710873425007
1717857655981732000,5.968732177734375,0.0004269443452358246,-0.0004806229844689369,0.00007062125951051712
1717857655991773200,5.978773193359375,0.00014102226123213768,-0.00012264493852853775,-0.0006683832034468651
1717857656001814000,5.98881396484375,-0.00035911938175559044,-0.0005428921431303024,0.00046026473864912987
1717857656011855000,5.998855224609375,-0.00009177415631711483,-9.117648005485535e-7,-0.0007282583974301815
1717857656021896200,6.008896240234375,0.0007852048147469759,-0.00073194969445467,-0.0008222684264183044
1717857656031937000,6.01893701171875,-0.0007985860574990511,0.0007541263476014137,0.0009600343182682991
1717857656041979400,6.0289794921875,-0.0001751398667693138,-0.0006576152518391609,-0.00023679016157984734
1717857656052020200,6.039020263671875,0.0008794711902737617,0.0007897159084677696,0.0005435766652226448
1717857656062061300,6.049061279296875,-0.0010649028699845076,-0.00037807971239089966,0.0009102942422032356
1717857656072102400,6.059102294921875,-0.0006662085652351379,-0.00034570228308439255,-0.00016922596842050552
1717857656082143200,6.069143310546875,-0.0012489079963415861,0.00011422578245401382,-0.0006997277960181236
1717857656092184300,6.079184326171875,0.0007832350675016642,-0.0013677384704351425,-0.00041974661871790886
1717857656102225400,6.089225341796875,0.0004005392547696829,0.0010852990671992302,0.0013411357067525387
1717857656112266200,6.099266357421875,-0.00019419030286371708,-0.0006569232791662216,0.0023574603255838156
1717857656122307300,6.109307373046875,0.0005051558837294579,-0.0004507945850491524,0.0003678128123283386
1717857656132348400,6.119348388671875,-0.001114345621317625,0.0013124113902449608,0.0007177642546594143
1717857656142389200,6.12938916015625,0.0004534570034593344,0.0009382376447319984,-0.0006817267276346684
1717857656152430300,6.139430419921875,0.001069944817572832,-0.00033668242394924164,-0.0003400738351047039
1717857656162471200,6.14947119140625,-0.0002504505682736635,-0.0007579941302537918,-0.0007619182579219341
1717857656172512300,6.15951220703125,-0.0005826952401548624,-0.0006883963942527771,-0.0007063155062496662
1717857656182553300,6.16955322265625,-0.0009294387418776751,-0.0006644278764724731,-0.00027781305834650993
1717857656192594200,6.17959423828125,-0.00009884522296488285,-0.0005165906623005867,-0.00023433612659573555
1717857656202635300,6.18963525390625,-0.0008951302152127028,-0.0006249817088246346,0.001195515040308237
1717857656212676400,6.19967626953125,0.00042931875213980675,0.0001684371381998062,-0.0002151690423488617
1717857656222716400,6.20971630859375,0.000705755315721035,-0.0005151964724063873,-0.0008324901573359966
1717857656232757200,6.21975732421875,0.0008231354877352715,-0.0008884789422154427,-0.00021990574896335602
1717857656242798300,6.22979833984375,-0.0004202944692224264,-0.0005039181560277939,0.0009462926536798477
1717857656252839400,6.23983935546875,-0.00009541865438222885,-0.0009974613785743713,-0.0006615114398300648
1717857656262880300,6.24988037109375,0.00040632113814353943,-0.000036592595279216766,0.0006130775436758995
1717857656272921300,6.25992138671875,-0.0010345254559069872,-0.0006248867139220238,0.0002697296440601349
1717857656282962400,6.26996240234375,-0.0013043037615716457,-0.00017641019076108932,-0.00001496216282248497
1717857656293003300,6.280003173828125,0.0006838717963546515,-0.0007051471620798111,0.000827170442789793
1717857656303044400,6.29004443359375,-0.00020589027553796768,-0.000360000878572464,-0.00021918583661317825
1717857656313085400,6.30008544921875,-0.00038376450538635254,0.0002542324364185333,0.0003753099590539932
1717857656323126300,6.310126220703125,0.00035872473381459713,-0.0009604347869753838,0.0006333701312541962
1717857656333167400,6.32016748046875,0.0001055386383086443,-0.0013211611658334732,-0.00001781294122338295
1717857656343208200,6.330208251953125,-0.0004811554681509733,-0.0013967948034405708,-0.00036402372643351555
1717857656353249300,6.340249267578125,-0.001651102676987648,0.001743844710290432,0.0004307469353079796
1717857656363290400,6.350290283203125,-0.0005794467870146036,0.00116034597158432,0.00139640923589468
1717857656373331200,6.360331298828125,-0.0007943091914057732,0.00046031083911657333,0.0018110950477421284
1717857656383372300,6.370372314453125,-0.0006057573482394218,0.00026616640388965607,-0.0014475486241281033
1717857656393413400,6.380413330078125,-0.001690458506345749,-0.0008996110409498215,-0.0011360854841768742
1717857656403454200,6.3904541015625,-0.000732785789296031,-0.00046045612543821335,-0.0002617696300148964
1717857656413495300,6.400495361328125,0.0008767829276621342,-0.0009039128199219704,0.0011185086332261562
1717857656423536400,6.410536376953125,0.0013255253434181213,0.00014590471982955933,0.000008502975106239319
1717857656433577200,6.4205771484375,-0.0005884799174964428,-0.0007138336077332497,0.0008790250867605209
1717857656443618300,6.430618408203125,0.0009084828197956085,0.0001900428906083107,-0.0017492487095296383
1717857656453659400,6.440659423828125,-0.0017647913191467524,-0.00048439018428325653,-0.0008739796467125416
1717857656463700200,6.4507001953125,-0.00144254881888628,-0.000495043583214283,0.0007739844731986523
1717857656473741300,6.4607412109375,0.0011895715724676847,0.0010285340249538422,-0.0006850175559520721
1717857656483782400,6.470782470703125,-0.00021311547607183456,-0.00019066128879785538,0.000019655097275972366
1717857656493823200,6.4808232421875,-0.0006487469654530287,-0.0011166846379637718,-0.00010376796126365662
1717857656503863000,6.490863037109375,-0.0006647258996963501,-0.00104557815939188,-0.00016528693959116936
1717857656513904400,6.500904296875,0.001134476624429226,0.00017592869699001312,0.001443200744688511
1717857656523945200,6.5109453125,0.00007001124322414398,-0.0005721533671021461,0.00015769293531775475
1717857656533986300,6.520986328125,-0.0007658237591385841,-0.0008076811209321022,-0.0017187213525176048
1717857656544027400,6.53102734375,-0.00017273775301873684,0.0007052607834339142,0.0001785149797797203
1717857656554068200,6.541068115234375,0.0005463883280754089,-0.0003923177719116211,0.0011686431244015694
1717857656564109300,6.551109375,0.0004156273789703846,0.00030729547142982483,0.0015939497388899326
1717857656574150400,6.561150390625,-0.00019534840248525143,0.0010441187769174576,0.0011620139703154564
1717857656584191200,6.571191162109375,0.00006937002763152122,0.0005828589200973511,-0.00040658796206116676
1717857656594232300,6.581232421875,0.0005360553041100502,0.0007713045924901962,-0.00046599144116044044
1717857656604273400,6.5912734375,-0.00010230438783764839,-0.0008249934762716293,0.0020357819739729166
1717857656614314200,6.601314208984375,-0.0004414983559399843,0.0009383158758282661,-0.0007532727904617786
1717857656624355300,6.611355224609375,0.0011002055834978819,0.00033990293741226196,0.0006592678837478161
1717857656634396400,6.621396484375,-0.00020808493718504906,-0.0012678205966949463,0.0006223018281161785
1717857656644437200,6.631437255859375,0.0009197634644806385,-0.00024543236941099167,-0.0013838573358953
1717857656654478300,6.641478271484375,-0.00015389174222946167,-0.0005506677553057671,-0.0004143640398979187
1717857656664519400,6.65151953125,-0.0004769330844283104,0.00033643096685409546,0.00016966741532087326
1717857656674560300,6.661560302734375,-0.00047154887579381466,-0.0003315405920147896,0.000042914412915706635
1717857656684601300,6.671601318359375,-0.0010955275502055883,-0.0005139671266078949,-0.0005227411165833473
1717857656694642400,6.681642333984375,0.000978102209046483,-0.002152595203369856,0.000740603543817997
1717857656704683300,6.691683349609375,-0.00019235722720623016,0.0011795517057180405,0.00033287331461906433
1717857656714724400,6.701724365234375,-0.00017080968245863914,0.000013782642781734467,0.0011690640822052956
1717857656724765200,6.71176513671875,-0.00043020141310989857,0.000667056068778038,-0.0012216558679938316
1717857656734806300,6.72180615234375,0.00033108610659837723,-0.0009695310145616531,-0.0012952140532433987
1717857656744847400,6.731847412109375,-0.0011781274806708097,0.0003319559618830681,-0.0013596629723906517
1717857656754888200,6.74188818359375,-0.000598483718931675,0.00003206636756658554,-0.0005838512443006039
1717857656764929300,6.75192919921875,0.00044787232764065266,-0.000019865110516548157,0.0007557189092040062
1717857656774970400,6.761970458984375,-0.00026449281722307205,0.0005152886733412743,0.001709176693111658
1717857656785011200,6.77201123046875,0.0007120883092284203,0.0000026300549507141113,-0.000883942935615778
1717857656795051000,6.782051025390625,-0.0009792419150471687,-0.000011842697858810425,0.0017019924707710743
1717857656805092000,6.792092041015625,0.0007408936507999897,-0.0010283710435032845,-0.0004596952348947525
1717857656815133400,6.802133544921875,-0.0007067597471177578,0.0009326552972197533,-0.0005839131772518158
1717857656825174300,6.81217431640625,0.001059981295838952,0.0005435673519968987,-0.00025634467601776123
1717857656835215400,6.82221533203125,-0.0008751607965677977,0.00012251920998096466,-0.0009486246854066849
1717857656845256400,6.83225634765625,0.00034403405152261257,0.0012010997161269188,0.00043648527935147285
1717857656855297300,6.84229736328125,-0.0021387513261288404,-0.0009438842535018921,-0.001146842259913683
1717857656865338400,6.85233837890625,-0.00012220581993460655,0.00014508236199617386,0.00002175290137529373
1717857656875379200,6.862379150390625,0.0019249399192631245,0.000824454240500927,-0.0020197443664073944
1717857656885420300,6.872420166015625,0.00037311576306819916,0.00032218266278505325,0.0019808560609817505
1717857656895461400,6.88246142578125,-0.0002982884179800749,0.0005135182291269302,-0.0007664496079087257
1717857656905502200,6.892502197265625,-0.0004578116349875927,-0.0006492175161838531,0.0004852358251810074
1717857656915543300,6.902543212890625,0.0005110669881105423,-0.00035615358501672745,-0.0007430128753185272
1717857656925584400,6.91258447265625,-0.00041571282781660557,0.000904320739209652,0.0007547489367425442
1717857656935625200,6.922625244140625,-0.0010347007773816586,0.0005853818729519844,0.0003793095238506794
1717857656945666300,6.932666259765625,0.00019035302102565765,0.00010840967297554016,0.0007452280260622501
1717857656955707400,6.942707275390625,-0.00030807475559413433,0.0009920867159962654,0.0007813377305865288
1717857656965748200,6.952748291015625,-0.0009632124565541744,-0.0007394999265670776,-0.0006756777875125408
1717857656975789300,6.962789306640625,0.0004570526070892811,-0.0011810967698693275,-0.0005113431252539158
1717857656985830400,6.972830322265625,-0.0007413700222969055,0.0014956463128328323,-0.0002173301763832569
1717857656995871200,6.982871337890625,-0.00002181227318942547,-0.0006020395085215569,0.0013115061447024345
1717857657005912300,6.992912353515625,-0.0008167659398168325,-0.0007378607988357544,0.0005522393621504307
1717857657015953400,7.002953369140625,-0.0022978479973971844,-0.00009122677147388458,0.0005245325155556202
1717857657025994200,7.012994140625,-0.0017375187017023563,-0.000032903626561164856,-0.0012472686357796192
1717857657036034800,7.023034912109375,-0.0008321548812091351,-0.0008216537535190582,0.0011417246423661709
1717857657046076000,7.033075927734375,-0.0009706392884254456,-0.00014095008373260498,-0.0010822811163961887
1717857657056116700,7.04311669921875,0.00022601382806897163,-0.000040016137063503265,0.0010200371034443378
1717857657066157800,7.05315771484375,0.000168489757925272,0.00019061379134655,-0.00014509586617350578
1717857657076199000,7.063198974609375,0.0006023531313985586,0.0001522516831755638,0.000527410302311182
1717857657086239000,7.073239013671875,-0.0012882247101515532,0.0007088528946042061,0.0005409927107393742
1717857657096279800,7.08327978515625,0.00010999967344105244,-0.00004070717841386795,-0.0006805923767387867
1717857657106321000,7.09332080078125,-0.0011677851434797049,-0.0006226086989045143,0.0003628344275057316
1717857657116362000,7.103362060546875,0.0018793269991874695,-0.0003239475190639496,0.00018112082034349442
1717857657126402800,7.11340283203125,-0.0008349665440618992,-0.0009551169350743294,0.0006386521272361279
1717857657136444000,7.12344384765625,0.0007797228172421455,-0.0012727202847599983,0.0004311506636440754
1717857657146484700,7.133484619140625,-0.000009105540812015533,-0.000782698392868042,-0.0009547583758831024
1717857657156525800,7.14352587890625,-0.0013873258139938116,-0.0008375979959964752,0.0007396144792437553
1717857657166567000,7.15356689453125,0.0006326818838715553,0.001153913326561451,0.0010602590627968311
1717857657176607700,7.163607666015625,0.0002590001095086336,0.0004111398011445999,-0.0005389926955103874
1717857657186648800,7.17364892578125,0.00042757834307849407,-0.0014810366556048393,-0.00023512588813900948
1717857657196690000,7.18368994140625,-0.0008069435134530067,0.0003136340528726578,0.0006025237962603569
1717857657206730800,7.193730712890625,0.0002836210187524557,-0.0010472405701875687,-0.000990845263004303
1717857657216771800,7.203771728515625,-0.0005197564605623484,0.0011957334354519844,-0.00006764009594917297
1717857657226813000,7.21381298828125,0.0006184782832860947,0.00017307978123426437,0.0008415631018579006
1717857657236853800,7.223853759765625,0.0004460862837731838,0.000058284029364585876,0.0003226418048143387
1717857657246894800,7.233894775390625,-0.0003661776427179575,0.0009336648508906364,0.000757269561290741
1717857657256936000,7.24393603515625,-0.00093856081366539,0.00014613475650548935,-0.0007079895585775375
1717857657266976800,7.253976806640625,-0.0002930103801190853,-0.0012368448078632355,-0.000867513008415699
1717857657277017900,7.264017822265625,0.00009517790749669075,-0.00008831080049276352,-0.00018384447321295738
1717857657287059000,7.274058837890625,0.0004472476430237293,0.00003206450492143631,0.0007194997742772102
1717857657297099800,7.284099853515625,0.0006616201717406511,0.000045643188059329987,0.00020344415679574013
1717857657307140900,7.294140869140625,0.0009409857448190451,-0.0006305333226919174,-0.00031374208629131317
1717857657317182000,7.304181884765625,0.00008481810800731182,0.0007627671584486961,0.0009067095816135406
1717857657327222800,7.314222900390625,0.0023338578175753355,-0.00016294699162244797,-0.0007857293821871281
1717857657337263900,7.324263916015625,0.00189103651791811,-0.0007946202531456947,0.001278931275010109
1717857657347304700,7.3343046875,0.0006763688288629055,0.0005721142515540123,0.0013897190801799297
1717857657357344800,7.3443447265625,0.00019191368483006954,-0.0018065478652715683,-0.00014709588140249252
1717857657367387000,7.354386962890625,-0.0006696188356727362,0.00033197086304426193,0.00011229608207941055
1717857657377427000,7.364427001953125,-0.0012059547007083893,-0.000919257290661335,-0.0014267531223595142
1717857657387467800,7.3744677734375,-0.0006261845119297504,-0.0017272601835429668,-0.0013726912438869476
1717857657397508900,7.3845087890625,0.00008032540790736675,0.00018289126455783844,-0.0013649924658238888
1717857657407550000,7.394550048828125,0.0005085619632154703,-0.0002482747659087181,0.0007809828966856003
1717857657417590800,7.4045908203125,0.00010177423246204853,-0.0006759278476238251,-0.00005939742550253868
1717857657427631900,7.4146318359375,-0.0003024938050657511,-0.0010224049910902977,-0.001805898267775774
1717857657437673000,7.4246728515625,0.001072712242603302,0.00016656983643770218,-0.002735526766628027
1717857657447713800,7.4347138671875,0.0004026610404253006,0.001585502177476883,0.002079734345898032
1717857657457755000,7.4447548828125,-0.00001964205875992775,0.0007719853892922401,-0.0004572407342493534
1717857657467796000,7.4547958984375,0.0001670457422733307,0.0004201820120215416,0.00013904133811593056
1717857657477836800,7.4648369140625,-0.0001877681352198124,-0.0008940631523728371,-0.0015831207856535912
1717857657487878000,7.4748779296875,0.00008094473741948605,-0.00039179064333438873,-0.0011290516704320908
1717857657497918700,7.484918701171875,0.0022546695545315742,0.001517515629529953,0.0010397308506071568
1717857657507959800,7.494959716796875,0.0013451999984681606,-0.0007355185225605965,0.0010069739073514938
1717857657518001000,7.5050009765625,0.00006774859502911568,-0.0003922535106539726,0.002088589360937476
1717857657528041700,7.515041748046875,0.0002064988948404789,0.0002620844170451164,-0.0014187940396368504
1717857657538082800,7.525082763671875,0.0017429571598768234,0.0004715407267212868,-0.000138153787702322
1717857657548124000,7.5351240234375,0.0006340169347822666,0.0014135008677840233,0.0004655849188566208
1717857657558164700,7.545164794921875,-0.0002045850269496441,-0.00024200323969125748,0.000672265887260437
1717857657568205800,7.555205810546875,-0.0017204561736434698,-0.0006864843890070915,0.0004954319447278976
1717857657578247000,7.565246826171875,0.0015027401968836784,0.00035523343831300735,0.0004921816289424896
1717857657588287700,7.575287841796875,-0.0005058159586042166,0.0007826704531908035,0.000681532546877861
1717857657598328800,7.585328857421875,-0.0004209657199680805,-0.0001718178391456604,-0.00016301171854138374
1717857657608370000,7.595369873046875,-0.000136273680254817,0.00046201422810554504,-0.0006554299034178257
1717857657618410800,7.60541064453125,0.00047116330824792385,0.00016622990369796753,-0.00017520925030112267
1717857657628451800,7.615451904296875,0.00010844063945114613,-0.0015810700133442879,0.0003262637183070183
1717857657638492000,7.625491943359375,0.00022329716011881828,0.0006692176684737206,0.0011511100456118584
1717857657648533000,7.635532958984375,0.0005111852660775185,-0.00016062334179878235,-0.000546921044588089
1717857657658573800,7.64557373046875,-0.00034796353429555893,-0.0006365440785884857,-0.00004981318488717079
1717857657668615000,7.655614990234375,0.000597458565607667,0.00021007470786571503,-0.0005227904766798019
1717857657678655700,7.66565576171875,0.0011848506983369589,-0.0005138283595442772,-0.00029824115335941315
1717857657688696800,7.67569677734375,-0.000021295156329870224,0.0001357169821858406,0.0004897881299257278
1717857657698738000,7.685738037109375,0.0012671593576669693,-0.0008139126002788544,0.00008616410195827484
1717857657708778800,7.69577880859375,0.000619478989392519,-0.0003081783652305603,-0.001031298190355301
1717857657718819800,7.70581982421875,0.00029426347464323044,-0.0010509928688406944,0.000506316777318716
1717857657728861000,7.71586083984375,-0.0008500965777784586,-0.00023047253489494324,-0.002035403624176979
1717857657738901800,7.72590185546875,0.000024724286049604416,0.00021383259445428848,0.000706531573086977
1717857657748942800,7.73594287109375,0.0000628072302788496,-0.00012518838047981262,-0.0006799101829528809
1717857657758984000,7.74598388671875,-0.0005492325872182846,-0.0006788047030568123,-0.0014827614650130272
1717857657769024800,7.756024658203125,-0.0005196714773774147,0.0008919285610318184,0.0010538995265960693
1717857657779065900,7.76606591796875,0.000555860809981823,0.0005396967753767967,-0.00038021476939320564
1717857657789107000,7.77610693359375,-0.0002755778841674328,0.0008134692907333374,0.0008946405723690987
1717857657799147800,7.786147705078125,-0.0016740201972424984,-0.0009840112179517746,-0.001883271150290966
1717857657809188900,7.79618896484375,0.00021815556101500988,-0.0004689553752541542,0.0010065245442092419
1717857657819230000,7.80622998046875,0.0001119738444685936,-0.0006904061883687973,0.0008079595863819122
1717857657829270800,7.816270751953125,0.0011567319743335247,-0.000870436429977417,0.000559752807021141
1717857657839312000,7.826311767578125,-0.0004072238225489855,-0.00015511084347963333,-0.00003973161801695824
1717857657849353000,7.83635302734375,0.0006798787508159876,0.0006230650469660759,-0.00008873362094163895
1717857657859393800,7.846393798828125,-0.0008341744542121887,-0.0006777308881282806,-0.00046486547216773033
1717857657869435000,7.856434814453125,-0.00009567989036440849,0.00041283387690782547,-0.00039881886914372444
1717857657879475700,7.866475830078125,0.00003681587986648083,-0.0007387734949588776,0.0009129117242991924
1717857657889516800,7.876516845703125,0.00008262204937636852,-0.00043943431228399277,-0.00042878882959485054
1717857657899558000,7.886557861328125,-0.0008656831923872232,-0.0002794060856103897,-0.0015865610912442207
1717857657909598700,7.8965986328125,-0.0002851139288395643,-0.0006727548316121101,-0.0008355495519936085
1717857657919639800,7.906639892578125,-0.0006338236853480339,-0.0008195294067263603,-0.0005179829895496368
1717857657929680000,7.916679931640625,0.000688968226313591,-0.00012923777103424072,0.0015952354297041893
1717857657939721000,7.926720947265625,-0.00028214510530233383,0.0006869947537779808,-0.0007235235534608364
1717857657949761800,7.93676171875,-0.00023474078625440598,-0.0005532391369342804,-0.00014055753126740456
1717857657959803000,7.946802978515625,-0.0010832445695996284,-0.00026221945881843567,0.0018156133592128754
1717857657969844000,7.956843994140625,0.0004858898464590311,0.0003830641508102417,-0.0005932156927883625
1717857657979884800,7.966884765625,0.000754357548430562,0.00017247162759304047,0.0006909715011715889
1717857657989926000,7.97692578125,0.0005666047800332308,0.0004060305655002594,-0.0003346116282045841
1717857657999967000,7.986967041015625,-0.00035834568552672863,0.0005614925175905228,0.000199043657630682
1717857658010007800,7.9970078125,-0.0015684859827160835,-0.000446246936917305,0.00010743085294961929
1717857658020049000,8.007048828125,0.0010743991006165743,-0.0006866604089736938,-0.00001576170325279236
1717857658030089700,8.01708984375,0.0008112790528684855,0.001003115437924862,0.0004114094190299511
1717857658040130800,8.027130859375,0.0005522165447473526,0.0005423128604888916,0.0005188090726733208
1717857658050172000,8.037171875,0.0015727397985756397,-0.0010342784225940704,-0.000833543948829174
1717857658060212700,8.047212646484375,-0.0005619262810796499,-0.00009054411202669144,0.0002739778719842434
1717857658070253800,8.05725390625,-0.000964063685387373,-0.0004801638424396515,-0.0014661317691206932
1717857658080295000,8.067294921875,-0.0002871651668101549,-0.0009862352162599564,0.0011661532334983349
1717857658090335700,8.077335693359375,0.0021762587130069733,0.0016103461384773254,-0.00016569346189498901
1717857658100376800,8.087376953125,-0.0007736464031040668,0.0005133207887411118,0.000736794900149107
1717857658110418000,8.09741796875,0.00002237246371805668,-0.0005255788564682007,0.0005514388903975487
1717857658120458800,8.107458740234375,0.0005280370824038982,0.000014906749129295349,0.0008896174840629101
1717857658130499800,8.117499755859376,-0.0016400422900915146,-0.0002737799659371376,-0.0006028180941939354
1717857658140541000,8.127541015625,0.000051102833822369576,-0.00003842450678348541,0.0007127709686756134
1717857658150581800,8.137581787109376,0.0009917314164340496,-0.0010435013100504875,-0.00043425243347883224
1717857658160622800,8.147622802734375,-0.0003526529762893915,-0.0008889855816960335,0.00025639403611421585
1717857658170664000,8.157663818359374,0.000042560044676065445,0.0002652285620570183,0.0011570751667022705
1717857658180704800,8.167704833984375,-0.0007019480690360069,-0.001421079970896244,0.0003387625329196453
1717857658190745900,8.177745849609375,0.0006490733940154314,-0.0007196031510829926,-0.0017949622124433517
1717857658200786000,8.187785888671876,0.0002995440736413002,0.00013766158372163773,0.00009447475895285606
1717857658210826800,8.19782666015625,0.0005741161294281483,-0.00018511340022087097,0.0006345640867948532
1717857658220867800,8.207867919921876,-0.0018287401180714369,-0.001662486232817173,-0.0005937931127846241
1717857658230909000,8.217908935546875,0.0028911803383380175,-0.00038816314190626144,-0.0004462539218366146
1717857658240949800,8.22794970703125,-0.000512965489178896,-0.0004156632348895073,0.000425451435148716
1717857658250990800,8.237990966796875,-0.0019180492963641882,0.0006541283801198006,-0.00023448001593351364
1717857658261032000,8.248031982421875,-0.00011667259968817234,-0.00032031815499067307,-0.0009543886408209801
1717857658271072800,8.25807275390625,-0.0013435909058898687,0.0006402842700481415,-0.00030537648126482964
1717857658281113900,8.26811376953125,0.00014163809828460217,-0.0003082873299717903,0.0007926463149487972
1717857658291155000,8.278155029296874,-0.0005150972865521908,0.0002357959747314453,-0.0000060354359447956085
1717857658301195800,8.28819580078125,0.00011468864977359772,0.0013966672122478485,0.0008659432642161846
1717857658311236900,8.29823681640625,-0.0010741464793682098,-0.00014876481145620346,0.0003586108796298504
1717857658321278000,8.30827783203125,0.0016757661942392588,-0.00009862799197435379,-0.0017369887791574001
1717857658331318800,8.31831884765625,-0.0007663525175303221,0.0010031219571828842,0.0007868888787925243
1717857658341359900,8.32835986328125,0.0006444645114243031,0.0003330232575535774,0.00035330653190612793
1717857658351401000,8.33840087890625,0.0005501885898411274,-0.0001418180763721466,-0.001204109750688076
1717857658361441800,8.34844189453125,0.0010550892911851406,-0.00007957592606544495,0.00020382879301905632
1717857658371483000,8.35848291015625,-0.00014546397142112255,0.0007105842232704163,0.0018821526318788528
1717857658381524000,8.36852392578125,-0.0002413035836070776,0.0010944362729787827,0.00011610286310315132
1717857658391564800,8.378564697265626,0.0004234213847666979,-0.00173490634188056,0.000721705611795187
1717857658401606000,8.38860595703125,-0.00046481145545840263,-0.001210843212902546,-0.0016815993003547192
1717857658411646700,8.398646728515626,0.0015717078931629658,-0.0017203055322170258,-0.0005252547562122345
1717857658421687800,8.408687744140625,0.0004324603360146284,-0.0004946505650877953,-0.00036883214488625526
1717857658431729000,8.41872900390625,-0.0008173610549420118,0.0007418543100357056,-0.000506517942994833
1717857658441769700,8.428769775390625,-0.00027403817512094975,-0.0002075880765914917,0.0014926302246749401
1717857658451810800,8.438810791015625,0.0006106640212237835,0.0013394420966506004,-0.0016831890679895878
1717857658461852000,8.448851806640626,-0.0006895826663821936,-0.00041783973574638367,-0.0013443902134895325
1717857658471892700,8.458892822265625,0.0010803542099893093,-0.0006109187379479408,0.00025643594563007355
1717857658481933800,8.468933837890624,0.00042030448094010353,0.001345345750451088,0.0014634858816862106
1717857658491973600,8.4789736328125,0.0004290929064154625,0.0015338975936174393,-0.0004886109381914139
1717857658502015000,8.489014892578124,0.0003952421247959137,-0.00030262675136327744,-0.0001302589662373066
1717857658512055800,8.499055908203125,0.000037845922634005547,-0.0008062301203608513,0.0008966559544205666
1717857658522097000,8.509096923828125,-0.0007677692919969559,0.0005637481808662415,0.0013098474591970444
1717857658532138000,8.519137939453126,-0.0008215650450438261,0.0008721426129341125,0.0007380666211247444
1717857658542178800,8.5291787109375,-0.0011930440086871386,0.0005842791870236397,0.00022980989888310432
1717857658552220000,8.539219970703124,-0.0006343128625303507,-0.0005773911252617836,-0.000700698234140873
1717857658562261000,8.549260986328125,0.0004875711165368557,0.0006460137665271759,0.00024537742137908936
1717857658572301800,8.5593017578125,-0.00012282514944672585,-0.0003324318677186966,0.00035723019391298294
1717857658582343000,8.569343017578126,-0.0006041328888386488,-0.0006780894473195076,0.0015738196671009064
1717857658592383700,8.5793837890625,-0.0005274338182061911,0.0002545490860939026,-0.0001945192925632
1717857658602424800,8.5894248046875,-0.00034105172380805016,0.0009579835459589958,-0.00038453610613942146
1717857658612466000,8.5994658203125,-0.000637994147837162,-0.00007345899939537048,-0.00035284459590911865
1717857658622506800,8.6095068359375,-0.0007453481666743755,-0.0003412170335650444,0.000018781516700983047
1717857658632547800,8.6195478515625,-0.000774110434576869,-0.00007516704499721527,-0.0006589931435883045
1717857658642589000,8.6295888671875,0.002091998001560569,-0.0009763287380337715,0.0007024039514362812
1717857658652629800,8.639629638671876,0.0017050409223884344,-0.0010532941669225693,-0.0005695219151675701
1717857658662670800,8.6496708984375,0.00035844556987285614,-0.001170664094388485,0.00018179090693593025
1717857658672712000,8.6597119140625,0.0005621775053441525,-0.0005895625799894333,0.001286203507333994
1717857658682752800,8.669752685546875,0.001548196654766798,-0.0006544105708599091,0.0014815940521657467
1717857658692793900,8.6797939453125,0.0000696093775331974,-0.00019102077931165695,-0.00007768673822283745
1717857658702835000,8.6898349609375,0.0006842792499810457,-0.0003936253488063812,-0.0005414001643657684
1717857658712875800,8.699875732421875,0.0020350345876067877,-0.0018173512071371078,0.00020375242456793785
1717857658722916900,8.709916748046876,-0.0015771491453051567,0.00039987824857234955,0.00039206910878419876
1717857658732958000,8.7199580078125,0.0013006627559661865,-0.00037803128361701965,-0.000265998300164938
1717857658742998800,8.729998779296874,0.0012054485268890858,0.00021926872432231903,0.00003156391903758049
1717857658753040000,8.740039794921875,0.00026961416006088257,-0.00040258001536130905,0.0008267839439213276
1717857658763081000,8.7500810546875,0.00002097361721098423,0.0008608857169747353,0.0004136539064347744
1717857658773120800,8.760120849609375,0.0007762459572404623,-0.0004571126773953438,-0.00047770608216524124
1717857658783161600,8.77016162109375,-0.0005814193282276392,-0.0003729872405529022,-0.0009591998532414436
1717857658793202700,8.78020263671875,0.0005480274558067322,0.0001873420551419258,-0.00015891995280981064
1717857658803243800,8.790243896484375,0.0004469898995012045,0.0011101914569735527,0.0004994054324924946
1717857658813284900,8.800284912109374,-0.0009354569483548403,-0.0017606960609555244,0.0006637223996222019
1717857658823326000,8.810325927734375,-0.0006745154969394207,-0.0002561444416642189,0.0003734612837433815
1717857658833366800,8.82036669921875,0.0008107293397188187,-0.0005594789981842041,0.0001787845976650715
1717857658843408000,8.830407958984376,0.00013229530304670334,0.00039528030902147293,0.001957977656275034
1717857658853449000,8.840448974609375,-0.0017684027552604675,0.0002269688993692398,0.000157148577272892
1717857658863489800,8.85048974609375,-0.00004885322414338589,-0.00032507535070180893,-0.0008708145469427109
1717857658873531000,8.86053076171875,0.00023690401576459408,-0.0004766089841723442,0.0003337333910167217
1717857658883572000,8.870572021484374,0.0011861096136271954,-0.000059169717133045197,0.0009599793702363968
1717857658893612800,8.88061279296875,0.0010715937241911888,-0.001097269356250763,0.0006611724384129047
1717857658903654000,8.89065380859375,0.0008343448862433434,0.00037827901542186737,-0.0004420769400894642
1717857658913695000,8.900695068359376,0.0004734862595796585,0.00014205742627382278,0.0004234500229358673
1717857658923735800,8.91073583984375,-0.00021816929802298546,-0.00041574984788894653,0.001252202782779932
1717857658933777000,8.92077685546875,0.0005277823656797409,-0.0003821933642029762,0.0008769636042416096
1717857658943817700,8.930817626953125,-0.0011347425170242786,0.00047261081635951996,-0.0008341805078089237
1717857658953858800,8.94085888671875,0.00032759946770966053,-0.0007585687562823296,0.00007502268999814987
1717857658963900000,8.95089990234375,-0.001457037404179573,-0.0001549050211906433,0.0007316344417631626
1717857658973940700,8.960940673828125,-0.00006127450615167618,-0.0008009877055883408,-0.0006486820057034492
1717857658983981800,8.97098193359375,-0.0007706147152930498,0.00038514286279678345,-0.0005309153348207474
1717857658994023000,8.98102294921875,0.0008856051135808229,-0.001691856887191534,-0.0002784472890198231
1717857659004063700,8.991063720703124,-0.0004831911064684391,-0.00039788149297237396,0.0017372067086398602
1717857659014104800,9.001104736328125,-0.0007590944878757,-0.00004128366708755493,0.0003662114031612873
1717857659024146000,9.01114599609375,0.0011183873284608126,-0.0011836821213364601,-0.00024681398645043373
1717857659034186800,9.021186767578126,0.0003050577361136675,-0.0007967250421643257,0.0010365634225308895
1717857659044226000,9.03122607421875,-0.00046246754936873913,0.00027478672564029694,-0.0004621809348464012
1717857659054267100,9.04126708984375,0.00007069716230034828,-0.0004751598462462425,-0.0011620596051216125
1717857659064308200,9.05130810546875,0.000537119572982192,-0.00020020268857479095,0.0002041771076619625
1717857659074349000,9.06134912109375,-0.00005356944166123867,0.00020193494856357574,0.0007541198283433914
1717857659084390100,9.07139013671875,-0.000276999082416296,-0.00007144734263420105,-0.0010970309376716614
1717857659094431200,9.08143115234375,-0.0004833941347897053,-0.000582507811486721,0.00010991375893354416
1717857659104472000,9.09147216796875,0.0010813702829182148,0.00030183233320713043,0.0006370288319885731
1717857659114513200,9.10151318359375,0.00039347587153315544,0.0002600206062197685,0.00022237468510866165
1717857659124554200,9.11155419921875,-0.00009083515033125877,0.00018248241394758224,0.0011740592308342457
1717857659134595000,9.121594970703125,-0.0015039085410535336,-0.00004814751446247101,-0.00039960257709026337
1717857659144636200,9.13163623046875,0.0014029375743120909,-0.0004927013069391251,0.0000925757922232151
1717857659154677200,9.14167724609375,-0.0002524831797927618,0.0004937341436743736,0.0005764719098806381
1717857659164718000,9.151718017578125,-0.0009066923521459103,0.00025340262800455093,0.001446408685296774
1717857659174759200,9.16175927734375,-0.0005658078007400036,-0.003219891805201769,0.0002740849740803242
1717857659184800300,9.17180029296875,-0.001576955895870924,-0.000420447438955307,-0.0007897820323705673
1717857659194841000,9.181841064453126,-0.00047360826283693314,-0.0011948952451348305,-0.0005626147612929344
1717857659204882200,9.191882080078125,0.00012806220911443233,0.0006755851209163666,0.0004366249777376652
1717857659214923300,9.20192333984375,-0.0003483775071799755,-0.00012176483869552612,-0.00014074845239520073
1717857659224964000,9.211964111328125,-0.0010143432300537825,0.00025798380374908447,-0.0006444607861340046
1717857659235005200,9.222005126953125,0.00006849807687103748,-0.000013126060366630554,0.0020754258148372173
1717857659245046000,9.2320458984375,0.0010620953980833292,-0.0004958892241120338,0.0007912302389740944
1717857659255087000,9.242087158203125,-0.0007118359208106995,-0.0014873840846121311,0.0002383580431342125
1717857659265128200,9.252128173828124,-0.0010764524340629578,-0.00020842067897319794,0.00003733998164534569
1717857659275169000,9.2621689453125,-0.00027377577498555183,0.0007521817460656166,-0.001132320612668991
1717857659285210000,9.272210205078125,-0.00015080883167684078,0.001058138906955719,0.0002283342182636261
1717857659295251200,9.282251220703126,-0.0007441611960530281,0.0004935488104820251,-0.000013480428606271744
1717857659305292000,9.2922919921875,-0.0025037950836122036,0.0007157810032367706,0.0006854715757071972
1717857659315333000,9.3023330078125,0.00006535626016557217,-0.0010182028636336327,-0.0004365183413028717
1717857659325373200,9.312373291015625,0.0005288065876811743,0.000325704924762249,-0.00010430347174406052
1717857659335414300,9.322414306640624,0.0012015209067612886,0.0006913570687174797,-0.0008214926347136497
1717857659345455000,9.332455078125,-0.002042637672275305,0.0001649819314479828,0.001144165638834238
1717857659355496200,9.34249609375,-0.0003467367496341467,-0.0004169195890426636,-0.0008175186812877655
1717857659365537300,9.352537353515626,0.000980975804850459,-0.000392143614590168,0.002615709323436022
1717857659375578000,9.362578125,-0.00011092028580605984,-0.00019373837858438492,0.0014388584531843662
1717857659385619200,9.372619140625,0.0013706423342227936,0.0012532612308859825,0.002421167679131031
1717857659395660300,9.382660400390625,-0.00004429509863257408,0.0007184986025094986,0.0018693609163165092
1717857659405701000,9.392701171875,-0.001803518971428275,-0.0014365427196025848,0.0006167618557810783
1717857659415742200,9.4027421875,-0.00033851410262286663,0.000023402273654937744,-0.00029057683423161507
1717857659425783000,9.412782958984375,0.00006083794869482517,-0.00024729128926992416,-0.001100730150938034
1717857659435824000,9.42282421875,0.0006778924725949764,0.00042995065450668335,-0.0001531774178147316
1717857659445865200,9.432865234375,-0.0008549601770937443,0.0008735079318284988,-0.0003043939359486103
1717857659455906000,9.442906005859374,0.0012185769155621529,0.0004750983789563179,0.00028576282784342766
1717857659465947100,9.452947021484375,-0.00037698051892220974,-0.0008272211998701096,0.0016796477138996124
1717857659475988200,9.46298828125,-0.00009841402061283588,-0.0013398798182606697,-0.001202691812068224
1717857659486029000,9.473029052734375,0.000346094137057662,0.0006175637245178223,-0.00044495146721601486
1717857659496070100,9.483070068359375,0.0004933669697493315,0.00042475108057260513,-0.00047051766887307167
1717857659506111200,9.493111328125,0.0003075560089200735,0.0004516309127211571,-0.0005122213624417782
1717857659516152000,9.503152099609375,0.0010215493384748697,-0.0013670413754880428,-0.000026727095246315002
1717857659526193200,9.513193115234374,0.0022403732873499393,-0.0006823502480983734,-0.0001302291639149189
1717857659536234200,9.523234130859375,-0.0021660933271050453,0.0004785209894180298,0.00004074582830071449
1717857659546275000,9.533275146484375,-0.0001312936656177044,-0.0001103132963180542,0.0015674317255616188
1717857659556316200,9.543316162109376,0.00020026974380016327,-0.0008179154247045517,-0.0017295614816248417
1717857659566357200,9.553357177734375,-0.0006153336726129055,0.0003719218075275421,-0.0007744980975985527
1717857659576398000,9.563398193359374,0.0004888128023594618,-0.0009652506560087204,-0.001233094371855259
1717857659586439200,9.573439208984375,0.00035751587711274624,-0.00025546178221702576,0.0006327899172902107
1717857659596479200,9.583479248046874,0.0011242397595196962,-0.0002903491258621216,-0.00048307469114661217
1717857659606520000,9.59352001953125,0.0023644689936190844,-0.000799388624727726,0.0008755684830248356
1717857659616561200,9.60356103515625,0.0008560542482882738,0.0005867872387170792,-0.00009036017581820488
1717857659626602200,9.613602294921876,0.0005330326966941357,0.0005759252235293388,0.000828135758638382
1717857659636643000,9.62364306640625,-0.00010266387835144997,0.00036020856350660324,0.002144270110875368
1717857659646684200,9.63368408203125,0.0004109919536858797,0.00018868595361709595,0.00008242111653089523
1717857659656725200,9.643725341796875,0.00007383571937680244,0.000035820528864860535,0.0004771016538143158
1717857659666766000,9.65376611328125,0.00017630448564887047,-0.00036374665796756744,-0.0006739618256688118
1717857659676807200,9.66380712890625,-0.0003017326816916466,0.0005358690395951271,0.0007066209800541401
1717857659686848300,9.67384814453125,-0.0005115550011396408,0.0010931333526968956,-0.000274494756013155
1717857659696889000,9.68388916015625,0.00033666170202195644,0.00027714017778635025,0.0009622769430279732
1717857659706930200,9.69393017578125,-0.00171570829115808,0.0004627685993909836,-0.00009359139949083328
1717857659716971300,9.70397119140625,-0.0010467222891747952,-0.00044377148151397705,-0.00010317889973521233
1717857659727012000,9.71401220703125,0.0005159019492566586,-0.001138106919825077,0.0002663061022758484
1717857659737053200,9.72405322265625,-0.00042738975025713444,-0.0005066711455583572,0.0011342302896082401
1717857659747094300,9.73409423828125,-0.0011355953756719828,-0.0004536164924502373,-9.140931069850922e-7
1717857659757135000,9.744135009765625,0.0003299419768154621,0.0008643819019198418,0.0012009702622890472
1717857659767176200,9.75417626953125,0.00014761043712496758,-0.00004719384014606476,-0.0008826754055917263
1717857659777217000,9.764217041015625,-0.00020738900639116764,-0.000585152767598629,-0.0011585787869989872
1717857659787258000,9.774258056640624,0.000372597249224782,-0.0004965933039784431,0.0010000644251704216
1717857659797299200,9.78429931640625,0.00006873044185340405,0.00020781252533197403,-0.000023388303816318512
1717857659807340000,9.794340087890625,-0.000026428140699863434,0.00012846104800701141,0.00036517344415187836
1717857659817381000,9.804381103515626,-0.00022483384236693382,0.0006605610251426697,0.0006040586158633232
1717857659827422200,9.814422119140625,0.0007218390237540007,-0.0010273437947034836,-0.00015046540647745132
1717857659837463000,9.824463134765624,-0.0009817851241678,0.0007902635261416435,0.00036565493792295456
1717857659847504100,9.834504150390625,0.0005887763109058142,0.0007857810705900192,0.0004616733640432358
1717857659857545200,9.844545166015624,-0.0014227093197405338,0.0007024239748716354,0.0013410490937530994
1717857659867586000,9.8545859375,0.0010784524492919445,0.00011702906340360641,0.00046538515016436577
1717857659877627100,9.864627197265625,-0.0013466221280395985,0.0002400670200586319,-0.00032397592440247536
1717857659887667200,9.874667236328126,0.00036818021908402443,-0.00040103495121002197,0.0003111460246145725
1717857659897708300,9.884708251953125,-0.00009680772200226784,0.00046662334352731705,0.0007122177630662918
1717857659907749000,9.8947490234375,0.0012280154041945934,-0.0003916323184967041,0.0005850200541317463
1717857659917790200,9.904790283203125,-0.0006583016365766525,0.00004166457802057266,0.0014606672339141369
1717857659927831300,9.914831298828124,-0.0007081658113747835,-0.0008321395143866539,0.0000557643361389637
1717857659937872100,9.9248720703125,0.0009499180596321821,-0.0010228222236037254,0.0009559127502143383
1717857659947913200,9.934913330078125,0.0012062473688274622,-0.0005303258076310158,0.00013022636994719505
1717857659957954000,9.9449541015625,0.00039957580156624317,-0.000416342169046402,0.0008530085906386375
1717857659967995100,9.9549951171875,-0.0007334058173000813,-0.00031920429319143295,0.0012868791818618774
1717857659978036200,9.9650361328125,-0.0012729621957987547,0.000034996308386325836,0.0006317412480711937
1717857659988077000,9.9750771484375,-0.0010330211371183395,-0.0013383650220930576,-0.00023630261421203613
1717857659998118100,9.9851181640625,-0.0004931984003633261,0.0003889612853527069,0.0004220306873321533
1717857660008159200,9.9951591796875,0.00020100572146475315,0.00005009397864341736,0.00035086739808321
1717857660018200000,10.005199951171875,-0.0008629271760582924,-0.001684156246483326,-0.0006811073981225491
1717857660028241200,10.0152412109375,-0.00100103416480124,0.0007261624559760094,0.0007663192227482796
1717857660038282500,10.025282470703125,-0.0014303356874734163,0.0007176408544182777,0.0010030739940702915
1717857660048323300,10.0353232421875,0.0021974630653858185,-0.0009046904742717743,-0.0006983699277043343
1717857660058364400,10.045364501953125,0.0006019631400704384,0.00006922706961631775,0.001601269468665123
1717857660068405500,10.055405517578125,-0.0007608518935739994,-0.0013333940878510475,-0.00041840504854917526
1717857660078446300,10.0654462890625,0.0020756812300533056,-0.0005653379485011101,-0.00033691199496388435
1717857660088487400,10.0754873046875,-0.0002825905103236437,0.00041721202433109283,-0.000023723579943180084
1717857660098528500,10.085528564453124,0.0007531128358095884,-0.00031755492091178894,0.001287616789340973
1717857660108569300,10.0955693359375,0.0016502230428159237,0.00015772320330142975,0.0007387888617813587
1717857660118610400,10.1056103515625,0.0001290254294872284,0.00044987257570028305,0.00037659890949726105
1717857660128651300,10.1156513671875,0.0007265612948685884,-0.0019403528422117233,0.00006379373371601105
1717857660138692400,10.1256923828125,-0.00023031234741210938,-0.0008487226441502571,-0.00014393310993909836
1717857660148733400,10.1357333984375,-0.0001117154024541378,-0.0005463995039463043,-0.001398427877575159
1717857660158774300,10.145774169921875,-0.0008230456151068211,-0.0006111143156886101,0.00044900691136717796
1717857660168814300,10.155814453125,0.0000519859604537487,-0.0004994980990886688,-0.0010369555093348026
1717857660178855400,10.16585546875,0.001034426037222147,-0.00006407126784324646,0.00019582174718379974
1717857660188896500,10.175896484375,0.00018168427050113678,0.0004479978233575821,-0.00010090693831443787
1717857660198937300,10.185937255859375,0.0016496186144649982,-0.0001070043072104454,-0.0007339403964579105
1717857660208978400,10.195978515625,0.0006718009244650602,0.00016487017273902893,0.0008513797074556351
1717857660219019500,10.20601953125,-0.00024006515741348267,-0.0006359424442052841,-0.00014437641948461533
1717857660229060400,10.216060302734375,0.000822422094643116,-0.0012702960520982742,0.0003809044137597084
1717857660239101400,10.226101318359374,0.0007236190140247345,0.0004580961540341377,0.00028076954185962677
1717857660249142500,10.236142578125,-0.0002718160394579172,-0.00035067368298768997,0.0005016853101551533
1717857660259183400,10.246183349609375,0.0007361902389675379,-0.001460945699363947,0.000042290426790714264
1717857660269224400,10.256224365234376,0.00010504759848117828,-0.0007787114009261131,0.0011153747327625751
1717857660279265300,10.266265380859375,-0.0000699218362569809,-0.00036325864493846893,-0.00012619094923138618
1717857660289306400,10.276306396484374,0.00022649741731584072,0.0006521278992295265,0.00015302561223506927
1717857660299347500,10.286347412109375,-0.0004821696784347296,0.0003495924174785614,-0.0006528468802571297
1717857660309388300,10.29638818359375,-0.0003892090171575546,0.000531194731593132,0.00013336678966879845
1717857660319429400,10.306429443359375,0.0014947110321372747,0.0003783293068408966,0.0005775820463895798
1717857660329470500,10.316470458984375,-0.00034299190156161785,-0.0009398125112056732,0.001796959899365902
1717857660339511300,10.32651123046875,-0.0013589877635240555,-0.0005896072834730148,0.00019027478992938995
1717857660349552400,10.336552490234375,-0.0011878043878823519,0.00032546836882829666,0.0005541215650737286
1717857660359593500,10.346593505859374,0.0002529658377170563,0.0003451751545071602,0.0004081800580024719
1717857660369634300,10.35663427734375,0.0006969692185521126,-0.0013358313590288162,0.00029201852157711983
1717857660379675400,10.36667529296875,-0.001377633074298501,-0.00012542493641376495,-0.0012323749251663685
1717857660389716500,10.376716552734376,0.00045730872079730034,-0.00038078799843788147,0.0005337987095117569
1717857660399757300,10.38675732421875,-0.0005397789645940065,0.0011217668652534485,-0.000305363442748785
1717857660409798400,10.39679833984375,0.0009629011619836092,0.0005544638261198997,0.0018709683790802956
1717857660419839500,10.406839599609375,0.0004057681653648615,0.0009294375777244568,0.0026616607792675495
1717857660429880300,10.41688037109375,-0.0015551692340523005,-0.0009717168286442757,0.0016012736596167088
1717857660439920400,10.42692041015625,-0.00027285702526569366,0.000507669523358345,0.00003293808549642563
1717857660449961500,10.43696142578125,-0.0004683921579271555,-0.00019048992544412613,-0.00021164165809750557
1717857660460002300,10.447002197265626,0.00017795688472688198,-0.0006730547174811363,0.0011447062715888023
1717857660470043400,10.45704345703125,0.0007670093327760696,-0.0000827079638838768,0.0008774707093834877
1717857660480084500,10.46708447265625,0.00022931722924113274,0.00021689757704734802,0.000006350688636302948
1717857660490125300,10.477125244140625,-0.0011030931491404772,-0.001206214539706707,-0.0005896580405533314
1717857660500166400,10.48716650390625,-0.0018991121323779225,-0.0007537435740232468,-0.0018216362223029137
1717857660510207500,10.49720751953125,0.0021137825679033995,0.0006394237279891968,-0.0005511101335287094
1717857660520248300,10.507248291015625,0.0005763398949056864,-0.0007286425679922104,0.001233740709722042
1717857660530289400,10.517289306640626,0.0005182616878300905,0.00046520866453647614,-0.0003857123665511608
1717857660540330500,10.52733056640625,0.0011243971530348063,-0.00011189840734004974,-0.00025148922577500343
1717857660550371300,10.537371337890624,0.0007967492565512657,-0.00007280893623828888,-0.0001843385398387909
1717857660560412400,10.547412353515625,0.0010665273293852806,0.0006630225107073784,-0.0010943408124148846
1717857660570453500,10.55745361328125,0.0010981620289385319,0.00048553571105003357,0.0010412582196295261
1717857660580494300,10.567494384765626,0.00105688301846385,-0.00141516188159585,-0.0011792853474617004
1717857660590535400,10.577535400390625,0.0009063116740435362,-0.0012472011148929596,-0.00017390772700309753
1717857660600576500,10.587576416015626,-0.00011634198017418385,-0.00036489591002464294,0.0002122507430613041
1717857660610617300,10.597617431640625,0.0017567337490618229,0.00054926797747612,0.000911845825612545
1717857660620658400,10.607658447265624,0.0014102566055953503,-0.0008014878258109093,0.0005115726962685585
1717857660630699500,10.617699462890625,-0.0006938567385077477,-0.0017945459112524986,0.00041331956163048744
1717857660640740400,10.627740234375,-0.0009242203086614609,-0.0009031854569911957,0.00041758082807064056
1717857660650781400,10.637781494140626,-0.0005279574543237686,-0.0006644129753112793,0.001178273931145668
1717857660660822300,10.647822265625,-0.0014952176716178656,0.0008804863318800926,0.0013364660553634167
1717857660670863400,10.65786328125,-0.0003533388953655958,0.0005857879295945168,0.0015870416536927223
1717857660680904400,10.667904541015625,0.002015010453760624,0.0006704768165946007,0.00009993277490139008
1717857660690945300,10.6779453125,-0.00012747850269079208,0.0007171686738729477,-0.0005992231890559196
1717857660700986400,10.687986328125,-0.00033413968048989773,-0.00003357604146003723,-0.0007249242626130581
1717857660711026400,10.6980263671875,0.0006105033680796623,0.00009170640259981155,0.0003460608422756195
1717857660721067500,10.708067626953126,0.00094233313575387,-0.00022387877106666565,0.0005665705539286137
1717857660731108400,10.7181083984375,0.00034590205177664757,-0.00018812529742717743,0.0013905134983360767
1717857660741149400,10.7281494140625,0.0004540262743830681,0.00034131109714508057,0.0003324393182992935
1717857660751190500,10.7381904296875,-0.000669894041493535,-0.0002652425318956375,0.0005683214403688908
1717857660761231400,10.7482314453125,0.0004097514320164919,-0.00018934253603219986,-0.000007453840225934982
1717857660771272400,10.7582724609375,0.001566689694300294,0.000253274105489254,0.0000944831408560276
1717857660781313500,10.7683134765625,0.000003946712240576744,-0.0005121184512972832,0.00036798976361751556
1717857660791354400,10.778354248046876,0.00041822344064712524,-0.0011937683448195457,0.0007221940904855728
1717857660801395500,10.7883955078125,-0.000022795982658863068,-0.0009149350225925446,0.0006849099881947041
1717857660811436300,10.798436279296874,0.001052328385412693,0.0007015857845544815,0.00004270998761057854
1717857660821477400,10.808477294921875,0.000233406201004982,-0.00018098577857017517,0.0005804020911455154
1717857660831518500,10.8185185546875,-0.000609501963481307,-0.0001059332862496376,-0.0004185386933386326
1717857660841559300,10.828559326171876,-0.0006611673161387444,0.0005766348913311958,0.00005843350663781166
1717857660851600400,10.838600341796875,0.00010679475963115692,0.0009086346253752708,-0.0008769095875322819
1717857660861641500,10.848641357421876,0.0005701850168406963,0.00032753217965364456,-0.0001786286011338234
1717857660871682300,10.858682373046875,-0.00046182190999388695,0.000853552483022213,-0.00030796462669968605
1717857660881723400,10.868723388671874,-0.00016674376092851162,-0.0006013326346874237,-0.0006717522628605366
1717857660891764500,10.878764404296875,-0.0002340269275009632,-0.00027271732687950134,0.0005133049562573433
1717857660901805300,10.888805419921875,0.00046212319284677505,0.000024225562810897827,-0.00012958236038684845
1717857660911846400,10.898846435546876,0.00042981444858014584,-0.0013459408655762672,0.0004166499711573124
1717857660921887500,10.908887451171875,0.0002276806626468897,-0.00014325696974992752,0.000495479442179203
1717857660931928300,10.91892822265625,0.00021679908968508244,-0.0009088031947612762,0.000010755844414234161
1717857660941969400,10.928969482421875,-0.00005111470818519592,-0.0005133245140314102,-0.0006273374892771244
1717857660952010500,10.939010498046875,0.0011860134545713663,-0.00016966182738542557,0.0010701720602810383
1717857660962051300,10.94905126953125,-0.00024516903795301914,0.0007699010893702507,0.0008904086425900459
1717857660972092400,10.959092529296875,-0.0005691556725651026,0.0004393933340907097,0.0006555551663041115
1717857660982133500,10.969133544921876,-0.00008925399743020535,0.000725151039659977,-0.00006163446232676506
1717857660992174300,10.97917431640625,-0.0004505051765590906,0.0002694046124815941,-0.0015667909756302834
1717857661002214400,10.98921435546875,-0.0004899201449006796,0.000056617893278598785,0.00006519444286823273
1717857661012255500,10.99925537109375,0.00045007234439253807,-0.0017800889909267426,-0.00013817613944411278
1717857661022296300,11.00929638671875,-0.0006831025239080191,0.0003874581307172775,0.00019818125292658806
1717857661032337400,11.01933740234375,-0.0002260573673993349,0.000016230158507823944,0.00034361379221081734
1717857661042378500,11.02937841796875,0.0005840763915330172,-0.00003490317612886429,-0.00017543602734804153
1717857661052419300,11.03941943359375,-0.0008358417544513941,-0.00048818252980709076,0.00036374153569340706
1717857661062460400,11.04946044921875,0.00036364607512950897,0.0009749578312039375,0.001156830694526434
1717857661072501500,11.05950146484375,-0.00116070662625134,0.00041635241359472275,0.0011460455134510994
1717857661082542300,11.069542236328125,0.00111816031858325,-0.0009120320901274681,-0.0007977960631251335
1717857661092583400,11.07958349609375,0.0006662101950496435,-0.0007898090407252312,-0.00008738785982131958
1717857661102624500,11.08962451171875,0.0017511819023638964,0.0008048918098211288,0.00035576196387410164
1717857661112665300,11.099665283203125,0.0008066506125032902,0.00004685204476118088,0.0005621905438601971
1717857661122706400,11.10970654296875,0.000868968665599823,0.0005336785688996315,-0.00032996805384755135
1717857661132747500,11.11974755859375,0.0014238262083381414,0.0005884068086743355,-0.0005437079817056656
1717857661142788400,11.129788330078124,-0.0009011132642626762,0.00015750713646411896,-0.00012825476005673409
1717857661152829400,11.139829345703125,-0.00022646505385637283,-0.0005537811666727066,0.0005588778294622898
1717857661162870500,11.14987060546875,-0.0010850680992007256,-0.0002994490787386894,0.0009229318238794804
1717857661172911400,11.159911376953126,0.0001347560901194811,-0.00003691110759973526,0.001044020988047123
1717857661182952400,11.169952392578125,-0.0013406348880380392,0.0004227505996823311,-0.00026465626433491707
1717857661192993300,11.1799931640625,0.00014336989261209965,0.00024872738867998123,-0.00039236387237906456
1717857661203034400,11.190034423828125,0.001641398062929511,0.001931578852236271,-0.0003446931950747967
1717857661213075500,11.200075439453125,0.0010738743003457785,0.0019600829109549522,0.0006937189027667046
1717857661223116300,11.2101162109375,-0.00003533228300511837,0.00035739317536354065,-0.001344398595392704
1717857661233157400,11.220157470703125,-0.00037003401666879654,-0.000204453244805336,0.0023002082016319036
1717857661243198500,11.230198486328124,-0.0005319542251527309,0.0010126112028956413,-0.0004132864996790886
1717857661253238500,11.240238525390625,0.0010096393525600433,0.0005157133564352989,-0.0007342291064560413
1717857661263279400,11.250279296875,0.0008447896689176559,0.0000049192458391189575,0.00026232562959194183
1717857661273320400,11.260320556640625,-0.000032215844839811325,0.0004035942256450653,0.0006078667938709259
1717857661283361500,11.270361572265625,0.00026898761279881,-0.0006073415279388428,0.0005170530639588833
1717857661293402400,11.28040234375,0.0018295415211468935,0.0011523012071847916,-0.00040887854993343353
1717857661303443500,11.290443359375,0.0006026232149451971,-0.000027745962142944336,0.0010558604262769222
1717857661313484500,11.300484619140626,0.0005467317532747984,0.0007979124784469604,0.00015420373529195786
1717857661323525400,11.310525390625,-0.0009193385485559702,0.00035689305514097214,0.0012072175741195679
1717857661333566500,11.32056640625,0.00035214703530073166,0.0006159292533993721,-0.0009423582814633846
1717857661343607600,11.330607666015625,-0.0002641084138303995,0.0005528125911951065,-0.0014156019315123558
1717857661353648400,11.3406484375,0.0005652816034853458,-0.000868573784828186,0.0000485563650727272
1717857661363689500,11.350689453125,0.0008315974846482277,0.0009077545255422592,-0.0003791474737226963
1717857661373730300,11.360730224609375,-0.0014658556319773197,0.0001089777797460556,-0.0003688512369990349
1717857661383771400,11.370771484375,0.0007957008201628923,0.0005087181925773621,-0.0014849817380309105
1717857661393812500,11.3808125,0.0006190927233546972,0.00036612339317798615,0.0024910185020416975
1717857661403853300,11.390853271484374,-0.0008658857550472021,-0.00149196432903409,0.00005742209032177925
1717857661413894400,11.400894287109375,-0.00007614749483764172,-0.0012227045372128487,-0.0000956621952354908
1717857661423935500,11.410935546875,0.0007747325580567122,-0.000985417515039444,-0.0009534661658108234
1717857661433976300,11.420976318359376,0.0008212663233280182,-0.0010558078065514565,-0.0012375684455037117
1717857661444017400,11.431017333984375,0.0013232720084488392,-0.0007450161501765251,-0.00040719471871852875
1717857661454058500,11.44105859375,-0.00150834652595222,-0.00035818107426166534,0.0012544025667011738
1717857661464099300,11.451099365234375,-0.00017809751443564892,0.0016391891986131668,0.00031404057517647743
1717857661474140400,11.461140380859375,0.0005116404499858618,-0.0012102900072932243,-0.000475199893116951
1717857661484181500,11.471181396484376,0.0011465384159237146,-0.0015586316585540771,-0.0006730728782713413
1717857661494222300,11.481222412109375,0.00018561538308858871,-0.0007128380239009857,0.000968659296631813
1717857661504263400,11.491263427734374,0.00007376284338533878,-0.00006169546395540237,-0.0009040758013725281
1717857661514304500,11.501304443359375,-0.00048246607184410095,0.0008439701050519943,0.0011907201260328293
1717857661524345300,11.511345458984374,0.0010472533758729696,-0.0002162344753742218,0.00023304717615246773
1717857661534386400,11.521386474609375,0.0011785258539021015,0.00008811801671981812,-0.00084323575720191
1717857661544426500,11.531426513671875,0.0006951619870960712,0.00011741276830434799,-0.0008400403894484043
