time,seconds_elapsed,z,y,x
1717857650105258000,0.092258056640625,0.0046578687615692616,0.00881932396441698,-0.005408613942563534
1717857650115299000,0.102299072265625,0.00341603672131896,0.008773517794907093,-0.006147907115519047
1717857650125340000,0.11233984375,0.004269047174602747,0.008748217485845089,-0.005842708982527256
1717857650135379700,0.122379638671875,0.002552107209339738,0.008607069961726665,-0.004062385763972998
1717857650145420800,0.1324208984375,0.003897536313161254,0.009329586289823055,-0.005861084908246994
1717857650155462000,0.1424619140625,0.0023877902422100306,0.008387626148760319,-0.006269347388297319
1717857650165502700,0.152502685546875,0.00418409239500761,0.0088803106918931,-0.00501206936314702
1717857650175543800,0.162543701171875,0.004221642855554819,0.009022523649036884,-0.005262672435492277
1717857650185585000,0.1725849609375,0.0057404437102377415,0.009732255712151527,-0.005056277383118868
1717857650195625700,0.182625732421875,0.0023342606145888567,0.007653126027435064,-0.00487225316464901
1717857650205666800,0.192666748046875,0.003754790872335434,0.008904811926186085,-0.006073072552680969
1717857650215708000,0.2027080078125,0.004522846546024084,0.01016954705119133,-0.004740959499031305
1717857650225748700,0.212748779296875,0.0033329459838569164,0.008896023035049438,-0.005517004523426294
1717857650235789800,0.222789794921875,0.004882107023149729,0.009891246445477009,-0.0041638524271547794
1717857650245830700,0.23283056640625,0.0038687740452587605,0.011020959354937077,-0.006216084118932486
1717857650255871700,0.242871826171875,0.0035665053874254227,0.008125037886202335,-0.00532419141381979
1717857650265912800,0.252912841796875,0.003353186184540391,0.009178318083286285,-0.005225654691457748
1717857650275953700,0.26295361328125,0.003686081152409315,0.009129582904279232,-0.0070405988954007626
1717857650285994800,0.272994873046875,0.0037731665652245283,0.009076585993170738,-0.005533782299607992
1717857650296035800,0.283035888671875,0.004314321093261242,0.009840380400419235,-0.0060355220921337605
1717857650306076700,0.29307666015625,0.00447011599317193,0.00869122613221407,-0.006608900614082813
1717857650316117800,0.30311767578125,0.004568652715533972,0.009817477315664291,-0.004282895475625992
1717857650326159000,0.3131591796875,0.0037792918737977743,0.008406267501413822,-0.006643787957727909
1717857650336200000,0.323199951171875,0.004191016778349876,0.010094712488353252,-0.006859237793833017
1717857650346241000,0.333240966796875,0.0038101845420897007,0.009271262213587761,-0.006680805701762438
1717857650356282000,0.3432822265625,0.0041132522746920586,0.008929579518735409,-0.006667223758995533
1717857650366323000,0.353322998046875,0.0041731735691428185,0.009456352330744267,-0.005660282447934151
1717857650376364000,0.363364013671875,0.005134041886776686,0.009329319931566715,-0.005538842175155878
1717857650386404900,0.37340478515625,0.004598746541887522,0.008478705771267414,-0.00589677132666111
1717857650396446000,0.383446044921875,0.0038517299108207226,0.009311476722359657,-0.005101284943521023
1717857650406485800,0.39348583984375,0.004479969386011362,0.008786833845078945,-0.005937517620623112
1717857650416526800,0.40352685546875,0.003919107839465141,0.009103749878704548,-0.005530053749680519
1717857650426567700,0.413567626953125,0.0046754456125199795,0.008835303597152233,-0.005279982928186655
1717857650436608800,0.42360888671875,0.00475454144179821,0.009850233793258667,-0.006043777801096439
1717857650446649900,0.43364990234375,0.0026027073618024588,0.008865396492183208,-0.00672181835398078
1717857650456690700,0.443690673828125,0.003632285399362445,0.009063802659511566,-0.005835785064846277
1717857650466731800,0.453731689453125,0.004057325888425112,0.00771863991394639,-0.006156163290143013
1717857650476772900,0.46377294921875,0.005114600993692875,0.009424393996596336,-0.004560397006571293
1717857650486813700,0.473813720703125,0.0031649006996303797,0.009455286897718906,-0.006163353566080332
1717857650496854800,0.483854736328125,0.003973170183598995,0.009809487499296665,-0.005928462836891413
1717857650506896000,0.493895751953125,0.004125769250094891,0.008931709453463554,-0.005819539539515972
1717857650516936700,0.503936767578125,0.004089017398655415,0.008171110413968563,-0.008184160105884075
1717857650526977800,0.513977783203125,0.002498843939974904,0.009185508824884892,-0.004532699938863516
1717857650537019000,0.524018798828125,0.003479952458292246,0.007632086984813213,-0.006326605565845966
1717857650547059700,0.534059814453125,0.0035214978270232677,0.008872054517269135,-0.0059508332051336765
1717857650557100800,0.544100830078125,0.003614442190155387,0.009589776396751404,-0.00624191714450717
1717857650567142000,0.554141845703125,0.003198190126568079,0.009587113745510578,-0.0036035231314599514
1717857650577182700,0.5641826171875,0.003763312939554453,0.009218531660735607,-0.004464523401111364
1717857650587223800,0.574223876953125,0.004882107023149729,0.008376440964639187,-0.005571599118411541
1717857650597264600,0.5842646484375,0.004340420011430979,0.008791361004114151,-0.0057159424759447575
1717857650607305700,0.5943056640625,0.003375822911038995,0.007698665838688612,-0.0057441722601652145
1717857650617346800,0.604346923828125,0.003433347214013338,0.008115717209875584,-0.006179865449666977
1717857650627388000,0.614387939453125,0.004230431281030178,0.00896686315536499,-0.005828594323247671
1717857650637429000,0.624428955078125,0.0038011297583580017,0.008559665642678738,-0.005007009021937847
1717857650647470000,0.634469970703125,0.0016325177857652307,0.008526909165084362,-0.0054578823037445545
1717857650657511000,0.644510986328125,0.00449861166998744,0.008496016263961792,-0.005770537536591291
1717857650667552000,0.654552001953125,0.00449861166998744,0.008223309181630611,-0.0057316552847623825
1717857650677593000,0.664593017578125,0.003766242414712906,0.009199091233313084,-0.004737497307360172
1717857650687634000,0.674634033203125,0.005564941558986902,0.010244647972285748,-0.006621417589485645
1717857650697675000,0.684675048828125,0.0023422501981258392,0.00863077212125063,-0.004805407952517271
1717857650707714800,0.69471484375,0.003832022426649928,0.010128268040716648,-0.005079979542642832
1717857650717756000,0.704755859375,0.0032836776226758957,0.009436644613742828,-0.005709018558263779
1717857650727796700,0.714796630859375,0.0026290726382285357,0.009367935359477997,-0.005637113004922867
1717857650737837800,0.724837890625,0.0033987262286245823,0.008882706984877586,-0.0047849016264081
1717857650747879000,0.73487890625,0.004026433452963829,0.007940481416881084,-0.005512743256986141
1717857650757919700,0.744919677734375,0.003975833300501108,0.008828379213809967,-0.006819822825491428
1717857650767960800,0.7549609375,0.0035028557758778334,0.008616657927632332,-0.005585980135947466
1717857650778001700,0.765001708984375,0.004321511369198561,0.007860852405428886,-0.007315969560295343
1717857650788042800,0.775042724609375,0.0030517163686454296,0.009670204482972622,-0.0067753479816019535
1717857650798083800,0.785083740234375,0.0022024342324584723,0.00911600049585104,-0.005951898638159037
1717857650808124700,0.795124755859375,0.004381699021905661,0.009799101389944553,-0.005726595409214497
1717857650818165800,0.805165771484375,0.00433136522769928,0.009469402022659779,-0.004990497604012489
1717857650828206800,0.815206787109375,0.0028037759475409985,0.009138637222349644,-0.005824333056807518
1717857650838247700,0.82524755859375,0.003209375310689211,0.008477906696498394,-0.005980394314974546
1717857650848288800,0.835288818359375,0.0021614215802401304,0.009155148640275002,-0.00592606607824564
1717857650858329900,0.845329833984375,0.0032442628871649504,0.0091130705550313,-0.007292001508176327
1717857650868370700,0.85537060546875,0.0051774512976408005,0.008258196525275707,-0.004414722323417664
1717857650878411800,0.865411865234375,0.003712712787091732,0.009854760952293873,-0.005131112411618233
1717857650888452900,0.875452880859375,0.003575559938326478,0.008898952975869179,-0.0046607982367277145
1717857650898493700,0.88549365234375,0.003477022983133793,0.009094960987567902,-0.006558566819876432
1717857650908534800,0.89553466796875,0.0030336068011820316,0.010427074506878853,-0.005577191710472107
1717857650918575900,0.905575927734375,0.004132693167775869,0.009681389667093754,-0.006743656471371651
1717857650928617000,0.915616943359375,0.004070641472935677,0.00823982059955597,-0.006737264804542065
1717857650938658000,0.925657958984375,0.0036938043776899576,0.009520534425973892,-0.006030994467437267
1717857650948699000,0.935698974609375,0.00424321461468935,0.009150621481239796,-0.005917277652770281
1717857650958740000,0.945739990234375,0.004279699642211199,0.00902412086725235,-0.005591573193669319
1717857650968781000,0.955781005859375,0.0037111148703843355,0.009527991525828838,-0.0057044909335672855
1717857650978822000,0.96582177734375,0.0029699571896344423,0.009584982879459858,-0.003239469137042761
1717857650988863000,0.975863037109375,0.004540423396974802,0.0075937374494969845,-0.0054357778280973434
1717857650998902800,0.98590283203125,0.004067179746925831,0.009016131982207298,-0.004455468617379665
1717857651008943900,0.99594384765625,0.0027798074297606945,0.008169779554009438,-0.0070432620123028755
1717857651018984700,1.005984619140625,0.005037901923060417,0.009265136905014515,-0.004741491749882698
1717857651029026300,1.0160263671875,0.002032258315011859,0.009545035660266876,-0.004613393917679787
1717857651039067400,1.0260673828125,0.0028655612841248512,0.009006810374557972,-0.00535614974796772
1717857651049108200,1.036108154296875,0.0043622576631605625,0.008276306092739105,-0.007363906595855951
1717857651059149300,1.0461494140625,0.0052142031490802765,0.009043295867741108,-0.006464290898293257
1717857651069190100,1.056190185546875,0.004998486954718828,0.008788165636360645,-0.006584399379789829
1717857651079231200,1.066231201171875,0.004668787587434053,0.00871972180902958,-0.007367635145783424
1717857651089272300,1.076272216796875,0.00387410051189363,0.00830879621207714,-0.006153766065835953
1717857651099313200,1.086313232421875,0.004369448404759169,0.008462460711598396,-0.00660517206415534
1717857651109354200,1.096354248046875,0.003689276985824108,0.008666458539664745,-0.006713829003274441
1717857651119395300,1.106395263671875,0.0041364217177033424,0.00959856528788805,-0.0076331524178385735
1717857651129436200,1.116436279296875,0.004057592246681452,0.008591890335083008,-0.006167881190776825
1717857651139477200,1.126477294921875,0.0032711606472730637,0.009638512507081032,-0.006732471287250519
1717857651149518300,1.136518310546875,0.005030178464949131,0.010208428837358952,-0.007025685161352158
1717857651159559200,1.14655908203125,0.004077299498021603,0.007851531729102135,-0.005329784471541643
1717857651169600300,1.156600341796875,0.002682868391275406,0.008226770907640457,-0.005179315805435181
1717857651179641300,1.166641357421875,0.0036549223586916924,0.009445966221392155,-0.007004379760473967
1717857651189682200,1.17668212890625,0.0038488004356622696,0.010005762800574303,-0.006619819439947605
1717857651199723300,1.18672314453125,0.004393949639052153,0.009065932594239712,-0.00592633243650198
1717857651209764400,1.196764404296875,0.003964914008975029,0.009758887812495232,-0.005961219780147076
1717857651219805200,1.20680517578125,0.0031883365008980036,0.008748483844101429,-0.004464257042855024
1717857651229846300,1.21684619140625,0.004217382054775953,0.008490157313644886,-0.005678392015397549
1717857651239887400,1.226887451171875,0.0031915323343127966,0.007472297176718712,-0.0049308426678180695
1717857651249928200,1.23692822265625,0.005096225067973137,0.009157545864582062,-0.006028864067047834
1717857651259969300,1.24696923828125,0.0029830066487193108,0.009557552635669708,-0.005653890781104565
1717857651270010000,1.257010009765625,0.0037145770620554686,0.008651012554764748,-0.006491987966001034
1717857651280051200,1.26705126953125,0.003965713083744049,0.00920601561665535,-0.005461610853672028
1717857651290092300,1.27709228515625,0.005684250965714455,0.0074030552059412,-0.007678159512579441
1717857651300132400,1.28713232421875,0.004472512751817703,0.008451808243989944,-0.006003297865390778
1717857651310173200,1.297173095703125,0.0038344194181263447,0.009371397085487843,-0.004810734186321497
1717857651320214300,1.30721435546875,0.0034120420459657907,0.009630256332457066,-0.004960936494171619
1717857651330255400,1.31725537109375,0.002808836055919528,0.01076662726700306,-0.0008250473183579743
1717857651340296200,1.327296142578125,0.00447064870968461,0.008703743107616901,-0.003742806613445282
1717857651350337300,1.337337158203125,0.004519117996096611,0.007817975245416164,-0.007816644385457039
1717857651360378400,1.34737841796875,0.004024568945169449,0.007693073246628046,-0.008447280153632164
1717857651370419200,1.357419189453125,0.0035206989850848913,0.007923702709376812,-0.008267517201602459
1717857651380460300,1.367460205078125,0.0027451864443719387,0.009858489967882633,-0.006199572701007128
1717857651390501400,1.37750146484375,0.0026317357551306486,0.009718406945466995,-0.004809402395039797
1717857651400542200,1.387542236328125,0.003742806613445282,0.009818808175623417,-0.0059630838222801685
1717857651410583300,1.397583251953125,0.005850166082382202,0.00885021686553955,-0.006726345978677273
1717857651420624400,1.407624267578125,0.004640291910618544,0.008351939730346203,-0.006271477788686752
1717857651430665200,1.417665283203125,0.005134840961545706,0.008074171841144562,-0.004169711377471685
1717857651440706300,1.427706298828125,0.003326554549857974,0.008102933876216412,-0.005498362239450216
1717857651450747100,1.4377470703125,0.0036828855518251657,0.008897887542843819,-0.00503976596519351
1717857651460788200,1.447788330078125,0.0033742249943315983,0.008085357025265694,-0.006012352649122477
1717857651470829300,1.457829345703125,0.004351871553808451,0.009064335376024246,-0.005921006202697754
1717857651480870100,1.4678701171875,0.0023667511995881796,0.009811085648834705,-0.006325806491076946
1717857651490911200,1.4779111328125,0.003907123580574989,0.009428123012185097,-0.005225388333201408
1717857651500952300,1.487952392578125,0.004845355171710253,0.008901615627110004,-0.007172691635787487
1717857651510993200,1.4979931640625,0.004004328977316618,0.009787117131054401,-0.006295179948210716
1717857651521034200,1.5080341796875,0.0034354778472334146,0.008435562252998352,-0.007553257513791323
1717857651531075300,1.518075439453125,0.002953445538878441,0.009069395251572132,-0.0060919807292521
1717857651541116200,1.5281162109375,0.002692722249776125,0.00842597521841526,-0.007891478948295116
1717857651551157200,1.5381572265625,0.004257329273968935,0.008867793716490269,-0.007153517100960016
1717857651561198300,1.5481982421875,0.0036392095498740673,0.008987369947135448,-0.005632585845887661
1717857651571238400,1.55823828125,0.003978762775659561,0.008760734461247921,-0.006776679772883654
1717857651581279200,1.568279296875,0.0027297399938106537,0.008607869036495686,-0.0060270000249147415
1717857651591320300,1.5783203125,0.004632302559912205,0.009044094942510128,-0.0070709590800106525
1717857651601361200,1.588361083984375,0.004569451790302992,0.008027566596865654,-0.005289570428431034
1717857651611402200,1.59840234375,0.003968642558902502,0.00980362854897976,-0.006856041960418224
1717857651621443300,1.608443359375,0.00324799120426178,0.00923531036823988,-0.0049375006929039955
1717857651631484200,1.618484130859375,0.005160939879715443,0.010005230084061623,-0.0046152579598128796
1717857651641525200,1.628525146484375,0.004208859521895647,0.00800306536257267,-0.006365487817674875
1717857651651566300,1.63856640625,0.004077832214534283,0.009108809754252434,-0.004930309951305389
1717857651661607200,1.648607177734375,0.00404667342081666,0.008109591901302338,-0.006176136899739504
1717857651671648300,1.658648193359375,0.002639458980411291,0.008826248347759247,-0.005873601883649826
1717857651681689300,1.668689453125,0.0034964641090482473,0.009062737226486206,-0.006167082116007805
1717857651691730200,1.678730224609375,0.003931358456611633,0.006742058787494898,-0.006518353242427111
1717857651701771300,1.688771240234375,0.004274107050150633,0.008933041244745255,-0.005034173373132944
1717857651711812400,1.698812255859375,0.003944940399378538,0.008764197118580341,-0.006580670829862356
1717857651721853200,1.708853271484375,0.004433364141732454,0.008565790951251984,-0.005200620740652084
1717857651731894300,1.718894287109375,0.003127083647996187,0.00920335203409195,-0.005706089083105326
1717857651741935400,1.728935302734375,0.003921238239854574,0.009230515919625759,-0.005546299275010824
1717857651751976200,1.73897607421875,0.003935352899134159,0.009328254498541355,-0.0055004931055009365
1717857651762017300,1.749017333984375,0.0043926178477704525,0.008982043713331223,-0.00669385539367795
1717857651772058400,1.759058349609375,0.003847202518954873,0.009362609125673771,-0.005845105741173029
1717857651782099200,1.76909912109375,0.004363323096185923,0.008271511644124985,-0.005678924731910229
1717857651792140300,1.779140380859375,0.003891411004588008,0.00851252768188715,-0.006676544900983572
1717857651802181000,1.78918115234375,0.0052016861736774445,0.009029713459312916,-0.006344182416796684
1717857651812222200,1.79922216796875,0.004456001333892345,0.01031655352562666,-0.005306614562869072
1717857651822263300,1.80926318359375,0.0032988577149808407,0.008905877359211445,-0.004984638653695583
1717857651832304000,1.81930419921875,0.001972070662304759,0.009070992469787598,-0.005106344819068909
1717857651842345200,1.82934521484375,0.004236023873090744,0.008529040031135082,-0.005943909287452698
1717857651852386300,1.83938623046875,0.003989681601524353,0.008647018112242222,-0.005556153133511543
1717857651862426400,1.84942626953125,0.005262406077235937,0.008327704854309559,-0.00574843306094408
1717857651872467200,1.85946728515625,0.0036724992096424103,0.009549562819302082,-0.005945773329585791
1717857651882508300,1.86950830078125,0.004671184346079826,0.008861402049660683,-0.006854443810880184
1717857651892549400,1.87954931640625,0.004057858604937792,0.008359662257134914,-0.006160690449178219
1717857651902590200,1.889590087890625,0.002636795863509178,0.009398029185831547,-0.005928995553404093
1717857651912631300,1.89963134765625,0.005319930613040924,0.007878961972892284,-0.006025668233633041
1717857651922672400,1.90967236328125,0.0033718282356858253,0.008921056985855103,-0.005873335525393486
1717857651932713200,1.919713134765625,0.0030959248542785645,0.007695736363530159,-0.006517820525914431
1717857651942754300,1.92975439453125,0.003498861100524664,0.00899748969823122,-0.007219829596579075
1717857651952795400,1.93979541015625,0.005420598201453686,0.01004943810403347,-0.004537493921816349
1717857651962836200,1.949836181640625,0.0030890004709362984,0.008992696180939674,-0.005479720421135426
1717857651972877300,1.959877197265625,0.0037015276029706,0.009840646758675575,-0.0043713124468922615
1717857651982918100,1.969918212890625,0.00430020596832037,0.00842517614364624,-0.0054845139384269714
1717857651992959200,1.979959228515625,0.0036751623265445232,0.009621202014386654,-0.004716458264738321
1717857652003000300,1.990000244140625,0.0027254789602011442,0.008418518118560314,-0.006076801102608442
1717857652013041200,2.000041259765625,0.004619785584509373,0.00851252768188715,-0.006477074231952429
1717857652023082200,2.010082275390625,0.004080761689692736,0.009149822406470776,-0.005567071959376335
1717857652033123000,2.020123046875,0.0020903151016682386,0.00908537395298481,-0.004591023549437523
1717857652043164000,2.030163818359375,0.0043505397625267506,0.009660616517066956,-0.005776662845164537
1717857652053205000,2.040205078125,0.0038903458043932915,0.008921056985855103,-0.005932724103331566
1717857652063246000,2.05024609375,0.004338023252785206,0.0097450390458107,-0.005307679995894432
1717857652073287000,2.060286865234375,0.003897536313161254,0.00935967918485403,-0.0067969197407364845
1717857652083328000,2.070327880859375,0.005001682788133621,0.009068862535059452,-0.005723932292312384
1717857652093369000,2.080369140625,0.005980127956718206,0.008897088468074799,-0.005608084611594677
1717857652103410000,2.090409912109375,0.0028993834275752306,0.010177802294492722,-0.004481567535549402
1717857652113451000,2.100450927734375,0.004693288821727037,0.008982576429843903,-0.005314870737493038
1717857652123492000,2.1104921875,0.004504204262048006,0.008463526144623756,-0.006277869455516338
1717857652133532200,2.1205322265625,0.003849332919344306,0.009473662823438644,-0.00606455048546195
1717857652143573000,2.130572998046875,0.0030218889005482197,0.009153018705546856,-0.004804875236004591
1717857652153614000,2.140614013671875,0.003177151083946228,0.008350341580808163,-0.005406217183917761
1717857652163655200,2.1506552734375,0.004234426189213991,0.008833971805870533,-0.004230697639286518
1717857652173696000,2.160696044921875,0.0031310785561800003,0.010600446723401546,-0.00561074772849679
1717857652183737000,2.170737060546875,0.0026202842127531767,0.009183377958834171,-0.005876531358808279
1717857652193778000,2.18077783203125,0.0029031119775027037,0.008770588785409927,-0.0054368432611227036
1717857652203819000,2.190819091796875,0.003997937310487032,0.009492305107414722,-0.0054453653283417225
1717857652213860000,2.200860107421875,0.004012851044535637,0.00936021190136671,-0.005651494022458792
1717857652223901000,2.21090087890625,0.003200586885213852,0.008532501757144928,-0.005517004523426294
1717857652233942000,2.22094189453125,0.004236556589603424,0.009045160375535488,-0.005215800832957029
1717857652243983000,2.230983154296875,0.004437092691659927,0.007774033583700657,-0.004604871850460768
1717857652254024000,2.24102392578125,0.0030104373581707478,0.009885920211672783,-0.006016613449901342
1717857652264065000,2.25106494140625,0.0030751521699130535,0.009191634133458138,-0.0049337721429765224
1717857652274106000,2.261106201171875,0.002261290093883872,0.008257397450506687,-0.004234159830957651
1717857652284147000,2.27114697265625,0.0037209687288850546,0.008388957008719444,-0.005604356061667204
1717857652294188000,2.28118798828125,0.0025995115283876657,0.008186024613678455,-0.008235027082264423
1717857652304229000,2.29122900390625,0.0027624969370663166,0.00726297264918685,-0.005528722424060106
1717857652314270000,2.30127001953125,0.003263970138505101,0.009702960960566998,-0.00612393906340003
1717857652324311000,2.31131103515625,0.003403253620490432,0.011412976309657097,-0.004555869847536087
1717857652334352100,2.32135205078125,0.0055063520558178425,0.011443336494266987,-0.0024623586796224117
1717857652344393000,2.33139306640625,0.0030040456913411617,0.01031761895865202,-0.004175570327788591
1717857652354434000,2.34143408203125,0.0037987329997122288,0.008553008548915386,-0.005852562841027975
1717857652364475100,2.35147509765625,0.004444549325853586,0.007722367998212576,-0.009870740585029125
1717857652374516000,2.361515869140625,0.0046386937610805035,0.007163370493799448,-0.00803182739764452
1717857652384557000,2.37155712890625,0.003117762738838792,0.008167382329702377,-0.004923918284475803
1717857652394598000,2.381597900390625,0.0025369273498654366,0.009818275459110737,-0.004479437135159969
1717857652404638000,2.391637939453125,0.002936135046184063,0.009215069934725761,-0.0059929112903773785
1717857652414679000,2.401678955078125,0.004309793468564749,0.010084858164191246,-0.005446430761367083
1717857652424720100,2.41172021484375,0.0036011263728141785,0.008957808837294579,-0.006421147845685482
1717857652434761000,2.421760986328125,0.0035060516092926264,0.008809470571577549,-0.005262406077235937
1717857652444802000,2.431802001953125,0.004533765371888876,0.009865946136415005,-0.004772118292748928
1717857652454843100,2.441843017578125,0.004593420308083296,0.009695237502455711,-0.005663478281348944
1717857652464884000,2.451884033203125,0.004815261345356703,0.008538094349205494,-0.005094626918435097
1717857652474925000,2.461925048828125,0.0046325684525072575,0.009453688748180866,-0.005410744342952967
1717857652484966100,2.471966064453125,0.003014432033523917,0.009319998323917389,-0.0054216631688177586
1717857652495007000,2.482007080078125,0.0031518512405455112,0.009604157879948616,-0.005395031534135342
1717857652505048000,2.492048095703125,0.005393167492002249,0.008702677674591541,-0.006126868538558483
1717857652515089200,2.502089111328125,0.0036570527590811253,0.008953280746936798,-0.006054163910448551
1717857652525130000,2.5121298828125,0.005113002844154835,0.009777795523405075,-0.006557767745107412
1717857652535171000,2.522171142578125,0.0047177900560200214,0.007908789440989494,-0.005944175645709038
1717857652545212000,2.5322119140625,0.004490622319281101,0.00869175884872675,-0.006409695837646723
1717857652555253000,2.5422529296875,0.004522313829511404,0.00935941282659769,-0.005565207917243242
1717857652565294000,2.552294189453125,0.003924167715013027,0.0067484499886631966,-0.007378021255135536
1717857652575335000,2.5623349609375,0.0033659692853689194,0.008348477073013783,-0.006505303550511599
1717857652585376000,2.5723759765625,0.004132693167775869,0.009674465283751488,-0.005059739574790001
1717857652595417000,2.5824169921875,0.0033270870335400105,0.00920228660106659,-0.0057524279691278934
1717857652605458000,2.5924580078125,0.003763579297810793,0.010059824213385582,-0.006373210810124874
1717857652615499000,2.6024990234375,0.0037819549906998873,0.008417187258601189,-0.005422195885330439
1717857652625540000,2.6125400390625,0.0043774377554655075,0.008378038182854652,-0.0055004931055009365
1717857652635581000,2.622580810546875,0.0035779569298028946,0.008559132926166058,-0.0054727960377931595
1717857652645622000,2.6326220703125,0.0027134947013109922,0.008816927671432495,-0.0065468489192426205
1717857652655663000,2.6426630859375,0.002811499172821641,0.009031311608850956,-0.006177202332764864
1717857652665704000,2.652703857421875,0.004869590047746897,0.009573531337082386,-0.0055180699564516544
1717857652675745000,2.6627451171875,0.003620034782215953,0.00971387978643179,-0.006566289812326431
1717857652685786000,2.6727861328125,0.004159857518970966,0.008624114096164703,-0.005200620740652084
1717857652695826200,2.682826171875,0.003961718175560236,0.008109858259558678,-0.0052964948117733
1717857652705867000,2.692866943359375,0.0033691651187837124,0.009604690596461296,-0.005875998642295599
1717857652715908000,2.702908203125,0.003644269658252597,0.007936752401292324,-0.004506068304181099
1717857652725949000,2.712948974609375,0.0030716899782419205,0.008258729241788387,-0.006536462344229221
1717857652735990000,2.722989990234375,0.004462392535060644,0.008836368098855019,-0.006410228554159403
1717857652746031000,2.733031005859375,0.003876230912283063,0.007987353019416332,-0.005903695244342089
1717857652756072000,2.743072021484375,0.005065332166850567,0.008303469978272915,-0.005774798337370157
1717857652766113000,2.753113037109375,0.004092745948582888,0.007829693146049976,-0.006570817437022924
1717857652776154000,2.763154052734375,0.0041247038170695305,0.009407882578670979,-0.006060289219021797
1717857652786195000,2.77319482421875,0.004830175079405308,0.009137305431067944,-0.004888498689979315
1717857652796236000,2.783236083984375,0.004806472919881344,0.008898952975869179,-0.006109025329351425
1717857652806277000,2.793277099609375,0.0031899344176054,0.008416121825575829,-0.00624085171148181
1717857652816318000,2.80331787109375,0.0034416031558066607,0.008681372739374638,-0.006477872841060162
1717857652826359000,2.813359130859375,0.003712979145348072,0.00836658664047718,-0.005855225957930088
1717857652836400000,2.823400146484375,0.004042145796120167,0.01007793378084898,-0.00586641114205122
1717857652846441000,2.83344091796875,0.004627774935215712,0.009128517471253872,-0.006441387813538313
1717857652856482000,2.84348193359375,0.004458131734281778,0.008285360410809517,-0.006265352945774794
1717857652866523100,2.853523193359375,0.0034000577870756388,0.009110674262046814,-0.003637611633166671
1717857652876564000,2.86356396484375,0.004198207054287195,0.008254733867943287,-0.006674946751445532
1717857652886605000,2.87360498046875,0.00452790642157197,0.01065131276845932,-0.005711415316909552
1717857652896646100,2.883646240234375,0.0025952504947781563,0.009802030399441719,-0.006048038601875305
1717857652906687000,2.89368701171875,0.005306082312017679,0.009710151702165604,-0.0049156625755131245
1717857652916728000,2.90372802734375,0.005558816250413656,0.009494967758655548,-0.005568669643253088
1717857652926769000,2.913768798828125,0.003492735791951418,0.00812157616019249,-0.006447513122111559
1717857652936810000,2.92381005859375,0.004567587748169899,0.008672850206494331,-0.004948685877025127
1717857652946851000,2.93385107421875,0.0030240193009376526,0.009664878249168396,-0.005166798830032349
1717857652956892000,2.943891845703125,0.0028072381392121315,0.00911520142108202,-0.0076115806587040424
1717857652966933000,2.95393310546875,0.002499643014743924,0.008652344346046448,-0.005338572897017002
1717857652976973000,2.96397314453125,0.004625644534826279,0.009345564991235733,-0.00487172044813633
1717857652987014100,2.97401416015625,0.004257329273968935,0.008418251760303974,-0.006305832881480455
1717857652997055000,2.984054931640625,0.0028724854346364737,0.009832124225795269,-0.006876281928271055
1717857653007096000,2.994095947265625,0.004266916774213314,0.00863050576299429,-0.006000634748488665
1717857653017137200,3.00413720703125,0.003858920419588685,0.008275507017970085,-0.007172425277531147
1717857653027178000,3.014177978515625,0.004864796530455351,0.00932239554822445,-0.0054520233534276485
1717857653037219800,3.0242197265625,0.004840561654418707,0.01059112511575222,-0.004202201962471008
1717857653047260700,3.0342607421875,0.0039084553718566895,0.009489108808338642,-0.0059993029572069645
1717857653057301800,3.0443017578125,0.0065292720682919025,0.009641707874834538,-0.006569752003997564
1717857653067342800,3.0543427734375,0.0027979169972240925,0.009306415915489197,-0.006107959896326065
1717857653077383700,3.0643837890625,0.003635747591033578,0.008846755139529705,-0.0040914141573011875
1717857653087424800,3.0744248046875,0.002971288748085499,0.009186041541397572,-0.005088767968118191
1717857653097465900,3.0844658203125,0.004996356554329395,0.00971627701073885,-0.005393966566771269
1717857653107506700,3.094506591796875,0.002959837205708027,0.009905361570417881,-0.00694925244897604
1717857653117547800,3.1045478515625,0.004551608581095934,0.010627610608935356,-0.0049763829447329044
1717857653127588900,3.1145888671875,0.0036629117093980312,0.009495500475168228,-0.004489024169743061
1717857653137629700,3.124629638671875,0.004628840368241072,0.00885048322379589,-0.005846171174198389
1717857653147670800,3.1346708984375,0.002808036981150508,0.009905627928674221,-0.005961486138403416
1717857653157712000,3.1447119140625,0.0047116647474467754,0.008655539713799953,-0.0065018413588404655
1717857653167752700,3.154752685546875,0.003934021573513746,0.008668323047459126,-0.006713029928505421
1717857653177793800,3.164793701171875,0.003194727934896946,0.010024936869740486,-0.005927663762122393
1717857653187834600,3.174834716796875,0.0025965820532292128,0.009722668677568436,-0.005948436446487904
1717857653197875700,3.184875732421875,0.004714327864348888,0.009287774562835693,-0.00663553224876523
1717857653207916800,3.194916748046875,0.004263720940798521,0.009051818400621414,-0.007226221263408661
1717857653217957600,3.20495751953125,0.003914846573024988,0.009093097411096096,-0.006388657260686159
1717857653227998700,3.214998779296875,0.004156661685556173,0.00983425509184599,-0.005923402961343527
1717857653238039800,3.225039794921875,0.0049612028524279594,0.010069145821034908,-0.006725280545651913
1717857653248080000,3.235079833984375,0.003906857222318649,0.009408948011696339,-0.004933505784720182
1717857653258120700,3.24512060546875,0.004081294406205416,0.009547964669764042,-0.0062578958459198475
1717857653268161800,3.255161865234375,0.002901514060795307,0.009209477342665195,-0.006363623309880495
1717857653278203000,3.265202880859375,0.002971555106341839,0.008755408227443695,-0.005621133837848902
1717857653288243700,3.27524365234375,0.003817907767370343,0.009711749851703644,-0.005190767347812653
1717857653298284800,3.285284912109375,0.002510828198865056,0.00905501376837492,-0.005717007908970118
1717857653308326000,3.295325927734375,0.003879693103954196,0.01094772294163704,-0.0046903593465685844
1717857653318366700,3.30536669921875,0.004263188224285841,0.00881186779588461,-0.004080228973180056
1717857653328407800,3.31540771484375,0.0032258869614452124,0.011349326930940151,-0.0010349043877795339
1717857653338448600,3.32544873046875,0.003978230059146881,0.00920202024281025,-0.005431783385574818
1717857653348489700,3.33548974609375,0.00395719101652503,0.006947921123355627,-0.008676844649016857
1717857653358530800,3.34553076171875,0.0034887411165982485,0.006676012184470892,-0.009139702655375004
1717857653368571600,3.355571533203125,0.004969458561390638,0.008863799273967743,-0.007697068154811859
1717857653378612700,3.36561279296875,0.002653573639690876,0.010056895203888416,-0.004490089602768421
1717857653388653800,3.37565380859375,0.004507666453719139,0.010630805976688862,-0.004834702704101801
1717857653398694700,3.385694580078125,0.004328435752540827,0.00743208359926939,-0.006691192276775837
1717857653408735700,3.39573583984375,0.00452684098854661,0.007876564748585224,-0.007772435434162617
1717857653418776800,3.40577685546875,0.0033899378031492233,0.009289904497563839,-0.004547347314655781
1717857653428817700,3.415817626953125,0.005367867648601532,0.010957043617963791,-0.004779042676091194
1717857653438858800,3.425858642578125,0.003772101365029812,0.009346896782517433,-0.006209160201251507
1717857653448899800,3.43589990234375,0.0035928706638514996,0.008697884157299995,-0.0041132522746920586
1717857653458940700,3.445940673828125,0.004565456882119179,0.008301339112222195,-0.005622731987386942
1717857653468981800,3.455981689453125,0.00487278588116169,0.009484581649303436,-0.004208327271044254
1717857653479022800,3.46602294921875,0.0037502634804695845,0.010704309679567814,-0.004688494838774204
1717857653489063700,3.476063720703125,0.004222441930323839,0.008370582014322281,-0.005697300657629967
1717857653499104800,3.486104736328125,0.0035814191214740276,0.00782596506178379,-0.006104497704654932
1717857653509145900,3.496145751953125,0.00512818293645978,0.008592955768108368,-0.004735899157822132
1717857653519186700,3.506186767578125,0.005088235717266798,0.010581538081169128,-0.004960403777658939
1717857653529226800,3.516226806640625,0.00367170013487339,0.00896979309618473,-0.006304501090198755
1717857653539267800,3.526267822265625,0.0051446943543851376,0.00866352953016758,-0.007495200727134943
1717857653549308700,3.53630859375,0.004822452086955309,0.008028099313378334,-0.005785451270639896
1717857653559349800,3.546349853515625,0.0046789078041911125,0.010686999186873436,-0.006596649996936321
1717857653569390800,3.556390869140625,0.003989415243268013,0.010371680371463299,-0.006067479960620403
1717857653579431700,3.566431640625,0.003495665267109871,0.00953784491866827,-0.005141498986631632
1717857653589472800,3.57647265625,0.004619252867996693,0.007840612903237343,-0.005815810989588499
1717857653599513900,3.586513916015625,0.004041080828756094,0.009455819614231586,-0.006334594916552305
1717857653609554700,3.5965546875,0.004055461846292019,0.009110141545534134,-0.005862150341272354
1717857653619595800,3.606595703125,0.0038986015133559704,0.009239837527275085,-0.008223042823374271
1717857653629636900,3.616636962890625,0.004314587451517582,0.009237706661224365,-0.005302087403833866
1717857653639677700,3.626677734375,0.0022485069930553436,0.0086616650223732,-0.005829926114529371
1717857653649718800,3.63671875,0.0034410704392939806,0.00893836747854948,-0.0073418025858700275
1717857653659759900,3.646759765625,0.0038661109283566475,0.009664878249168396,-0.005826197564601898
1717857653669800700,3.65680078125,0.004267981741577387,0.009445699863135815,-0.004353735595941544
1717857653679841800,3.666841796875,0.004209392238408327,0.009271528571844101,-0.005137237720191479
1717857653689883000,3.6768828125,0.0057226005010306835,0.00941933412104845,-0.007225422188639641
1717857653699923700,3.686923828125,0.0034314829390496016,0.009605489671230316,-0.005860285833477974
1717857653709964800,3.69696484375,0.003451723139733076,0.008477107621729374,-0.006204099860042334
1717857653720005600,3.707005615234375,0.004396612755954266,0.009066731669008732,-0.00574896577745676
1717857653730046700,3.717046630859375,0.004068777430802584,0.009829993359744549,-0.00449941074475646
1717857653740087800,3.727087890625,0.003722300287336111,0.009464342147111893,-0.00815193634480238
1717857653750128600,3.737128662109375,0.002642654813826084,0.009788980707526207,-0.005697034299373627
1717857653760169700,3.747169677734375,0.004808337427675724,0.0105328019708395,-0.0046445527113974094
1717857653770210800,3.7572109375,0.005364405456930399,0.008644620887935162,-0.006901049055159092
1717857653780251600,3.767251708984375,0.005614209920167923,0.009168464690446854,-0.004752411041408777
1717857653790292700,3.777292724609375,0.002950782421976328,0.008982043713331223,-0.005499694030731916
1717857653800333800,3.787333740234375,0.004595817066729069,0.008564991876482964,-0.0065439194440841675
1717857653810374700,3.797374755859375,0.0026343988720327616,0.00896553136408329,-0.004821653012186289
1717857653820415700,3.807415771484375,0.0030088394414633512,0.00953997578471899,-0.005766542628407478
1717857653830456800,3.817456787109375,0.004715659189969301,0.008230498991906643,-0.006827545817941427
1717857653840497000,3.827496826171875,0.0044394894503057,0.00885101594030857,-0.005916212219744921
1717857653850537700,3.837537841796875,0.004705006722360849,0.007848601788282394,-0.0052472264505922794
1717857653860578800,3.847578857421875,0.0034264230635017157,0.007860053330659866,-0.0072837453335523605
1717857653870619600,3.85761962890625,0.0020932445768266916,0.009328787215054035,-0.006055495701730251
1717857653880660700,3.86766064453125,0.004722050856798887,0.008961536921560764,-0.006815827917307615
1717857653890701800,3.877701904296875,0.003855724586173892,0.009309345856308937,-0.0062544336542487144
1717857653900742700,3.88774267578125,0.004861867055296898,0.008708536624908447,-0.005824599415063858
1717857653910783700,3.89778369140625,0.004889830015599728,0.009291502647101879,-0.006356433033943176
1717857653920824800,3.907824951171875,0.003875698195770383,0.008561263792216778,-0.005897836294025183
1717857653930865700,3.91786572265625,0.0032732912804931402,0.00749040674418211,-0.005994509439915419
1717857653940906800,3.92790673828125,0.0043801008723676205,0.009518137201666832,-0.005425924435257912
1717857653950947800,3.93794775390625,0.0032778186723589897,0.008820655755698681,-0.007466171868145466
1717857653960988700,3.94798876953125,0.002993126632645726,0.00962413102388382,-0.006114351563155651
1717857653971029800,3.95802978515625,0.004886634182184935,0.009398828260600567,-0.00695005152374506
1717857653981070800,3.96807080078125,0.0032977922819554806,0.00757935643196106,-0.005874400492757559
1717857653991111700,3.978111572265625,0.004172374494373798,0.009193764999508858,-0.0037678403314203024
1717857654001152800,3.98815283203125,0.0035206989850848913,0.010013485327363014,-0.006670419592410326
1717857654011193900,3.99819384765625,0.003905792022123933,0.009225189685821533,-0.005107676610350609
1717857654021234700,4.008234619140625,0.0021281319204717875,0.009377522394061089,-0.005795038305222988
1717857654031275500,4.018275634765625,0.003667971817776561,0.008754076436161995,-0.005993976723402739
1717857654041316600,4.028316650390625,0.003254915354773402,0.01008299458771944,-0.0049153962172567844
1717857654051357400,4.038357421875,0.004441886208951473,0.009661149233579636,-0.006946589332073927
1717857654061398500,4.0483984375,0.003973170183598995,0.00968591682612896,-0.005024852231144905
1717857654071439600,4.058439697265625,0.0038043255917727947,0.00908457487821579,-0.005964415613561869
1717857654081480400,4.06848046875,0.003035471076145768,0.009937851689755917,-0.005702360533177853
1717857654091521500,4.078521484375,0.004608334042131901,0.00974663719534874,-0.006691724993288517
1717857654101562600,4.088562744140625,0.0023467775899916887,0.009662747383117676,-0.006820355542004108
1717857654111603500,4.098603515625,0.005247492343187332,0.009131712839007378,-0.006854710169136524
1717857654121643500,4.1086435546875,0.004251470323652029,0.009251555427908897,-0.006444050930440426
1717857654131684600,4.1186845703125,0.004612594842910767,0.009121060371398926,-0.006876814644783735
1717857654141725400,4.128725341796875,0.004815527703613043,0.01016741618514061,-0.004575843457132578
1717857654151766500,4.1387666015625,0.00370179396122694,0.009329586289823055,-0.0032650355715304613
1717857654161807600,4.1488076171875,0.0025446503423154354,0.00800253264605999,-0.006725014187395573
1717857654171848400,4.158848388671875,0.005608084611594677,0.009276323020458221,-0.004868258256465197
1717857654181889500,4.1688896484375,0.0028599686920642853,0.007999337278306484,-0.006413690745830536
1717857654191930600,4.1789306640625,0.0021582257468253374,0.010159427300095558,-0.005608617328107357
1717857654201971500,4.188971435546875,0.004209924954921007,0.008671784773468971,-0.00583605095744133
1717857654212012500,4.199012451171875,0.004433364141732454,0.008617457002401352,-0.005071990191936493
1717857654222053600,4.2090537109375,0.004597681108862162,0.010615093633532524,-0.004491953644901514
1717857654232094500,4.219094482421875,0.004767324775457382,0.008851548656821251,-0.00401471508666873
1717857654242135600,4.229135498046875,0.0034352114889770746,0.009337841533124447,-0.005420598201453686
1717857654252176600,4.2391767578125,0.003766775131225586,0.008844890631735325,-0.0039007319137454033
1717857654262217500,4.249217529296875,0.003632285399362445,0.007670702878385782,-0.0064802695997059345
1717857654272258600,4.259258544921875,0.00427144393324852,0.010183128528296947,-0.005306614562869072
1717857654282299400,4.26929931640625,0.00440992834046483,0.009101619012653828,-0.005730856209993362
1717857654292340500,4.279340576171875,0.003947070799767971,0.009206281043589115,-0.005169461946934462
1717857654302381600,4.289381591796875,0.004738296382129192,0.008523979224264622,-0.0068025123327970505
1717857654312422400,4.29942236328125,0.005007009021937847,0.01010829396545887,-0.006552175153046846
1717857654322463500,4.30946337890625,0.004403270315378904,0.009250489994883537,-0.006512760184705257
1717857654332504600,4.319504638671875,0.004496481269598007,0.010133061558008194,-0.003695135936141014
1717857654342545400,4.32954541015625,0.0046695866622030735,0.009916813112795353,-0.0028391960076987743
1717857654352586500,4.33958642578125,0.003864246653392911,0.008251538500189781,-0.005982525181025267
1717857654362627600,4.349627685546875,0.003563842037692666,0.007814247161149979,-0.005732986610382795
1717857654372668400,4.35966845703125,0.0037348170299082994,0.007119428366422653,-0.008170045912265778
1717857654382709500,4.36970947265625,0.0035689021460711956,0.008810536004602909,-0.006007558666169643
1717857654392750600,4.37975048828125,0.0041276332922279835,0.008326373063027859,-0.0057372478768229485
1717857654402791400,4.38979150390625,0.002837864449247718,0.009442769922316074,-0.006514624692499638
1717857654412831500,4.39983154296875,0.003858654061332345,0.009681656025350094,-0.006659766659140587
1717857654422872600,4.40987255859375,0.003564907470718026,0.009811618365347385,-0.006146842148154974
1717857654432913700,4.41991357421875,0.004799282643944025,0.00950641930103302,-0.0077458037994802
1717857654442954500,4.42995458984375,0.004500475712120533,0.008609200827777386,-0.005588111001998186
1717857654452995600,4.43999560546875,0.003650394966825843,0.010086989030241966,-0.0062547000125050545
1717857654463036400,4.450036376953125,0.004081827122718096,0.00794580765068531,-0.007930094376206398
1717857654473077500,4.460077392578125,0.0020969731267541647,0.00726457079872489,-0.006040848325937986
1717857654483118600,4.47011865234375,0.002162753138691187,0.009428922086954117,-0.004025368019938469
1717857654493159400,4.480159423828125,0.0035055188927799463,0.008594819344580173,-0.005134840961545706
1717857654503200500,4.490200439453125,0.003867442486807704,0.008812665939331055,-0.005842176266014576
1717857654513241600,4.50024169921875,0.003946272190660238,0.010978348553180695,-0.006511428859084845
1717857654523282400,4.510282470703125,0.0032410670537501574,0.008892028592526913,-0.006548180244863033
1717857654533323500,4.520323486328125,0.004022438544780016,0.00885074958205223,-0.006403038278222084
1717857654543364600,4.530364501953125,0.004563592839986086,0.010124272666871548,-0.007443801499903202
1717857654553405400,4.540405517578125,0.004209392238408327,0.01037674117833376,-0.006457366514950991
1717857654563446500,4.550446533203125,0.0025987126864492893,0.008796687237918377,-0.005528722424060106
1717857654573487600,4.560487548828125,0.002895655110478401,0.008963401429355145,-0.005844839382916689
1717857654583528400,4.570528564453125,0.001844771672040224,0.01034664735198021,-0.005085572600364685
1717857654593569500,4.580569580078125,0.0037497307639569044,0.008237956091761589,-0.004652808886021376
1717857654603610600,4.590610595703125,0.004540689755231142,0.008524511940777302,-0.006326072849333286
1717857654613651500,4.6006513671875,0.003887682454660535,0.009350358508527279,-0.00583791546523571
1717857654623692500,4.610692626953125,0.0036035231314599514,0.010645986534655094,-0.00515827676281333
1717857654633733600,4.620733642578125,0.004572913981974125,0.009394566528499126,-0.004692756105214357
1717857654643774500,4.6307744140625,0.0035683694295585155,0.009534116834402084,-0.0067873322404921055
1717857654653815600,4.640815673828125,0.003713778220117092,0.008553540334105492,-0.005829127039760351
1717857654663856400,4.6508564453125,0.0035057852510362864,0.009280850179493427,-0.004888498689979315
1717857654673897500,4.6608974609375,0.003510046284645796,0.00893863383680582,-0.0054243262857198715
1717857654683938600,4.6709384765625,0.0043654534965753555,0.010007360018789768,-0.005330050364136696
1717857654693979400,4.6809794921875,0.004816060420125723,0.007977232336997986,-0.005813946947455406
1717857654704020500,4.6910205078125,0.0038783615455031395,0.008585765026509762,-0.005116997752338648
1717857654714061600,4.7010615234375,0.003518834710121155,0.009427856653928757,-0.004722050856798887
1717857654724102400,4.711102294921875,0.0035116442013531923,0.008432633243501186,-0.0065071675926446915
1717857654734142500,4.721142578125,0.0038751657120883465,0.009466205723583698,-0.00726297264918685
1717857654744183600,4.73118359375,0.005816343706101179,0.009469402022659779,-0.006583068054169416
1717857654754224600,4.741224609375,0.002763562137261033,0.008684301748871803,-0.006676278542727232
1717857654764265500,4.751265380859375,0.0036669063847512007,0.007948736660182476,-0.0054514906369149685
1717857654774306600,4.761306640625,0.0024919197894632816,0.009065932594239712,-0.005459214095026255
1717857654784347600,4.77134765625,0.003209908027201891,0.009337042458355427,-0.005873868241906166
1717857654794388500,4.781388427734375,0.0033835461363196373,0.008541289716959,-0.005548163317143917
1717857654804429600,4.7914296875,0.0033835461363196373,0.01013945322483778,-0.006105829495936632
1717857654814470700,4.801470703125,0.004443218000233173,0.009484048932790756,-0.0063154203817248344
1717857654824511500,4.811511474609375,0.005335643421858549,0.009317868389189243,-0.0072930664755403996
1717857654834552600,4.821552490234375,0.004058124963194132,0.008281099610030651,-0.004522047471255064
1717857654844593400,4.831593505859375,0.003064233111217618,0.010774883441627026,-0.007994809187948704
1717857654854634500,4.841634521484375,0.003427221905440092,0.010112554766237736,-0.005632319487631321
1717857654864675600,4.851675537109375,0.0034384073223918676,0.007419033907353878,-0.006244580261409283
1717857654874716400,4.86171630859375,0.004603007808327675,0.008348477073013783,-0.006157494615763426
1717857654884757500,4.871757568359375,0.0030003173742443323,0.008982576429843903,-0.006367618218064308
1717857654894798600,4.881798583984375,0.0046967510133981705,0.008211856707930565,-0.006514624692499638
1717857654904839400,4.89183935546875,0.004022172186523676,0.008451808243989944,-0.005065332166850567
1717857654914880500,4.901880615234375,0.003293797606602311,0.007829959504306316,-0.0057372478768229485
1717857654924921600,4.911921630859375,0.0038605183362960815,0.007988417521119118,-0.004718855023384094
1717857654934962400,4.92196240234375,0.005401689559221268,0.009659817442297935,-0.0052179316990077496
1717857654945003500,4.93200341796875,0.00446931691840291,0.009042763151228428,-0.0051963599398732185
1717857654955044600,4.942044677734375,0.0032618397381156683,0.00830932892858982,-0.005394232925027609
1717857654965085400,4.95208544921875,0.0024490428622812033,0.00891120359301567,-0.005561479367315769
1717857654975126500,4.96212646484375,0.0043902210891246796,0.008688297122716904,-0.005918342620134354
1717857654985167600,4.972167724609375,0.004285026341676712,0.009849701076745987,-0.005865079816430807
1717857654995208400,4.98220849609375,0.004624579101800919,0.009470733813941479,-0.006718356627970934
1717857655005249500,4.99224951171875,0.002856240142136812,0.009504822082817554,-0.006425941362977028
1717857655015290600,5.00229052734375,0.002552906284108758,0.009649697691202164,-0.006174272391945124
1717857655025330400,5.012330322265625,0.0054823835380375385,0.008840629830956459,-0.005287440028041601
1717857655035371000,5.02237109375,0.004875981714576483,0.008489890955388546,-0.00640942994505167
1717857655045412000,5.032412109375,0.003938282374292612,0.008834238164126873,-0.005958823021501303
1717857655055453200,5.042453125,0.0041092573665082455,0.009185242466628551,-0.004088218789547682
1717857655065494000,5.052493896484375,0.004578506574034691,0.007999869994819164,-0.006244580261409283
1717857655075535000,5.06253515625,0.0032866070978343487,0.007437143474817276,-0.005209675524383783
1717857655085576000,5.072575927734375,0.004207528196275234,0.007526093162596226,-0.006968693342059851
1717857655095617000,5.082616943359375,0.004639759194105864,0.009799101389944553,-0.006689061876386404
1717857655105658000,5.092658203125,0.003674895968288183,0.00938977301120758,-0.005388107616454363
1717857655115699000,5.102698974609375,0.003213370218873024,0.009954363107681274,-0.006147108506411314
1717857655125740000,5.112739990234375,0.0032498554792255163,0.009348760358989239,-0.005527390632778406
1717857655135781000,5.122781005859375,0.003171558491885662,0.008293882943689823,-0.006993460934609175
1717857655145822000,5.132822021484375,0.004400340840220451,0.00962839275598526,-0.006257096771150827
1717857655155863000,5.142863037109375,0.005066663958132267,0.008646485395729542,-0.0062301987782120705
1717857655165904100,5.152904052734375,0.004524976946413517,0.00926167517900467,-0.005303951445966959
1717857655175945000,5.162945068359375,0.003175287041813135,0.008595085702836514,-0.006231530569493771
1717857655185986000,5.172986083984375,0.002773149637505412,0.007924235425889492,-0.006409962195903063
1717857655196027100,5.183027099609375,0.004358263220638037,0.008273376151919365,-0.005605954211205244
1717857655206068000,5.19306787109375,0.005881324876099825,0.008883506059646606,-0.005077316425740719
1717857655216109000,5.203109130859375,0.003683151677250862,0.01028566062450409,-0.005691708065569401
1717857655226150100,5.213150146484375,0.0028913940768688917,0.0076422072015702724,-0.004807271994650364
1717857655236191000,5.22319091796875,0.004207794554531574,0.008302937261760235,-0.00595615990459919
1717857655246232000,5.233232177734375,0.004834702704101801,0.00845420453697443,-0.006656571291387081
1717857655256273200,5.243273193359375,0.004030427895486355,0.009651295840740204,-0.0064866612665355206
1717857655266314000,5.25331396484375,0.003922037314623594,0.008521316573023796,-0.007648332044482231
1717857655276355000,5.26335498046875,0.0028842033352702856,0.010219081304967403,-0.005545766558498144
1717857655286396000,5.27339599609375,0.0041609229519963264,0.008252870291471481,-0.0046605318784713745
1717857655296437000,5.28343701171875,0.0028072381392121315,0.008576709777116776,-0.005422994960099459
1717857655306478000,5.29347802734375,0.0036812876351177692,0.009334646165370941,-0.005824599415063858
1717857655316519000,5.303518798828125,0.0049217878840863705,0.00993385724723339,-0.00654551712796092
1717857655326559000,5.31355908203125,0.0051923650316894054,0.009432916529476643,-0.004156661685556173
1717857655336600000,5.32360009765625,0.004507932811975479,0.010121610015630722,-0.004306597635149956
1717857655346641200,5.33364111328125,0.003346794517710805,0.010980745777487755,-0.005576393101364374
1717857655356682000,5.343681884765625,0.004352670628577471,0.008070443756878376,-0.005021123681217432
1717857655366723000,5.35372314453125,0.006006493698805571,0.009316003881394863,-0.00743288267403841
1717857655376764200,5.36376416015625,0.004588626325130463,0.0073596457950770855,-0.0073082465678453445
1717857655386805000,5.373804931640625,0.003212571144104004,0.00863183755427599,-0.005979595705866814
1717857655396846000,5.38384619140625,0.0029699571896344423,0.010614827275276184,-0.005783320404589176
1717857655406887200,5.39388720703125,0.003471164032816887,0.009460613131523132,-0.005064000841230154
1717857655416928000,5.403927978515625,0.004003263544291258,0.008468586020171642,-0.005396096967160702
1717857655426969000,5.413968994140625,0.0037582528311759233,0.009485913440585136,-0.006272010505199432
1717857655437010200,5.42401025390625,0.0035175031516700983,0.009345831349492073,-0.005038168281316757
1717857655447051000,5.434051025390625,0.003992877434939146,0.00926194153726101,-0.005060272291302681
1717857655457092000,5.444092041015625,0.0052051483653485775,0.0089378347620368,-0.0068120998330414295
1717857655467133000,5.4541328125,0.0037060549948364496,0.009576727636158466,-0.0057167415507137775
1717857655477174000,5.464174072265625,0.004320712294429541,0.010249707847833633,-0.005687979515641928
1717857655487215000,5.474215087890625,0.002517486223950982,0.009890181012451649,-0.006370547693222761
1717857655497256000,5.484255859375,0.004107393324375153,0.009193764999508858,-0.004959604702889919
1717857655507297000,5.494297119140625,0.003366768127307296,0.007920773699879646,-0.006170277949422598
1717857655517338000,5.504338134765625,0.0032352081034332514,0.009247028268873692,-0.0056802560575306416
1717857655527379000,5.51437890625,0.002630404196679592,0.0089980224147439,-0.0041065942496061325
1717857655537420000,5.524419921875,0.0034059167373925447,0.007934622466564178,-0.004623247776180506
1717857655547461000,5.534461181640625,0.004449076950550079,0.009816145524382591,-0.005885852500796318
1717857655557502000,5.544501953125,0.005874666851013899,0.008451808243989944,-0.0054573495872318745
1717857655567543000,5.55454296875,0.0033244239166378975,0.008875250816345215,-0.005518602207303047
1717857655577584000,5.564584228515625,0.00427171029150486,0.008476841263473034,-0.00600383011624217
1717857655587625000,5.574625,0.004686364438384771,0.007300523575395346,-0.006421946454793215
1717857655597666000,5.584666015625,0.004244279582053423,0.009050220251083374,-0.004992894362658262
1717857655607707100,5.59470703125,0.002841326640918851,0.010322678834199905,-0.006323409732431173
1717857655617747000,5.604746826171875,0.0041398839093744755,0.008865662850439548,-0.00475560687482357
1717857655627788000,5.6147880859375,0.004428037907928228,0.008402805775403976,-0.005534847732633352
1717857655637829000,5.6248291015625,0.0021638183388859034,0.008682969957590103,-0.0060110208578407764
1717857655647870000,5.634869873046875,0.0035723643377423286,0.00998898409307003,-0.005855492316186428
1717857655657911000,5.6449111328125,0.005422994960099459,0.009256615303456783,-0.00626029260456562
1717857655667952000,5.6549521484375,0.0021582257468253374,0.008140484802424908,-0.0054304515942931175
1717857655677993000,5.664992919921875,0.004208327271044254,0.009269931353628635,-0.0059540290385484695
1717857655688034000,5.675033935546875,0.0034679684322327375,0.007694937754422426,-0.005751895252615213
1717857655698075100,5.6850751953125,0.004454403184354305,0.009379919618368149,-0.00640916358679533
1717857655708116000,5.695115966796875,0.0027270768769085407,0.008853678591549397,-0.003879160387441516
1717857655718157000,5.705156982421875,0.00355931487865746,0.008408398367464542,-0.007782022934406996
1717857655728198100,5.7151982421875,0.005107143893837929,0.010342385619878769,-0.00507039250805974
1717857655738239000,5.725239013671875,0.0037888791412115097,0.01005263440310955,-0.005450425669550896
1717857655748280000,5.735280029296875,0.003285009181126952,0.008864864706993103,-0.006041114684194326
1717857655758321200,5.745321044921875,0.005204082932323217,0.009235842153429985,-0.005025651305913925
1717857655768362000,5.755362060546875,0.0023672839161008596,0.009214537218213081,-0.006313289515674114
1717857655778403000,5.765403076171875,0.002632800955325365,0.008974320255219936,-0.004990497604012489
1717857655788444200,5.775444091796875,0.00418435875326395,0.009383381344377995,-0.006688529159873724
1717857655798485000,5.785485107421875,0.0009598032338544726,0.009387376718223095,-0.0049673281610012054
1717857655808526000,5.795526123046875,0.0030418625101447105,0.009801764041185379,-0.005458415020257235
1717857655818567000,5.80556689453125,0.003584614722058177,0.009500294923782349,-0.005764145869761705
1717857655828608000,5.81560791015625,0.004461327567696571,0.010292318649590015,-0.003869839245453477
1717857655838649000,5.825649169921875,0.003581951605156064,0.010923754423856735,-0.005650162696838379
1717857655848690000,5.83568994140625,0.004611529875546694,0.009521333500742912,-0.00609277980402112
1717857655858731000,5.84573095703125,0.005224056541919708,0.008616924285888672,-0.0062573631294071674
1717857655868772000,5.855772216796875,0.0030509172938764095,0.007923969067633152,-0.00504029868170619
1717857655878813000,5.86581298828125,0.004181162919849157,0.010300308465957642,-0.005141232628375292
1717857655888854000,5.87585400390625,0.0032349417451769114,0.008582835085690022,-0.006308229640126228
1717857655898895000,5.88589501953125,0.003667971817776561,0.009180715307593346,-0.006449110805988312
1717857655908936000,5.89593603515625,0.005703159607946873,0.008988967165350914,-0.006046707276254892
1717857655918976000,5.90597607421875,0.0037436054553836584,0.009129848331212997,-0.007727960590273142
1717857655929017000,5.91601708984375,0.004025101661682129,0.009652361273765564,-0.006317018065601587
1717857655939058200,5.92605810546875,0.004402471706271172,0.00797590147703886,-0.005883455276489258
1717857655949099000,5.93609912109375,0.002148372121155262,0.009289371781051159,-0.006594253238290548
1717857655959140000,5.94614013671875,0.0036698358599096537,0.008548214100301266,-0.0060051619075238705
1717857655969181200,5.95618115234375,0.00430073868483305,0.009986587800085545,-0.006310093682259321
1717857655979222000,5.966221923828125,0.004447745159268379,0.007956460118293762,-0.005679723806679249
1717857655989263000,5.97626318359375,0.0036487970501184464,0.008613461628556252,-0.006681604776531458
1717857655999304000,5.986303955078125,0.0024141555186361074,0.008946357294917107,-0.006167881190776825
1717857656009345000,5.996344970703125,0.005562544334679842,0.009280051104724407,-0.005813946947455406
1717857656019386000,6.00638623046875,0.0039113848470151424,0.007787349168211222,-0.0076158419251441956
1717857656029427000,6.016427001953125,0.003578489413484931,0.009818010032176971,-0.005661880597472191
1717857656039469300,6.02646923828125,0.004038683604449034,0.009711483493447304,-0.005405151750892401
1717857656049510100,6.03651025390625,0.004047472029924393,0.007787615526467562,-0.006615558639168739
1717857656059551200,6.04655126953125,0.005385976750403643,0.0090555464848876,-0.00629038643091917
1717857656069592300,6.05659228515625,0.003983289934694767,0.008530903607606888,-0.004863198380917311
1717857656079633200,6.066633056640625,0.00395585922524333,0.008049137890338898,-0.0057191383093595505
1717857656089674200,6.07667431640625,0.0035148400347679853,0.009362342767417431,-0.006643521599471569
1717857656099715300,6.08671533203125,0.0062554990872740746,0.009278985671699047,-0.0067601678892970085
1717857656109756200,6.096756103515625,0.003945739474147558,0.00902438722550869,-0.0041524008847773075
1717857656119797200,6.10679736328125,0.0029726203065365553,0.009884588420391083,-0.005618470720946789
1717857656129838300,6.11683837890625,0.0033718282356858253,0.009583917446434498,-0.005664010997861624
1717857656139879200,6.126879150390625,0.002272741636261344,0.009270995855331421,-0.007363906595855951
1717857656149920300,6.136920166015625,0.004217648413032293,0.009246495552361012,-0.0059966398403048515
1717857656159961300,6.14696142578125,0.002766491612419486,0.008353803306818008,-0.006003297865390778
1717857656170002200,6.157002197265625,0.004187820944935083,0.007781756576150656,-0.005803826730698347
1717857656180043300,6.167043212890625,0.004001665860414505,0.009845173917710781,-0.005150287412106991
1717857656190084000,6.177083984375,0.004451207350939512,0.008772452361881733,-0.006620085798203945
1717857656200125200,6.187125244140625,0.0038277613930404186,0.009118396788835526,-0.0046392264775931835
1717857656210166300,6.197166259765625,0.003905525663867593,0.009471265599131584,-0.005933789070695639
1717857656220206300,6.207206298828125,0.0032344090286642313,0.008094677701592445,-0.006229666527360678
1717857656230247200,6.2172470703125,0.0046842340379953384,0.00914662703871727,-0.005997971165925264
1717857656240288300,6.227288330078125,0.0038424087688326836,0.007020358927547932,-0.004987035412341356
1717857656250329300,6.237329345703125,0.005072256550192833,0.008465922437608242,-0.006589991971850395
1717857656260370200,6.2473701171875,0.003623496973887086,0.008297344669699669,-0.006481068674474955
1717857656270411300,6.257411376953125,0.003951065707951784,0.010026535019278526,-0.006503173150122166
1717857656280452400,6.267452392578125,0.0049034119583666325,0.008798285387456417,-0.006219279952347279
1717857656290493200,6.2774931640625,0.003952929750084877,0.008867793716490269,-0.0057534934021532536
1717857656300534300,6.2875341796875,0.0034903388004750013,0.009066731669008732,-0.005964948330074549
1717857656310575400,6.297575439453125,0.00390339526347816,0.009224390611052513,-0.0057127466425299644
1717857656320616200,6.3076162109375,0.004335093777626753,0.009210542775690556,-0.0052115400321781635
1717857656330657300,6.3176572265625,0.004775580484420061,0.008141017518937588,-0.004461593925952911
1717857656340698400,6.327698486328125,0.004432831425219774,0.009814813733100891,-0.006084257736802101
1717857656350739200,6.3377392578125,0.002715625334531069,0.008258196525275707,-0.00549197057262063
1717857656360780300,6.3477802734375,0.00344506511464715,0.009610549546778202,-0.004834436345845461
1717857656370821000,6.357821044921875,0.004336957819759846,0.009945308789610863,-0.004030960611999035
1717857656380862200,6.3678623046875,0.004289287142455578,0.009069927968084812,-0.0059958407655358315
1717857656390903300,6.3779033203125,0.0034352114889770746,0.008567655459046364,-0.0070853400975465775
1717857656400944000,6.387944091796875,0.004514058120548725,0.008760734461247921,-0.006222475785762072
1717857656410985200,6.397985107421875,0.0028298748657107353,0.009095760062336922,-0.004730839282274246
1717857656421026300,6.4080263671875,0.004697283264249563,0.008414257317781448,-0.005240834783762693
1717857656431067100,6.418067138671875,0.002049036091193557,0.009472597390413284,-0.005595034919679165
1717857656441108200,6.428108154296875,0.004632036201655865,0.009545568376779556,-0.008464325219392776
1717857656451149300,6.4381494140625,0.00355851580388844,0.007399859372526407,-0.006524478085339069
1717857656461190100,6.448190185546875,0.004752144683152437,0.009272860363125801,-0.006000368390232325
1717857656471231200,6.458231201171875,0.004077565856277943,0.008508799597620964,-0.005654956214129925
1717857656481272300,6.468272216796875,0.002305498579517007,0.008775648660957813,-0.006140983197838068
1717857656491313200,6.478313232421875,0.005637379363179207,0.009042230434715748,-0.006923686247318983
1717857656501353200,6.488353271484375,0.00401524780318141,0.008613994345068932,-0.006125004030764103
1717857656511394300,6.498394287109375,0.0035486621782183647,0.010490723885595798,-0.005333246197551489
1717857656521435100,6.50843505859375,0.0031672974582761526,0.009110940620303154,-0.004828311037272215
1717857656531476200,6.518476318359375,0.004085821565240622,0.008890696801245213,-0.006158293690532446
1717857656541517300,6.528517333984375,0.0021885856986045837,0.00939270295202732,-0.0047116647474467754
1717857656551558100,6.53855810546875,0.004216316621750593,0.009696569293737411,-0.005853894166648388
1717857656561599200,6.54859912109375,0.005351888481527567,0.010007093660533428,-0.005140167195349932
1717857656571640300,6.558640380859375,0.004172907210886478,0.010319482535123825,-0.006487193983048201
1717857656581681200,6.56868115234375,0.003981692250818014,0.00959696713835001,-0.00546240946277976
1717857656591722200,6.57872216796875,0.0039084553718566895,0.00914316438138485,-0.006659500766545534
1717857656601763300,6.588763427734375,0.004551075864583254,0.009136772714555264,-0.004944957327097654
1717857656611804200,6.59880419921875,0.0030895331874489784,0.009681922383606434,-0.006674680393189192
1717857656621845200,6.60884521484375,0.0043894220143556595,0.00945155881345272,-0.005833121482282877
1717857656631886300,6.61888623046875,0.003433080855756998,0.007935155183076859,-0.0054581486620008945
1717857656641927200,6.62892724609375,0.004200071096420288,0.008569519966840744,-0.006771087180823088
1717857656651968300,6.63896826171875,0.004614459350705147,0.009091232903301716,-0.005351355765014887
1717857656662009300,6.64900927734375,0.0031699605751782656,0.010447847656905651,-0.0054397727362811565
1717857656672050200,6.65905029296875,0.004168113227933645,0.00993332453072071,-0.006840861868113279
1717857656682091300,6.66909130859375,0.004515123087912798,0.008019044063985348,-0.005691441707313061
1717857656692132400,6.67913232421875,0.005875732284039259,0.008304535411298275,-0.0054541537538170815
1717857656702173200,6.689173095703125,0.004025368019938469,0.009337042458355427,-0.005882390309125185
1717857656712214300,6.69921435546875,0.004761732183396816,0.008470184169709682,-0.006374009884893894
1717857656722255000,6.709255126953125,0.0037257622461766005,0.008440090343356133,-0.006272276863455772
1717857656732296200,6.719296142578125,0.0021193434949964285,0.008464591577649117,-0.005206213798373938
1717857656742337300,6.729337158203125,0.0036599822342395782,0.00845447089523077,-0.006907440721988678
1717857656752378000,6.739378173828125,0.004283960908651352,0.009192166849970818,-0.005437375977635384
1717857656762419200,6.749419189453125,0.0027715517207980156,0.008902148343622684,-0.0046456181444227695
1717857656772460300,6.759460205078125,0.0051806471310555935,0.008176171220839024,-0.005528988782316446
1717857656782501000,6.769501220703125,0.005592904519289732,0.007506652269512415,-0.007726362906396389
1717857656792541200,6.779541259765625,0.0023166837636381388,0.009130381047725677,-0.00580755528062582
1717857656802582300,6.789582275390625,0.003489273600280285,0.008932242169976234,-0.005876531358808279
1717857656812623400,6.799623291015625,0.003585413796827197,0.009394566528499126,-0.004963599611073732
1717857656822664200,6.809664306640625,0.006150304339826107,0.007662180811166763,-0.00634791050106287
1717857656832705300,6.819705322265625,0.0030772825703024864,0.009241701103746891,-0.005825132131576538
1717857656842746400,6.829746337890625,0.003975300583988428,0.00887871254235506,-0.0054999603889882565
1717857656852787200,6.839787109375,0.003971039317548275,0.008785768412053585,-0.006806507240980864
1717857656862828300,6.849828369140625,0.004083424806594849,0.007990814745426178,-0.005664810072630644
1717857656872869400,6.859869384765625,0.005076517816632986,0.009909356012940407,-0.006589725613594055
1717857656882910200,6.86991015625,0.0035246936604380608,0.008135690353810787,-0.0065801385790109634
1717857656892951300,6.879951416015625,0.005067196674644947,0.009080314077436924,-0.006097041070461273
1717857656902992100,6.8899921875,0.0031904669012874365,0.009496033191680908,-0.004406466148793697
1717857656913033200,6.900033203125,0.004275438841432333,0.009138370864093304,-0.007149255834519863
1717857656923074300,6.91007421875,0.002510561840608716,0.008533300831913948,-0.00669305631890893
1717857656933115100,6.920115234375,0.003736681304872036,0.008570585399866104,-0.006828344892710447
1717857656943156200,6.93015625,0.003983822651207447,0.009271262213587761,-0.003370496677234769
1717857656953197300,6.940197265625,0.002415487077087164,0.009736782871186733,-0.006010488141328096
1717857656963238100,6.950238037109375,0.004801679402589798,0.008372978307306767,-0.005357214715331793
1717857656973279200,6.960279296875,0.0043595945462584496,0.007447263691574335,-0.004613127559423447
1717857656983320300,6.9703203125,0.0017568873008713126,0.01017114520072937,-0.0049438923597335815
1717857656993361200,6.980361083984375,0.0031678301747888327,0.008666991256177425,-0.005303418729454279
1717857657003402200,6.99040234375,0.0008420915110036731,0.009549296461045742,-0.005185707006603479
1717857657013443300,7.000443359375,0.0044077979400753975,0.009738647378981113,-0.00634950865060091
1717857657023484200,7.010484130859375,0.003599794814363122,0.009244897402822971,-0.006128199864178896
1717857657033524700,7.020524658203125,0.0035899411886930466,0.008668589405715466,-0.005281314719468355
1717857657043565800,7.03056591796875,0.004238953348249197,0.008423578925430775,-0.007739944849163294
1717857657053606700,7.040606689453125,0.0025249430909752846,0.009010539390146732,-0.004001133143901825
1717857657063647700,7.050647705078125,0.005357747431844473,0.00899882148951292,-0.0054307179525494576
1717857657073688800,7.060688720703125,0.004001399502158165,0.010200971737504005,-0.004939364735037088
1717857657083729000,7.07072900390625,0.0034876756835728884,0.009971673600375652,-0.007587079424411058
1717857657093769700,7.080769775390625,0.0038573225028812885,0.009308546781539917,-0.005290635861456394
1717857657103810800,7.090810791015625,0.0033694314770400524,0.009271794930100441,-0.006072273477911949
1717857657113852000,7.100851806640625,0.003719370812177658,0.009605489671230316,-0.005079979542642832
1717857657123892700,7.110892822265625,0.003960120491683483,0.008100003935396671,-0.005709550809115171
1717857657133933800,7.120933837890625,0.003640541108325124,0.009948504157364368,-0.004480502102524042
1717857657143974700,7.130974609375,0.0022921827621757984,0.009307481348514557,-0.005846970248967409
1717857657154015700,7.141015625,0.0032495891209691763,0.007830492220818996,-0.005142297595739365
1717857657164056800,7.151056884765625,0.003721501212567091,0.008882175199687481,-0.005322860088199377
1717857657174097700,7.16109765625,0.0037201696541160345,0.009638778865337372,-0.007364172954112291
1717857657184138800,7.171138671875,0.003090598387643695,0.0070278155617415905,-0.005209409166127443
1717857657194179800,7.181179931640625,0.0034059167373925447,0.009615343064069748,-0.006102900020778179
1717857657204220700,7.191220703125,0.002918025478720665,0.009253153577446938,-0.006360427476465702
1717857657214261800,7.20126171875,0.004835501778870821,0.010570619255304337,-0.004780906718224287
1717857657224302800,7.211302734375,0.004553738981485367,0.009899768978357315,-0.00621129060164094
1717857657234343700,7.22134375,0.004277835600078106,0.010072074830532074,-0.0048951562494039536
1717857657244384800,7.231384765625,0.003605653764680028,0.010142648592591286,-0.006529804784804583
1717857657254425900,7.24142578125,0.004247475415468216,0.007281348574906588,-0.007408914156258106
1717857657264466700,7.251466796875,0.002910568844527006,0.007723699789494276,-0.005583583377301693
1717857657274507800,7.2615078125,0.0025369273498654366,0.008578041568398476,-0.00592686515301466
1717857657284548900,7.271548828125,0.004048004746437073,0.008445682935416698,-0.0049521480686962605
1717857657294589700,7.281589599609375,0.004749215207993984,0.007918909192085266,-0.005461610853672028
1717857657304630800,7.291630859375,0.005259210709482431,0.009369533509016037,-0.006914631463587284
1717857657314671900,7.301671875,0.005193696822971106,0.009247826412320137,-0.005571066867560148
1717857657324712700,7.311712646484375,0.004280498716980219,0.008460063487291336,-0.006898385938256979
1717857657334753800,7.32175390625,0.003157443832606077,0.00836925022304058,-0.004877845756709576
1717857657344794600,7.331794677734375,0.0031337416730821133,0.010782606899738312,-0.004854942671954632
1717857657354834700,7.341834716796875,0.0043920851312577724,0.009490174241364002,-0.004864263813942671
1717857657364876800,7.351876708984375,0.003085005795583129,0.009133044630289078,-0.0041161817498505116
1717857657374916900,7.361916748046875,0.003011236200109124,0.00866352953016758,-0.007267233915627003
1717857657384957700,7.371957763671875,0.004473311826586723,0.009813215583562851,-0.006459231022745371
1717857657394998800,7.381998779296875,0.0037433390971273184,0.008914398960769176,-0.005612611770629883
1717857657405039900,7.392039794921875,0.00500940578058362,0.009195095859467983,-0.004736964590847492
1717857657415080700,7.402080810546875,0.002633866388350725,0.009162605740129948,-0.006579872220754623
1717857657425121800,7.412121826171875,0.0038661109283566475,0.007847536355257034,-0.0075718993321061134
1717857657435163000,7.422162841796875,0.00487331859767437,0.008766593411564827,-0.007236607372760773
1717857657445203700,7.43220361328125,0.00430180411785841,0.00896739587187767,-0.00558118661865592
1717857657455244800,7.442244873046875,0.0054573495872318745,0.008328770287334919,-0.005736981518566608
1717857657465286000,7.452285888671875,0.003847202518954873,0.0084877610206604,-0.006520750001072884
1717857657475326700,7.46232666015625,0.0025885924696922302,0.009159675799310207,-0.006190517917275429
1717857657485367800,7.472367919921875,0.004578240215778351,0.008717059157788754,-0.006740460637956858
1717857657495409000,7.482408935546875,0.00464668357744813,0.009752762503921986,-0.005727127660065889
1717857657505449700,7.49244970703125,0.004312989301979542,0.009555421769618988,-0.005212072748690844
1717857657515490800,7.50249072265625,0.005327919963747263,0.00824780948460102,-0.004277302883565426
1717857657525531600,7.51253173828125,0.0043835630640387535,0.008077899925410748,-0.0062794676050543785
1717857657535572700,7.52257275390625,0.0032237565610557795,0.010276606306433678,-0.006432066671550274
1717857657545613800,7.53261376953125,0.004334028344601393,0.009690710343420506,-0.0049521480686962605
1717857657555654700,7.542654541015625,0.004749481566250324,0.009513876400887966,-0.005283711478114128
1717857657565695700,7.55269580078125,0.0038189729675650597,0.008504272438585758,-0.007604389917105436
1717857657575736800,7.56273681640625,0.004544151946902275,0.008079764433205128,-0.007056578062474728
1717857657585777700,7.572777587890625,0.0029880667570978403,0.009528257884085178,-0.006564425770193338
1717857657595818800,7.58281884765625,0.003992877434939146,0.008737831376492977,-0.005942843854427338
1717857657605859800,7.59285986328125,0.003132942598313093,0.010390322655439377,-0.005800630897283554
1717857657615900700,7.602900634765625,0.004507932811975479,0.009245430119335651,-0.006058957893401384
1717857657625941800,7.612941650390625,0.00299259414896369,0.007723167072981596,-0.005150287412106991
1717857657635981800,7.62298193359375,0.004156128969043493,0.008957542479038239,-0.006391586735844612
1717857657646023000,7.63302294921875,0.003485811408609152,0.00974423997104168,-0.005304484162479639
1717857657656063700,7.643063720703125,0.002445048186928034,0.010498447343707085,-0.0067814732901751995
1717857657666104800,7.653104736328125,0.004756405483931303,0.009212672710418701,-0.005900499876588583
1717857657676146000,7.66314599609375,0.0028445222415030003,0.007125553674995899,-0.007657120935618877
1717857657686186800,7.673186767578125,0.002519616624340415,0.010876882821321487,-0.006062153726816177
1717857657696227800,7.683227783203125,0.0031760858837515116,0.007890413515269756,-0.00564137427136302
1717857657706268700,7.6932685546875,0.005686647724360228,0.00869095977395773,-0.005356948357075453
1717857657716309800,7.703309814453125,0.00487225316464901,0.009240370243787766,-0.007692540530115366
1717857657726350800,7.713350830078125,0.004057325888425112,0.00863370206207037,-0.006134857889264822
1717857657736391700,7.7233916015625,0.004795554094016552,0.009078715927898884,-0.006079197861254215
1717857657746432800,7.733432861328125,0.004677309654653072,0.009727994911372662,-0.004803809802979231
1717857657756473900,7.743473876953125,0.005447496194392443,0.009574330411851406,-0.006876814644783735
1717857657766514700,7.7535146484375,0.004323908127844334,0.009610283188521862,-0.005568403284996748
1717857657776555800,7.7635556640625,0.003924434073269367,0.010098973289132118,-0.0065593658946454525
1717857657786596900,7.773596923828125,0.0034083134960383177,0.008265386335551739,-0.005873069167137146
1717857657796637700,7.7836376953125,0.0035545211285352707,0.0091732582077384,-0.006684001535177231
1717857657806678800,7.7936787109375,0.004244545940309763,0.010025735944509506,-0.004640558268874884
1717857657816720000,7.803719970703125,0.0048826392740011215,0.008971923030912876,-0.006413690745830536
1717857657826760700,7.8137607421875,0.0046874298714101315,0.008436627686023712,-0.006682403851300478
1717857657836801800,7.8238017578125,0.0037918086163699627,0.00944836251437664,-0.006879744119942188
1717857657846843000,7.8338427734375,0.006021939683705568,0.009184976108372211,-0.006385994143784046
1717857657856883700,7.8438837890625,0.004066913388669491,0.009032909758388996,-0.00657667638733983
1717857657866924800,7.8539248046875,0.0034410704392939806,0.00782543234527111,-0.006686664652079344
1717857657876966000,7.8639658203125,0.00410499656572938,0.007768440991640091,-0.005458947736769915
1717857657887006700,7.8740068359375,0.003865045728161931,0.009275790303945541,-0.0067780110985040665
1717857657897047800,7.8840478515625,0.0037207023706287146,0.008885370567440987,-0.004944957327097654
1717857657907088600,7.894088623046875,0.004787298385053873,0.009074188768863678,-0.006715959403663874
1717857657917129700,7.904129638671875,0.004402471706271172,0.00893623661249876,-0.005590241402387619
1717857657927169800,7.914169677734375,0.004349474795162678,0.008158061653375626,-0.00646642129868269
1717857657937211000,7.9242109375,0.0041092573665082455,0.008171110413968563,-0.004584631882607937
1717857657947251700,7.934251708984375,0.004593153949826956,0.008776979520916939,-0.00558092026039958
1717857657957292800,7.944292724609375,0.003233610186725855,0.009790845215320587,-0.006423011887818575
1717857657967334000,7.954333984375,0.0036424053832888603,0.008470184169709682,-0.005952697712928057
1717857657977374700,7.964374755859375,0.005172391422092915,0.009033975191414356,-0.004845621529966593
1717857657987415800,7.974415771484375,0.004905542824417353,0.008403871208429337,-0.00592500064522028
1717857657997457000,7.984456787109375,0.004349741153419018,0.00899695698171854,-0.005760417319834232
1717857658007497700,7.994497802734375,0.003725496120750904,0.007507983595132828,-0.006632070057094097
1717857658017538800,8.004538818359375,0.0037918086163699627,0.008975918404757977,-0.005825398489832878
1717857658027580000,8.014579833984374,0.00570023013278842,0.00911679957062006,-0.005818740464746952
1717857658037620700,8.024620849609375,0.003963582683354616,0.009258213452994823,-0.005151885095983744
1717857658047661800,8.034661865234375,0.004983040504157543,0.009890980087220669,-0.004412857815623283
1717857658057702700,8.04470263671875,0.0021552962716668844,0.010307764634490013,-0.005215002223849297
1717857658067743700,8.05474365234375,0.0033041839487850666,0.009592173621058464,-0.006234992761164904
1717857658077784800,8.064784912109374,0.005567871034145355,0.009305617772042751,-0.005403021350502968
1717857658087825700,8.07482568359375,0.0036645096261054277,0.008716526441276073,-0.007102117873728275
1717857658097866800,8.08486669921875,0.00333241350017488,0.009212939068675041,-0.0055063520558178425
1717857658107907800,8.094907958984376,0.004336691461503506,0.007789745926856995,-0.006082393694669008
1717857658117948700,8.10494873046875,0.004019509069621563,0.008229966275393963,-0.0057162088342010975
1717857658127989800,8.11498974609375,0.0016263924771919847,0.00902545265853405,-0.007386011071503162
1717857658138030800,8.12503076171875,0.0031585090328007936,0.00984224397689104,-0.005574794951826334
1717857658148071700,8.13507177734375,0.004977447912096977,0.008158061653375626,-0.005693039391189814
1717857658158112800,8.14511279296875,0.005138835404068232,0.008188687264919281,-0.005876265000551939
1717857658168153900,8.15515380859375,0.0030682277865707874,0.008817194029688835,-0.0037731665652245283
1717857658178194700,8.165194580078126,0.003546797903254628,0.00871945545077324,-0.0054152715019881725
1717857658188235800,8.17523583984375,0.005218996666371822,0.007640342693775892,-0.006646717432886362
1717857658198275800,8.18527587890625,0.0025427863001823425,0.009213471785187721,-0.006865363102406263
1717857658208317000,8.19531689453125,0.003325489116832614,0.008794290944933891,-0.005558283533900976
1717857658218357800,8.205357666015624,0.004780107643455267,0.008073639124631882,-0.005257346201688051
1717857658228398800,8.21539892578125,0.005832056514918804,0.009213471785187721,-0.005343632772564888
1717857658238439700,8.225439697265625,0.003600327530875802,0.008710667490959167,-0.00621208967640996
1717857658248480800,8.235480712890626,0.004532167688012123,0.008345814421772957,-0.004685565363615751
1717857658258521900,8.24552197265625,0.003906857222318649,0.008827580139040947,-0.005361475981771946
1717857658268562700,8.255562744140626,0.002920954953879118,0.009440906345844269,-0.005573197267949581
1717857658278603800,8.265603759765625,0.0027409254107624292,0.009546367451548576,-0.006222475785762072
1717857658288644900,8.275644775390624,0.004483697935938835,0.010577809065580368,-0.006684800609946251
1717857658298685700,8.285685791015625,0.0049737198278307915,0.009472597390413284,-0.004935370292514563
1717857658308726800,8.295726806640625,0.003491936717182398,0.009407349862158298,-0.004905809182673693
1717857658318767900,8.305767822265626,0.0038903458043932915,0.008284827694296837,-0.00603339122608304
1717857658328808700,8.31580859375,0.002380333375185728,0.01085610967129469,-0.00458809407427907
1717857658338849800,8.325849853515624,0.004923119675368071,0.007909854874014854,-0.005395564250648022
1717857658348891000,8.335890869140625,0.003924434073269367,0.009063536301255226,-0.007198257837444544
1717857658358931700,8.345931640625,0.0031438616570085287,0.00953731220215559,-0.0054243262857198715
1717857658368972800,8.355972900390626,0.005149221979081631,0.009651828557252884,-0.0035989959724247456
1717857658379014000,8.366013916015625,0.004448544234037399,0.010181797668337822,-0.005052282940596342
1717857658389054700,8.3760546875,0.003501524217426777,0.009312009438872337,-0.003975566942244768
1717857658399095800,8.386095703125,0.0037915424909442663,0.0080925477668643,-0.006903712637722492
1717857658409137000,8.396136962890624,0.004230431281030178,0.008346080780029297,-0.0052363071590662
1717857658419177700,8.406177734375,0.0049404301680624485,0.00827737059444189,-0.0075814868323504925
1717857658429218800,8.41621875,0.0034027209039777517,0.008989766240119934,-0.0052107409574091434
1717857658439259600,8.426259765625,0.0036756948102265596,0.009939982555806637,-0.004445614758878946
1717857658449300700,8.43630078125,0.004988367203623056,0.009607353247702122,-0.006813431158661842
1717857658459341800,8.446341796875,0.00296276668086648,0.008466455154120922,-0.007215036079287529
1717857658469382700,8.456382568359375,0.004736964590847492,0.00809334684163332,-0.00572925852611661
1717857658479423700,8.466423828125,0.00455693481490016,0.01050110999494791,-0.006388657260686159
1717857658489463800,8.4764638671875,0.004351072479039431,0.009798835031688213,-0.004962267819792032
1717857658499505000,8.4865048828125,0.0032722260802984238,0.009369799867272377,-0.005786782596260309
1717857658509545700,8.496545654296876,0.003229881636798382,0.007951400242745876,-0.005970807280391455
1717857658519586800,8.5065869140625,0.002543318783864379,0.008560997433960438,-0.005803028121590614
1717857658529628000,8.5166279296875,0.0031150993891060352,0.009157013148069382,-0.005900765769183636
1717857658539668700,8.526668701171875,0.0034320156555622816,0.00962892547249794,-0.006150304339826107
1717857658549709800,8.536709716796874,0.004938299767673016,0.007667773403227329,-0.007339938078075647
1717857658559751000,8.5467509765625,0.003993676509708166,0.008820123039186,-0.00628905463963747
1717857658569791700,8.556791748046875,0.004085821565240622,0.007870440371334553,-0.005754824727773666
1717857658579832800,8.566832763671876,0.0041092573665082455,0.009431584738194942,-0.005801962688565254
1717857658589873700,8.576873779296875,0.004191016778349876,0.009386844001710415,-0.0068086376413702965
1717857658599914800,8.586914794921874,0.003070891136303544,0.010015349835157394,-0.006486129015684128
1717857658609955800,8.596955810546875,0.0031212246976792812,0.007958324626088142,-0.0065500447526574135
1717857658619996700,8.60699658203125,0.0020325244404375553,0.009558085352182388,-0.006661364808678627
1717857658630037800,8.617037841796876,0.004775047767907381,0.008928514085710049,-0.0064893243834376335
1717857658640078800,8.627078857421875,0.0036035231314599514,0.007951932959258556,-0.004588626325130463
1717857658650119700,8.63711962890625,0.005034706089645624,0.00936074461787939,-0.005544967483729124
1717857658660160800,8.647160888671875,0.0037563887890428305,0.008645686320960522,-0.0060110208578407764
1717857658670201900,8.657201904296874,0.0041223070584237576,0.008472580462694168,-0.007035805378109217
1717857658680242700,8.66724267578125,0.005527656991034746,0.00896846130490303,-0.0052355085499584675
1717857658690283800,8.67728369140625,0.0028727517928928137,0.010298443958163261,-0.006599313113838434
1717857658700324900,8.687324951171876,0.004188087303191423,0.007385211996734142,-0.006521548610180616
1717857658710365700,8.69736572265625,0.005302886478602886,0.009558085352182388,-0.0049510826356709
1717857658720406800,8.70740673828125,0.0019417107105255127,0.00891146995127201,-0.005049619823694229
1717857658730448000,8.71744775390625,0.004072505980730057,0.009294698014855385,-0.005693838465958834
1717857658740488700,8.72748876953125,0.0038149782922118902,0.00836658664047718,-0.005366802215576172
1717857658750529800,8.73752978515625,0.005605954211205244,0.008330367505550385,-0.005375324282795191
1717857658760571000,8.74757080078125,0.005118329077959061,0.00965635571628809,-0.005528189707547426
1717857658770610700,8.757610595703126,0.005390238016843796,0.008839031681418419,-0.006238188594579697
1717857658780651800,8.76765185546875,0.0035356127191334963,0.009343167766928673,-0.005422195885330439
1717857658790692900,8.77769287109375,0.004489024169743061,0.008835569024085999,-0.005784385837614536
1717857658800733700,8.787733642578125,0.003513242118060589,0.008762066252529621,-0.005657619331032038
1717857658810774800,8.79777490234375,0.003719637170433998,0.009241701103746891,-0.0049460227601230145
1717857658820816000,8.80781591796875,0.004026167094707489,0.009530121460556984,-0.005138835404068232
1717857658830856700,8.817856689453125,0.004138285759836435,0.006719421595335007,-0.005030711181461811
1717857658840897800,8.827897705078126,0.004854409955441952,0.009439840912818909,-0.006073605269193649
1717857658850939000,8.83793896484375,0.0017635452095419168,0.009455286897718906,-0.005020591430366039
1717857658860979700,8.847979736328124,0.00446984963491559,0.009544502943754196,-0.007367368787527084
1717857658871020800,8.858020751953125,0.00344506511464715,0.009368201717734337,-0.005583583377301693
1717857658881062000,8.868061767578125,0.004048803821206093,0.009209477342665195,-0.005358013790100813
1717857658891102700,8.878102783203126,0.0037057886365801096,0.008351939730346203,-0.006204099860042334
1717857658901143800,8.888143798828125,0.004495149478316307,0.009326656349003315,-0.0062400526367127895
1717857658911185000,8.898184814453124,0.004282363224774599,0.00953891035169363,-0.004969458561390638
1717857658921225700,8.908225830078125,0.0029672940727323294,0.009388442151248455,-0.00512711750343442
1717857658931266800,8.918266845703124,0.005088235717266798,0.008857673965394497,-0.006353237200528383
1717857658941308000,8.928307861328125,0.00413509039208293,0.009603891521692276,-0.0060024987906217575
1717857658951348700,8.9383486328125,0.004291950259357691,0.009228119626641273,-0.005239236634224653
1717857658961389800,8.948389892578126,0.004267715383321047,0.010845723561942577,-0.006515157409012318
1717857658971430700,8.9584306640625,0.004024036228656769,0.008570052683353424,-0.005979862064123154
1717857658981471700,8.9684716796875,0.0037505298387259245,0.008617190644145012,-0.004748948849737644
1717857658991512800,8.978512939453125,0.004637628793716431,0.008084557950496674,-0.005663478281348944
1717857659001553700,8.9885537109375,0.005105812568217516,0.008609200827777386,-0.004740959499031305
1717857659011594800,8.9985947265625,0.004548412747681141,0.008833172731101513,-0.005832855589687824
1717857659021635800,9.0086357421875,0.0029667613562196493,0.00782809592783451,-0.006228867452591658
1717857659031676700,9.0186767578125,0.003968642558902502,0.008254467509686947,-0.005934055428951979
1717857659041716200,9.02871630859375,0.0027105652261525393,0.00947792362421751,-0.005738579668104649
1717857659051757000,9.038757080078126,0.0041462755762040615,0.008976717479526997,-0.007661648094654083
1717857659061798400,9.04879833984375,0.0030368026345968246,0.00860041193664074,-0.0041734399273991585
1717857659071839200,9.058839111328124,0.0028599686920642853,0.009223326109349728,-0.005769205745309591
1717857659081880300,9.06888037109375,0.003561445279046893,0.009462211281061172,-0.006876281928271055
1717857659091921400,9.07892138671875,0.0030514500103890896,0.00908510759472847,-0.006071208510547876
1717857659101962200,9.088962158203126,0.00529463030397892,0.009354619309306145,-0.006645918358117342
1717857659112003300,9.09900341796875,0.0038597192615270615,0.007670436520129442,-0.005331115797162056
1717857659122044400,9.10904443359375,0.003418966196477413,0.009236641228199005,-0.005886384751647711
1717857659132085200,9.119085205078125,0.0030956584960222244,0.00974210910499096,-0.005397694651037455
1717857659142126300,9.129126220703125,0.0032533176708966494,0.009015599265694618,-0.00523604080080986
1717857659152167400,9.13916748046875,0.003233343828469515,0.00974423997104168,-0.006399309728294611
1717857659162208300,9.149208251953125,0.0035057852510362864,0.00875141378492117,-0.005536978133022785
1717857659172249300,9.159249267578126,0.004475974943488836,0.008070443756878376,-0.006158027332276106
1717857659182290400,9.16929052734375,0.002823217073455453,0.008860070258378983,-0.004923652391880751
1717857659192331300,9.179331298828124,0.005136971361935139,0.008191084489226341,-0.006676278542727232
1717857659202372400,9.189372314453125,0.0030035129748284817,0.010090717114508152,-0.005155613645911217
1717857659212413200,9.1994130859375,0.002861832967028022,0.008685100823640823,-0.006886934395879507
1717857659222454300,9.209454345703126,0.0037262949626892805,0.00911653321236372,-0.006088785361498594
1717857659232495400,9.219495361328125,0.004844822455197573,0.00942253042012453,-0.00532632227987051
1717857659242536200,9.2295361328125,0.004999818746000528,0.008897621184587479,-0.005970540922135115
1717857659252577300,9.239577392578125,0.0027438548859208822,0.009426258504390717,-0.004677842371165752
1717857659262618400,9.249618408203125,0.003668237943202257,0.00891067087650299,-0.005951632279902697
1717857659272659200,9.2596591796875,0.0037771612405776978,0.00911253783851862,-0.005953496787697077
1717857659282700300,9.2697001953125,0.0057191383093595505,0.0090542146936059,-0.006396646611392498
1717857659292741400,9.279741455078126,0.004211523104459047,0.008461661636829376,-0.005495166406035423
1717857659302782200,9.2897822265625,0.0043563987128436565,0.009454221464693546,-0.005973204039037228
1717857659312823300,9.2998232421875,0.0035864789970219135,0.00948191899806261,-0.006128732580691576
1717857659322863000,9.309863037109375,0.0037880802992731333,0.009353553876280785,-0.006307430565357208
1717857659332904200,9.319904296875,0.0034232272300869226,0.008723184466362,-0.004777178168296814
1717857659342945000,9.329945068359375,0.002416019793599844,0.009076053276658058,-0.006647250149399042
1717857659352986000,9.339986083984375,0.0025965820532292128,0.008230232633650303,-0.006041381042450666
1717857659363027500,9.35002734375,0.003120425855740905,0.008331432938575745,-0.004256263840943575
1717857659373068300,9.360068359375,0.003650128608569503,0.009187639690935612,-0.005835518706589937
1717857659383109400,9.370109375,0.0034434671979397535,0.008260592818260193,-0.00433056615293026
1717857659393150200,9.380150146484375,0.0037758296821266413,0.009682455100119114,-0.004376638680696487
1717857659403191300,9.39019140625,0.002865294925868511,0.010187390260398388,-0.004470914602279663
1717857659413232400,9.400232421875,0.003963316325098276,0.009277121163904667,-0.007259510923177004
1717857659423273200,9.410273193359375,0.003739610780030489,0.007980428636074066,-0.00574843306094408
1717857659433314300,9.420314208984376,0.0033569145016372204,0.009015066549181938,-0.007318899035453796
1717857659443355400,9.43035546875,0.003946538548916578,0.009693107567727566,-0.006305300164967775
1717857659453396200,9.440396240234374,0.004677576012909412,0.009616941213607788,-0.004924451000988483
1717857659463437300,9.450437255859375,0.003768372815102339,0.009948237799108028,-0.005806223955005407
1717857659473478400,9.460478515625,0.004402471706271172,0.00827657151967287,-0.006076801102608442
1717857659483519200,9.470519287109376,0.001862348522990942,0.008703476749360561,-0.006043777801096439
1717857659493560300,9.480560302734375,0.004378503188490868,0.010120544582605362,-0.006439789664000273
1717857659503601400,9.490601318359374,0.005140433553606272,0.009492038749158382,-0.00598572101444006
1717857659513642200,9.500642333984375,0.0044141896069049835,0.008165517821907997,-0.0070555126294493675
1717857659523683300,9.510683349609375,0.004686630796641111,0.008204933255910873,-0.006826214492321014
1717857659533724400,9.520724365234376,0.0034376082476228476,0.008126636035740376,-0.006022472400218248
1717857659543765200,9.53076513671875,0.005341768264770508,0.008282963186502457,-0.0047058057971298695
1717857659553806300,9.540806396484374,0.0030836742371320724,0.007719704881310463,-0.005306348204612732
1717857659563847400,9.550847412109375,0.002323341788724065,0.008755141869187355,-0.0065649584867060184
1717857659573888300,9.56088818359375,0.004608334042131901,0.009229451417922974,-0.00663606496527791
1717857659583929300,9.570929443359375,0.005314071662724018,0.009403089061379433,-0.005048554390668869
1717857659593969200,9.58096923828125,0.003922303672879934,0.008640626445412636,-0.005282646510750055
1717857659604010000,9.591010009765625,0.006315952632576227,0.008183094672858715,-0.004540157038718462
1717857659614051000,9.601051025390625,0.0043771713972091675,0.009247294627130032,-0.004236023873090744
1717857659624092200,9.611092041015626,0.003500725142657757,0.008539159782230854,-0.006611830089241266
1717857659634133000,9.621133056640625,0.004343882203102112,0.009238505735993385,-0.004220843780785799
1717857659644174000,9.631174072265624,0.003742007538676262,0.008569786325097084,-0.005339105147868395
1717857659654215200,9.641215087890625,0.004452272783964872,0.008881908841431141,-0.006894924212247133
1717857659664256000,9.651256103515625,0.0037265613209456205,0.00857511255890131,-0.00672368286177516
1717857659674297300,9.66129736328125,0.0018977685831487179,0.009884588420391083,-0.006938067264854908
1717857659684338400,9.67133837890625,0.004756139125674963,0.009375392459332943,-0.005917277652770281
1717857659694379300,9.681379150390624,0.004387557972222567,0.008344216272234917,-0.005364938173443079
1717857659704420400,9.69142041015625,0.004024568945169449,0.009072057902812958,-0.004896754398941994
1717857659714461400,9.70146142578125,0.003240001853555441,0.008666458539664745,-0.007092796731740236
1717857659724502300,9.711502197265625,0.003975300583988428,0.008567389100790024,-0.006580670829862356
1717857659734543400,9.72154345703125,0.003980094101279974,0.008804144337773323,-0.005529787857085466
1717857659744584400,9.73158447265625,0.0038485340774059296,0.00959510263055563,-0.005775863770395517
1717857659754625300,9.741625244140625,0.0023209447972476482,0.010537595488131046,-0.0067995828576385975
1717857659764666400,9.751666259765624,0.002779541304334998,0.009090966545045376,-0.005163869354873896
1717857659774707200,9.761707275390625,0.004861067980527878,0.009387643076479435,-0.005489573813974857
1717857659784748300,9.771748291015625,0.004323641769587994,0.009211075492203236,-0.006331399083137512
1717857659794789400,9.781789306640626,0.0041342913173139095,0.007722634356468916,-0.00609224708750844
1717857659804830200,9.791830322265625,0.003744937013834715,0.009108277037739754,-0.005143629387021065
1717857659814871300,9.801871337890624,0.002807770622894168,0.011036405339837074,-0.004736165516078472
1717857659824912400,9.811912353515625,0.00427357479929924,0.009484048932790756,-0.006057626102119684
1717857659834953200,9.821953125,0.002222940558567643,0.010303770191967487,-0.006036587059497833
1717857659844994300,9.831994384765625,0.005025118589401245,0.00950748473405838,-0.006721286103129387
1717857659855035400,9.842035400390625,0.003029345767572522,0.008773784153163433,-0.006690659560263157
1717857659865076200,9.852076171875,0.003906324505805969,0.00960016343742609,-0.007678692229092121
1717857659875117300,9.862117431640625,0.003570500062778592,0.009355684742331505,-0.005478388629853725
1717857659885157000,9.8721572265625,0.0028935244772583246,0.009365804493427277,-0.0057100835256278515
1717857659895198200,9.8821982421875,0.0028644960839301348,0.00926114246249199,-0.005988650489598513
1717857659905239000,9.892239013671874,0.004157460760325193,0.00788641907274723,-0.0048829056322574615
1717857659915280100,9.902280029296875,0.0021377194207161665,0.008246478624641895,-0.005037102848291397
1717857659925321200,9.9123212890625,0.0031526500824838877,0.009967412799596786,-0.006521814968436956
1717857659935362000,9.922362060546876,0.003465571440756321,0.008114119060337543,-0.006098372396081686
1717857659945403100,9.932403076171875,0.003982224967330694,0.008983374573290348,-0.0059598879888653755
1717857659955444200,9.9424443359375,0.004761199466884136,0.009286176413297653,-0.006518885493278503
1717857659965485000,9.952485107421875,0.003359045134857297,0.008038485422730446,-0.006114351563155651
1717857659975526400,9.9625263671875,0.00282055395655334,0.009130114689469337,-0.005370264407247305
1717857659985567200,9.972567138671875,0.0050687943585217,0.00857324805110693,-0.005950034596025944
1717857659995608300,9.9826083984375,0.004355333745479584,0.010043046437203884,-0.0049510826356709
1717857660005649400,9.9926494140625,0.0038365498185157776,0.009733054786920547,-0.00498170917853713
1717857660015690200,10.002690185546875,0.0011028150329366326,0.010024670511484146,-0.007817975245416164
1717857660025731300,10.0127314453125,0.003835218260064721,0.009110674262046814,-0.006568686570972204
1717857660035772400,10.0227724609375,0.0037936728913336992,0.009265669621527195,-0.005524727515876293
1717857660045813200,10.032813232421875,0.0035089810844510794,0.008443019352853298,-0.006366552785038948
1717857660055854300,10.042854248046876,0.0034639735240489244,0.009334113448858261,-0.005690642632544041
1717857660065895400,10.0528955078125,0.004291417542845011,0.009518137201666832,-0.0037822213489562273
1717857660075936300,10.062936279296874,0.00526640098541975,0.0072717610746622086,-0.007481351960450411
1717857660085977300,10.072977294921875,0.0030064424499869347,0.008625179529190063,-0.005109274294227362
1717857660096018400,10.083018310546874,0.004496747627854347,0.009306682273745537,-0.0052056810818612576
1717857660106059300,10.093059326171876,0.004513791762292385,0.009032909758388996,-0.004960670135915279
1717857660116100400,10.103100341796875,0.005113002844154835,0.009063802659511566,-0.0061521683819592
1717857660126141200,10.11314111328125,0.005361742340028286,0.00785765703767538,-0.007383081596344709
1717857660136182300,10.123182373046875,0.003602457931265235,0.008810802362859249,-0.0065042381174862385
1717857660146223400,10.133223388671874,0.004824316129088402,0.010155165567994118,-0.00624058535322547
1717857660156264200,10.14326416015625,0.004792358260601759,0.00857111718505621,-0.005450425669550896
1717857660166304300,10.15330419921875,0.004455468617379665,0.008930644020438194,-0.006099171470850706
1717857660176345300,10.163345458984375,0.004459196701645851,0.008986304514110088,-0.004926847759634256
1717857660186386400,10.173386474609375,0.003441869281232357,0.008703476749360561,-0.0067966533824801445
1717857660196427300,10.18342724609375,0.004768922459334135,0.011167965829372406,-0.0057281930930912495
1717857660206468400,10.19346826171875,0.0046456181444227695,0.010451309382915497,-0.006031793542206287
1717857660216509400,10.203509521484374,0.0027379959356039762,0.01031575445085764,-0.004110322799533606
1717857660226550300,10.21355029296875,0.0034738273825496435,0.009393768385052681,-0.004099936690181494
1717857660236591400,10.22359130859375,0.0049460227601230145,0.008894424885511398,-0.008097607642412186
1717857660246632400,10.233632568359376,0.004466387443244457,0.008438758552074432,-0.00512951472774148
1717857660256673300,10.24367333984375,0.004688761197030544,0.009409480728209019,-0.00743101816624403
1717857660266714400,10.25371435546875,0.003909786697477102,0.008280300535261631,-0.006804376374930143
1717857660276755500,10.26375537109375,0.003951598424464464,0.009122125804424286,-0.006893592420965433
1717857660286796300,10.27379638671875,0.004723116289824247,0.009638512507081032,-0.007217166479676962
1717857660296837400,10.28383740234375,0.004253068007528782,0.00936047825962305,-0.005286374595016241
1717857660306878200,10.293878173828125,0.003722033929079771,0.00944782979786396,-0.006318349856883287
1717857660316919300,10.303919189453126,0.006134325172752142,0.006855242885649204,-0.005960420705378056
1717857660326960400,10.31396044921875,0.0018612833227962255,0.009141034446656704,-0.006442186422646046
1717857660337001200,10.324001220703124,0.0036554548423737288,0.01002280693501234,-0.0057196710258722305
1717857660347042300,10.334042236328125,0.004897020757198334,0.008898420259356499,-0.006404635962098837
1717857660357083400,10.34408349609375,0.0035305526107549667,0.010118680074810982,-0.006524744443595409
1717857660367124200,10.354124267578126,0.004308994393795729,0.009351423941552639,-0.00538517814129591
1717857660377165300,10.364165283203125,0.0037348170299082994,0.008432633243501186,-0.005124720744788647
1717857660387206400,10.374206298828126,0.003081277245655656,0.009168198332190514,-0.004698615055531263
1717857660397247200,10.384247314453125,0.004372910596430302,0.0093317162245512,-0.00509942090138793
1717857660407288300,10.394288330078124,0.004579572007060051,0.010546917095780373,-0.004444282967597246
1717857660417329400,10.404329345703125,0.005309277679771185,0.01070697233080864,-0.0035294874105602503
1717857660427370200,10.414370361328125,0.0020327907986938953,0.008006527088582516,-0.004194744862616062
1717857660437410300,10.424410400390625,0.0034139060880988836,0.009153816848993301,-0.006625412032008171
1717857660447451400,10.434451416015625,0.0037585191894322634,0.00905394833534956,-0.007184675894677639
1717857660457492200,10.4444921875,0.004772118292748928,0.010481935925781727,-0.005948436446487904
1717857660467533300,10.454533203125,0.004914597608149052,0.009108543395996094,-0.003716441337019205
1717857660477574400,10.464574462890624,0.0036730316933244467,0.009288839064538479,-0.004313788376748562
1717857660487615200,10.474615234375,0.004200870171189308,0.009126652963459492,-0.0062219430692493916
1717857660497656300,10.48465625,0.004533499013632536,0.007488009985536337,-0.005783853121101856
1717857660507697400,10.494697509765626,0.005863481666892767,0.009784719906747341,-0.006139917764812708
1717857660517738200,10.50473828125,0.003710049670189619,0.008499745279550552,-0.006776147056370974
1717857660527779300,10.514779296875,0.005086903925985098,0.009169796481728554,-0.006536195985972881
1717857660537820400,10.5248203125,0.004509796854108572,0.008681905455887318,-0.004310059826821089
1717857660547861200,10.534861328125,0.0026016421616077423,0.007940747775137424,-0.0059875850565731525
1717857660557902300,10.54490234375,0.0029196233954280615,0.009229717776179314,-0.005504753906279802
1717857660567943400,10.554943359375,0.0044200485572218895,0.009653160348534584,-0.004837898537516594
1717857660577984300,10.564984375,0.003980893176048994,0.008978847414255142,-0.007849667221307755
1717857660588025300,10.575025390625,0.004424575716257095,0.008192149922251701,-0.00632127933204174
1717857660598066400,10.58506640625,0.0029819414485245943,0.007571633439511061,-0.005766276270151138
1717857660608107300,10.595107177734375,0.004916728008538485,0.009308813139796257,-0.005425125360488892
1717857660618148400,10.6051484375,0.00355904852040112,0.008048072457313538,-0.00424294825643301
1717857660628189400,10.615189453125,0.004347876645624638,0.009042230434715748,-0.005576925817877054
1717857660638230300,10.625230224609375,0.001844771672040224,0.008333563804626465,-0.005707953125238419
1717857660648271400,10.635271240234376,0.003940146882086992,0.008985505439341068,-0.0070885359309613705
1717857660658312400,10.6453125,0.003341468283906579,0.009945841506123543,-0.0054664043709635735
1717857660668353300,10.655353271484374,0.002817890839651227,0.007762848399579525,-0.00424268189817667
1717857660678394400,10.665394287109375,0.004625111818313599,0.00971814151853323,-0.0060152821242809296
1717857660688435200,10.675435302734375,0.004290885291993618,0.009383914060890675,-0.006455502472817898
1717857660698476300,10.685476318359376,0.0029292108956724405,0.008870723657310009,-0.006587062496691942
1717857660708516400,10.695516357421875,0.004445614758878946,0.008703210391104221,-0.0056983656249940395
1717857660718557400,10.705557373046876,0.004258128348737955,0.009702428244054317,-0.005323659162968397
1717857660728598300,10.715598388671875,0.004571049474179745,0.00905607920140028,-0.006142314523458481
1717857660738639400,10.725639404296874,0.002401372417807579,0.008560731075704098,-0.005605687852948904
1717857660748680400,10.735680419921875,0.0043987431563436985,0.008975385688245296,-0.006371080409735441
1717857660758721300,10.74572119140625,0.004052266012877226,0.008953280746936798,-0.0062158177606761456
1717857660768762400,10.755762451171876,0.003766508772969246,0.008980179205536842,-0.005298092495650053
1717857660778803500,10.765803466796875,0.003263703780248761,0.009012935683131218,-0.0062432484701275826
1717857660788844300,10.77584423828125,0.0035175031516700983,0.009166067466139793,-0.0057412427850067616
1717857660798885400,10.785885498046875,0.003698065411299467,0.009367402642965317,-0.0052355085499584675
1717857660808926500,10.795926513671875,0.0020096213556826115,0.009534649550914764,-0.003385676769539714
1717857660818967300,10.80596728515625,0.003910852130502462,0.008263522759079933,-0.004926847759634256
1717857660829008400,10.81600830078125,0.004037085920572281,0.009152485989034176,-0.004807005636394024
1717857660839049200,10.82604931640625,0.004234692547470331,0.008537295274436474,-0.006376140285283327
1717857660849090300,10.83609033203125,0.0044054011814296246,0.008073372766375542,-0.004836566746234894
1717857660859131400,10.84613134765625,0.004424842074513435,0.008915198035538197,-0.005938849411904812
1717857660869172200,10.856172119140625,0.0030474551022052765,0.00977673102170229,-0.005244829226285219
1717857660879213300,10.86621337890625,0.003096457337960601,0.007752461824566126,-0.00589517317712307
1717857660889254400,10.87625439453125,0.0033422671258449554,0.009412409737706184,-0.005420598201453686
1717857660899295200,10.886295166015625,0.00478410255163908,0.008887767791748047,-0.005871205125004053
1717857660909336300,10.89633642578125,0.003996339626610279,0.009236374869942665,-0.005419266410171986
1717857660919377400,10.90637744140625,0.005143096670508385,0.008746620267629623,-0.00643659383058548
1717857660929418200,10.916418212890624,0.004064516630023718,0.008006527088582516,-0.005985986907035112
1717857660939459300,10.926459228515625,0.0017771273851394653,0.0098038949072361,-0.00631994754076004
1717857660949500400,10.93650048828125,0.002942526713013649,0.00957006961107254,-0.005567871034145355
1717857660959541200,10.946541259765626,0.0032866070978343487,0.009314938448369503,-0.005114600993692875
1717857660969582300,10.956582275390625,0.0029888655990362167,0.009109342470765114,-0.005540440324693918
1717857660979623400,10.96662353515625,0.0038402783684432507,0.00947872269898653,-0.006153766065835953
1717857660989664300,10.976664306640625,0.004682635888457298,0.009376457892358303,-0.005772667936980724
1717857660999704300,10.986704345703124,0.004715126473456621,0.009276589378714561,-0.00666402792558074
1717857661009745400,10.996745361328125,0.004543086513876915,0.009297894313931465,-0.006292516831308603
1717857661019786200,11.0067861328125,0.0041396175511181355,0.008569519966840744,-0.007149788551032543
1717857661029827300,11.016827392578126,0.005757487844675779,0.009357282891869545,-0.00634817685931921
1717857661039868400,11.026868408203125,0.0033505228348076344,0.009212406352162361,-0.005631520412862301
1717857661049909200,11.0369091796875,0.004117513541132212,0.009315471164882183,-0.005431517027318478
1717857661059950300,11.046950439453125,0.004372910596430302,0.008862201124429703,-0.003864246653392911
1717857661069991400,11.056991455078125,0.0029758161399513483,0.009351690299808979,-0.005636313930153847
1717857661080032300,11.0670322265625,0.003564108395949006,0.008127967827022076,-0.0072925337590277195
1717857661090073300,11.0770732421875,0.004299141000956297,0.009020126424729824,-0.005124188028275967
1717857661100114400,11.087114501953126,0.003281546989455819,0.008158328011631966,-0.006449110805988312
1717857661110155300,11.0971552734375,0.00387356779538095,0.007715444080531597,-0.0052325790748000145
1717857661120196400,11.1071962890625,0.0037169738207012415,0.006974020041525364,-0.004854676313698292
1717857661130237400,11.117237548828125,0.003980094101279974,0.009980462491512299,-0.006676811259239912
1717857661140278300,11.1272783203125,0.004343349486589432,0.008725847117602825,-0.005179049447178841
1717857661150319400,11.1373193359375,0.003949734382331371,0.008979912847280502,-0.00517691858112812
1717857661160360400,11.1473603515625,0.002936135046184063,0.009236907586455345,-0.006043511442840099
1717857661170401300,11.1574013671875,0.004551342222839594,0.008673116564750671,-0.005381449591368437
1717857661180442400,11.1674423828125,0.003937217406928539,0.009921340271830559,-0.005977198481559753
1717857661190483500,11.1774833984375,0.004022172186523676,0.008825449272990227,-0.004798749927431345
1717857661200524300,11.187524169921875,0.003686347510665655,0.008787632919847965,-0.005437908694148064
1717857661210565400,11.1975654296875,0.0033875408116728067,0.009758088737726212,-0.005151618737727404
1717857661220606200,11.207606201171876,0.003278883872553706,0.008861934766173363,-0.005483182147145271
1717857661230647300,11.217647216796875,0.002882871776819229,0.009927731938660145,-0.004584631882607937
1717857661240688400,11.2276884765625,0.0032053806353360415,0.010117881931364536,-0.0057407100684940815
1717857661250728400,11.237728515625,0.0035001926589757204,0.00811917893588543,-0.006683202926069498
1717857661260769300,11.247769287109374,0.005346029531210661,0.008801480755209923,-0.006458165589720011
1717857661270810400,11.257810302734375,0.0036434705834835768,0.009490973316133022,-0.005575327668339014
1717857661280851500,11.2678515625,0.00392736354842782,0.008257930167019367,-0.005151885095983744
1717857661290892300,11.277892333984376,0.00484295841306448,0.009855027310550213,-0.005677592940628529
1717857661300933400,11.287933349609375,0.004422445315867662,0.008211856707930565,-0.006309028714895248
1717857661310974500,11.297974365234374,0.0057676080614328384,0.008649414405226707,-0.004609399009495974
1717857661321015300,11.308015380859375,0.0046610645949840546,0.008671518415212631,-0.006706638727337122
1717857661331056400,11.318056396484375,0.0038874163292348385,0.009309345856308937,-0.006469350773841143
1717857661341097500,11.328097412109376,0.0049215215258300304,0.009854228235781193,-0.007244863547384739
1717857661351138300,11.33813818359375,0.005132976453751326,0.007585481740534306,-0.005760683678090572
1717857661361179400,11.348179443359374,0.004391552414745092,0.00911227148026228,-0.005588909611105919
1717857661371220200,11.35822021484375,0.002413090318441391,0.00942146498709917,-0.005525526590645313
1717857661381261300,11.36826123046875,0.003340669209137559,0.009402822703123093,-0.005313272587954998
1717857661391302400,11.378302490234375,0.003698331769555807,0.010147443041205406,-0.0044291033409535885
1717857661401343200,11.38834326171875,0.003447728231549263,0.010494984686374664,-0.004685565363615751
1717857661411384300,11.39838427734375,0.003297259798273444,0.007465905509889126,-0.005340170580893755
1717857661421425400,11.40842529296875,0.004216050263494253,0.0067423246800899506,-0.0057249972596764565
1717857661431466200,11.41846630859375,0.003266633255407214,0.00851732213050127,-0.005801429972052574
1717857661441507300,11.42850732421875,0.004706870764493942,0.008798285387456417,-0.00657534459605813
1717857661451548400,11.43854833984375,0.003156644757837057,0.009069661609828472,-0.005261341109871864
1717857661461589200,11.44858935546875,0.004133225884288549,0.009705091826617718,-0.006072539836168289
1717857661471630300,11.45863037109375,0.004801945760846138,0.007613178342580795,-0.005664277356117964
1717857661481671400,11.46867138671875,0.0030146983917802572,0.0073444657027721405,-0.006154831498861313
1717857661491712300,11.478712158203125,0.004404069390147924,0.008597482927143574,-0.0075849490240216255
1717857661501753300,11.48875341796875,0.002379534300416708,0.009741044603288174,-0.004985437728464603
1717857661511794400,11.49879443359375,0.0030455910600721836,0.008934373036026955,-0.005614209920167923
1717857661521835300,11.508835205078125,0.004571582190692425,0.009138637222349644,-0.006931941956281662
1717857661531876400,11.51887646484375,0.005637379363179207,0.009137838147580624,-0.005584382452070713
1717857661541916400,11.52891650390625,0.0028748824261128902,0.007862450554966927,-0.006023005116730928
1717857661551957200,11.538957275390626,0.004218979738652706,0.009725064970552921,-0.004893292207270861
1717857661561998300,11.548998291015625,0.003951065707951784,0.009033708833158016,-0.006549512036144733
1717857661572039400,11.559039306640624,0.004260791465640068,0.008946623653173447,-0.005643771030008793
1717857661582080300,11.569080322265625,0.002043177140876651,0.008317052386701107,-0.00618093041703105
1717857661592121300,11.579121337890625,0.0038000645581632853,0.009602826088666916,-0.006125803105533123
1717857661602162400,11.589162353515626,0.004986502695828676,0.00837031565606594,-0.006675479467958212
1717857661612203300,11.599203369140625,0.003424292430281639,0.009638512507081032,-0.005321794655174017
1717857661622244400,11.609244384765624,0.002124669961631298,0.009634251706302166,-0.004508199170231819
1717857661632285400,11.619285400390625,0.0035742283798754215,0.0072776200249791145,-0.0057622818276286125
1717857661642326300,11.629326171875,0.003946804907172918,0.008322644978761673,-0.0057479003444314
1717857661652367400,11.639367431640625,0.004051200579851866,0.008114651776850224,-0.005772667936980724
1717857661662408400,11.649408447265625,0.0033332123421132565,0.008290686644613743,-0.005594236310571432
1717857661672449300,11.65944921875,0.004515922162681818,0.009078449569642544,-0.005421929527074099
1717857661682490400,11.669490478515625,0.005078115500509739,0.009606820531189442,-0.007505054119974375
1717857661692531500,11.679531494140624,0.00567040266469121,0.008725580759346485,-0.005408347584307194
1717857661702572300,11.689572265625,0.005301021970808506,0.009294964373111725,-0.00640863087028265
1717857661712613400,11.69961328125,0.0035976641811430454,0.007420365698635578,-0.004926049150526524
1717857661722654500,11.709654541015626,0.0031158984638750553,0.008076834492385387,-0.005382248666137457
1717857661732695300,11.7196953125,0.0032357405871152878,0.007450193166732788,-0.005540440324693918
1717857661742736400,11.729736328125,0.002989398315548897,0.007495466619729996,-0.005887183826416731
1717857661752777200,11.739777099609375,0.00487225316464901,0.009494967758655548,-0.005286108236759901
1717857661762818300,11.749818359375,0.004867726005613804,0.009779127314686775,-0.00520727876573801
1717857661772859400,11.759859375,0.0047060721553862095,0.009755425155162811,-0.005976133514195681
1717857661782900200,11.769900146484375,0.005179582163691521,0.009245163761079311,-0.007156446576118469
1717857661792941300,11.77994140625,0.003631486324593425,0.008825449272990227,-0.0057135457172989845
1717857661802982400,11.789982421875,0.0044014062732458115,0.0083673857152462,-0.005804359447211027
1717857661813022500,11.8000224609375,0.0036064526066184044,0.009915747679769993,-0.006481068674474955
1717857661823063300,11.810063232421875,0.0036525253672152758,0.0085439532995224,-0.0065409899689257145
1717857661833104400,11.8201044921875,0.0028280108235776424,0.008769256994128227,-0.005290103144943714
1717857661843145500,11.8301455078125,0.003718571737408638,0.008274974301457405,-0.005056810099631548
1717857661853186300,11.840186279296875,0.0035779569298028946,0.009058210067451,-0.005218996666371822
1717857661863227400,11.850227294921876,0.003954527899622917,0.010124007239937782,-0.006045908201485872
1717857661873268500,11.8602685546875,0.003890878288075328,0.007703992538154125,-0.005952964071184397
1717857661883309300,11.870309326171874,0.0044232443906366825,0.009158344939351082,-0.004818723537027836
1717857661893350400,11.880350341796875,0.003960386849939823,0.008591091260313988,-0.00446958327665925
1717857661903391500,11.8903916015625,0.0036075180396437645,0.008385228924453259,-0.005143629387021065
1717857661913432300,11.900432373046876,0.0040887510403990746,0.009061938151717186,-0.004766259342432022
1717857661923473400,11.910473388671875,0.004344148561358452,0.00860494002699852,-0.005537244491279125
1717857661933514200,11.92051416015625,0.0018724685069173574,0.009417470544576645,-0.0065284729935228825
1717857661943555300,11.930555419921875,0.005357481073588133,0.009321862831711769,-0.007415572181344032
1717857661953596400,11.940596435546874,0.0029734193813055754,0.008863000199198723,-0.005086371209472418
1717857661963637200,11.95063720703125,0.003623496973887086,0.00911600049585104,-0.005269596818834543
1717857661973678300,11.96067822265625,0.0023166837636381388,0.009905627928674221,-0.005789978429675102
