time,seconds_elapsed,z,y,x
1717857795838487300,0.0404873046875,9.820865572357176,0.29388825378417965,0.044292730712890624
1717857795848528400,0.0505283203125,9.824007962036132,0.2932897033691406,0.041748891448974604
1717857795858569500,0.060569580078125,9.834482594299315,0.3012204963684082,0.03651157531738281
1717857795868609500,0.070609619140625,9.82610288848877,0.2950853546142578,0.03755903854370117
1717857795878650400,0.080650390625,9.823559049224853,0.28655601119995117,0.03815758895874023
1717857795888691500,0.09069140625,9.826851076507568,0.2911947769165039,0.03815758895874023
1717857795898732500,0.100732666015625,9.824157599639893,0.2877531120300293,0.02079962692260742
1717857795908773400,0.1107734375,9.843610488128661,0.27608137893676754,0.02977788314819336
1717857795918813400,0.1208134765625,9.833734406280517,0.2841618095397949,0.03561374969482422
1717857795928854500,0.1308544921875,9.832836580657958,0.28954876327514645,0.04129997863769531
1717857795938895400,0.140895263671875,9.835679695129395,0.2958335426330566,0.0378583137512207
1717857795948936400,0.1509365234375,9.82610288848877,0.29388825378417965,0.040701428222656245
1717857795958977500,0.1609775390625,9.82535470046997,0.3033154228210449,0.041000703430175776
1717857795969017600,0.171017578125,9.836876795959473,0.3024175971984863,0.02902969512939453
1717857795979058400,0.181058349609375,9.822810861206055,0.3113958534240722,0.04055179061889648
1717857795989099500,0.191099609375,9.813234054565429,0.30047230834960936,0.0430956298828125
1717857795999140600,0.201140625,9.810989490509032,0.2925415153503418,0.03531447448730469
1717857796009181400,0.211181396484375,9.824157599639893,0.29658173065185545,0.026186580657958983
1717857796019221500,0.221221435546875,9.83852280960083,0.2985270195007324,0.03621230010986328
1717857796029262600,0.2312626953125,9.845705414581298,0.30361469802856444,0.033818098449707026
1717857796039303400,0.241303466796875,9.833584768676758,0.2902969512939453,0.024390929412841794
1717857796049344500,0.251344482421875,9.803657247924804,0.2964320930480957,0.040402153015136714
1717857796059385600,0.261385498046875,9.810839852905273,0.3012204963684082,0.04219780426025391
1717857796069425700,0.27142578125,9.827599264526366,0.3055599868774414,0.03561374969482422
1717857796079466500,0.281466552734375,9.852139831542969,0.2882020248413086,0.03501519927978516
1717857796089507600,0.291507568359375,9.827599264526366,0.30256723480224607,0.02663549346923828
1717857796099548700,0.301548583984375,9.81248586654663,0.299424845123291,0.040102877807617184
1717857796109589500,0.311589599609375,9.820117384338378,0.2962824554443359,0.03037643356323242
1717857796119629300,0.32162939453125,9.840468098449707,0.30346506042480464,0.03426701126098632
1717857796129670400,0.33167041015625,9.852139831542969,0.30196868438720703,0.041000703430175776
1717857796139711500,0.34171142578125,9.828048177337646,0.304512523651123,0.04159925384521484
1717857796149752300,0.35175244140625,9.795576817321777,0.3067570877075195,0.0474351203918457
1717857796159793400,0.36179345703125,9.834781869506836,0.2925415153503418,0.047285482788085934
1717857796169833500,0.37183349609375,9.857975698089598,0.29703064346313474,0.036361937713623046
1717857796179874300,0.381874267578125,9.834632231903075,0.28924948806762696,0.029328970336914062
1717857796189915400,0.391915283203125,9.79991630783081,0.29718028106689454,0.028431144714355466
1717857796199956500,0.40195654296875,9.802310509490967,0.28535891036987304,0.03755903854370117
1717857796209997300,0.411997314453125,9.82610288848877,0.30466216125488277,0.048183308410644526
1717857796220038400,0.422038330078125,9.851541281127929,0.30526071166992186,0.03666121292114258
1717857796230078500,0.432078369140625,9.83208839263916,0.30092122116088865,0.035464112091064454
1717857796240119600,0.44211962890625,9.810241302490233,0.2985270195007324,0.03037643356323242
1717857796250160400,0.452160400390625,9.80665,0.29448680419921874,0.04638765716552734
1717857796260201500,0.462201416015625,9.834033681488037,0.2967313682556152,0.03666121292114258
1717857796270242600,0.47224267578125,9.834931507110594,0.2985270195007324,0.027383681488037107
1717857796280282600,0.48228271484375,9.824905787658691,0.29568390502929687,0.040701428222656245
1717857796290323500,0.492323486328125,9.814730430603026,0.29089550170898437,0.03725976333618164
1717857796300364500,0.502364501953125,9.81996774673462,0.2929904281616211,0.033219548034667964
1717857796310405400,0.5124052734375,9.83134020462036,0.30570962448120115,0.03621230010986328
1717857796320446500,0.522446533203125,9.839420635223387,0.2958335426330566,0.05776011505126953
1717857796330486500,0.532486572265625,9.823409411621093,0.28580782318115233,0.050727147674560547
1717857796340527600,0.542527587890625,9.820267021942138,0.2973299186706543,0.041748891448974604
1717857796350568400,0.552568359375,9.83223803024292,0.29403789138793945,0.036361937713623046
1717857796360609500,0.562609619140625,9.843460850524902,0.29568390502929687,0.02424129180908203
1717857796370650600,0.572650634765625,9.841515561676024,0.29074586410522457,0.02184709014892578
1717857796380690700,0.582690673828125,9.82505542526245,0.28535891036987304,0.038756139373779294
1717857796390731500,0.5927314453125,9.824456874847412,0.2911947769165039,0.037708676147460936
1717857796400772600,0.602772705078125,9.831040929412842,0.29927520751953124,0.03681085052490234
1717857796410813700,0.612813720703125,9.824756150054931,0.3022679595947265,0.05192424850463867
1717857796420854500,0.6228544921875,9.826701438903807,0.30840310134887694,0.049829322052001954
1717857796430895600,0.6328955078125,9.816077169036864,0.29882629470825195,0.046537294769287106
1717857796440935400,0.642935302734375,9.827449626922608,0.2916436897277832,0.04219780426025391
1717857796450976300,0.652976318359375,9.825953250885009,0.2947860794067383,0.03591302490234375
1717857796461017600,0.663017578125,9.83837317199707,0.2825157958984375,0.026485855865478514
1717857796471058700,0.67305859375,9.823858324432372,0.2911947769165039,0.03725976333618164
1717857796481099500,0.683099609375,9.813982242584228,0.296881005859375,0.02319382858276367
1717857796491139300,0.693139404296875,9.821464122772216,0.30466216125488277,0.0474351203918457
1717857796501180400,0.703180419921875,9.826252526092528,0.2964320930480957,0.0383072265625
1717857796511221500,0.713221435546875,9.836577520751952,0.2893991256713867,0.04279635467529297
1717857796521262300,0.723262451171875,9.832836580657958,0.28221652069091796,0.03800795135498047
1717857796531303400,0.733303466796875,9.820715934753418,0.2998737579345703,0.04339490509033203
1717857796541343500,0.743343505859375,9.822661223602294,0.3006219459533691,0.03651157531738281
1717857796551384600,0.753384521484375,9.82580361328125,0.2893991256713867,0.02154781494140625
1717857796561425400,0.76342529296875,9.832836580657958,0.2883516624450683,0.027682956695556638
1717857796571466500,0.773466552734375,9.828796365356444,0.297479556274414,0.0474351203918457
1717857796581507300,0.78350732421875,9.814431155395507,0.29269115295410153,0.03800795135498047
1717857796591547400,0.79354736328125,9.823708686828613,0.30885201416015623,0.03696048812866211
1717857796601588500,0.80358837890625,9.836128607940672,0.2920926025390625,0.03815758895874023
1717857796611629600,0.813629638671875,9.830143103790283,0.3000233955383301,0.04085106582641601
1717857796621670400,0.82367041015625,9.82550433807373,0.29568390502929687,0.040102877807617184
1717857796631711500,0.83371142578125,9.813982242584228,0.2914940521240234,0.03531447448730469
1717857796641752600,0.843752685546875,9.828796365356444,0.2914940521240234,0.033518823242187495
1717857796651792600,0.853792724609375,9.846004689788817,0.297479556274414,0.0383072265625
1717857796661833500,0.86383349609375,9.8319387550354,0.29553426742553707,0.032920272827148434
1717857796671874600,0.87387451171875,9.82580361328125,0.29658173065185545,0.04025251541137695
1717857796681915600,0.88391552734375,9.822212310791015,0.2967313682556152,0.03950432739257812
1717857796691956500,0.89395654296875,9.834781869506836,0.29703064346313474,0.035464112091064454
1717857796701996500,0.90399658203125,9.824307237243652,0.2937386161804199,0.03591302490234375
1717857796712037600,0.91403759765625,9.828946002960205,0.29089550170898437,0.035763387298583985
1717857796722078500,0.924078369140625,9.83134020462036,0.29448680419921874,0.02319382858276367
1717857796732119600,0.93411962890625,9.835829332733153,0.2882020248413086,0.024690204620361325
1717857796742160600,0.94416064453125,9.818770645904541,0.29448680419921874,0.039055414581298825
1717857796752200700,0.95420068359375,9.821613760375977,0.3007715835571289,0.033219548034667964
1717857796762241500,0.964241455078125,9.81936919631958,0.2995744827270508,0.044891281127929686
1717857796772282600,0.97428271484375,9.829095640563965,0.3001730331420898,0.034715924072265626
1717857796782323700,0.98432373046875,9.835679695129395,0.2998737579345703,0.04249707946777344
1717857796792364500,0.994364501953125,9.846453602600096,0.29837738189697266,0.04144961624145507
1717857796802404400,1.004404296875,9.83208839263916,0.2904465888977051,0.03067570877075195
1717857796812445400,1.014445556640625,9.832986218261718,0.29014731369018554,0.03411737365722656
1717857796822486500,1.024486572265625,9.836727158355712,0.29284079055786133,0.040701428222656245
1717857796832527400,1.03452734375,9.834931507110594,0.28655601119995117,0.03202244720458984
1717857796842568400,1.044568359375,9.824007962036132,0.2932897033691406,0.03725976333618164
1717857796852609300,1.054609375,9.826851076507568,0.29239187774658204,0.040701428222656245
1717857796862649300,1.0646494140625,9.832686943054199,0.3016694091796875,0.03980360260009765
1717857796872690400,1.0746904296875,9.836727158355712,0.29867665710449215,0.031124621582031248
1717857796882731500,1.0847314453125,9.829245278167724,0.30346506042480464,0.02498947982788086
1717857796892772400,1.0947724609375,9.83882208480835,0.2995744827270508,0.03411737365722656
1717857796902813400,1.1048134765625,9.814431155395507,0.304512523651123,0.04548983154296875
1717857796912853500,1.114853515625,9.824007962036132,0.29718028106689454,0.03531447448730469
1717857796922894600,1.12489453125,9.83792425918579,0.29179332733154295,0.037110125732421874
1717857796932935400,1.134935302734375,9.827150351715087,0.28865093765258787,0.032172084808349606
1717857796942976500,1.1449765625,9.827748902130127,0.29658173065185545,0.03681085052490234
1717857796953017600,1.155017578125,9.830442378997802,0.2976291938781738,0.0378583137512207
1717857796963058400,1.165058349609375,9.828497090148925,0.289848038482666,0.03531447448730469
1717857796973098500,1.175098388671875,9.822511585998535,0.2952349922180176,0.03621230010986328
1717857796983139600,1.1851396484375,9.731232647705077,0.2905962265014648,0.030526071166992186
1717857796993180400,1.195180419921875,9.836876795959473,0.2914940521240234,0.03755903854370117
1717857797003221500,1.205221435546875,9.91468834991455,0.28745383682250975,0.040402153015136714
1717857797013262600,1.2152626953125,9.865906491088866,0.28909985046386716,0.02259527816772461
1717857797023302700,1.225302734375,9.835679695129395,0.28805238723754883,0.043245267486572266
1717857797033343500,1.235343505859375,9.794978266906737,0.28012159423828126,0.037708676147460936
1717857797043384600,1.245384521484375,9.797372468566895,0.28745383682250975,0.023343466186523436
1717857797053425700,1.25542578125,9.848847804260254,0.3012204963684082,0.02858078231811523
1717857797063466500,1.265466552734375,9.866056128692627,0.3193266464233398,0.03127425918579101
1717857797073506600,1.275506591796875,9.830143103790283,0.3055599868774414,0.022296002960205077
1717857797083547600,1.285547607421875,9.795726454925537,0.3060088996887207,0.0326209976196289
1717857797093588500,1.29558837890625,9.803806885528564,0.30137013397216794,0.019003975677490233
1717857797103629600,1.305629638671875,9.840767373657226,0.29837738189697266,0.03396773605346679
1717857797113670700,1.315670654296875,9.852439106750488,0.2911947769165039,0.04474164352416992
1717857797123710500,1.32571044921875,9.83792425918579,0.2871545616149902,0.04189852905273437
1717857797133751300,1.335751220703125,9.796773918151855,0.3042132484436035,0.03591302490234375
1717857797143792400,1.34579248046875,9.81936919631958,0.3001730331420898,0.03995324020385742
1717857797153833500,1.35583349609375,9.85677859725952,0.2914940521240234,0.03516483688354492
1717857797163874300,1.365874267578125,9.842862300109863,0.3093009269714355,0.04055179061889648
1717857797173915400,1.375915283203125,9.814431155395507,0.30301614761352536,0.04578910675048828
1717857797183955200,1.385955078125,9.816376444244383,0.28640637359619137,0.04129997863769531
1717857797193996300,1.395996337890625,9.827748902130127,0.2904465888977051,0.03426701126098632
1717857797204037000,1.406037109375,9.83238766784668,0.28924948806762696,0.042945992279052735
1717857797214078200,1.416078125,9.827748902130127,0.28640637359619137,0.044592005920410155
1717857797224119300,1.426119384765625,9.830292741394043,0.2973299186706543,0.04219780426025391
1717857797234159000,1.4361591796875,9.809642752075195,0.2962824554443359,0.020201076507568357
1717857797244200200,1.4462001953125,9.808445651245117,0.2979284690856933,0.035763387298583985
1717857797254241300,1.4562412109375,9.819668471527098,0.2916436897277832,0.046537294769287106
1717857797264282000,1.4662822265625,9.81906992111206,0.2914940521240234,0.03172317199707031
1717857797274323200,1.4763232421875,9.83223803024292,0.2962824554443359,0.03561374969482422
1717857797284363300,1.48636328125,9.823409411621093,0.29822774429321286,0.03681085052490234
1717857797294404400,1.496404296875,9.828946002960205,0.28924948806762696,0.03725976333618164
1717857797304445200,1.506445068359375,9.83178911743164,0.3043628860473633,0.04144961624145507
1717857797314486300,1.516486328125,9.827599264526366,0.28909985046386716,0.03426701126098632
1717857797324527400,1.52652734375,9.818022457885741,0.2861070983886719,0.03127425918579101
1717857797334567400,1.5365673828125,9.82580361328125,0.3072060005187988,0.036361937713623046
1717857797344608300,1.546608154296875,9.821314485168456,0.2989759323120117,0.031124621582031248
1717857797354649300,1.5566494140625,9.830891291809081,0.2964320930480957,0.01780687484741211
1717857797364690200,1.566690185546875,9.830442378997802,0.2855085479736328,0.032920272827148434
1717857797374731300,1.576731201171875,9.827299989318847,0.2904465888977051,0.040701428222656245
1717857797384772400,1.5867724609375,9.830143103790283,0.2980781066894531,0.03920505218505859
1717857797394812400,1.5968125,9.824756150054931,0.28745383682250975,0.02902969512939453
1717857797404853200,1.606853271484375,9.820117384338378,0.3024175971984863,0.037110125732421874
1717857797414894300,1.616894287109375,9.824007962036132,0.2973299186706543,0.039055414581298825
1717857797424935400,1.626935302734375,9.82550433807373,0.3012204963684082,0.03995324020385742
1717857797434976300,1.636976318359375,9.820715934753418,0.29179332733154295,0.035763387298583985
1717857797445016300,1.647016357421875,9.814431155395507,0.3012204963684082,0.03651157531738281
1717857797455057400,1.657057373046875,9.815179343414306,0.2920926025390625,0.04638765716552734
1717857797465098500,1.667098388671875,9.821164847564697,0.28954876327514645,0.03486556167602539
1717857797475139300,1.677139404296875,9.832686943054199,0.30196868438720703,0.03142389678955078
1717857797485180400,1.687180419921875,9.822212310791015,0.3010708587646484,0.03531447448730469
1717857797495220200,1.69722021484375,9.842862300109863,0.29553426742553707,0.033818098449707026
1717857797505261000,1.707260986328125,9.83208839263916,0.2919429649353027,0.02319382858276367
1717857797515302100,1.71730224609375,9.839121360015868,0.3022679595947265,0.037409400939941405
1717857797525343200,1.72734326171875,9.83807389678955,0.29718028106689454,0.03681085052490234
1717857797535384000,1.737384033203125,9.83822353439331,0.30137013397216794,0.026785131072998045
1717857797545425200,1.747425048828125,9.833285493469237,0.29493571701049803,0.03696048812866211
1717857797555465200,1.75746533203125,9.830292741394043,0.3033154228210449,0.04144961624145507
1717857797565506300,1.76750634765625,9.835230782318115,0.30840310134887694,0.03621230010986328
1717857797575547100,1.777547119140625,9.827150351715087,0.30301614761352536,0.03456628646850586
1717857797585588200,1.787588134765625,9.830442378997802,0.2911947769165039,0.027084406280517576
1717857797595629300,1.79762939453125,9.840617736053467,0.29658173065185545,0.04189852905273437
1717857797605669400,1.80766943359375,9.842712662506102,0.3010708587646484,0.03980360260009765
1717857797615710200,1.817710205078125,9.819818109130859,0.2889502128601074,0.032172084808349606
1717857797625751300,1.827751220703125,9.820865572357176,0.28580782318115233,0.03591302490234375
1717857797635792100,1.837792236328125,9.820416659545899,0.28969840087890625,0.03232172241210937
1717857797645833200,1.847833251953125,9.842263749694824,0.3060088996887207,0.03247136001586914
1717857797655873300,1.857873291015625,9.826252526092528,0.2959831802368164,0.034715924072265626
1717857797665914400,1.867914306640625,9.836278245544433,0.3124433166503906,0.031124621582031248
1717857797675955200,1.877955078125,9.830143103790283,0.29553426742553707,0.03037643356323242
1717857797685996300,1.887996337890625,9.834332956695556,0.29882629470825195,0.038756139373779294
1717857797696037400,1.898037353515625,9.830442378997802,0.3012204963684082,0.042945992279052735
1717857797706078200,1.908078125,9.83178911743164,0.29867665710449215,0.03396773605346679
1717857797716118300,1.9181181640625,9.828347452545165,0.29403789138793945,0.03336918563842773
1717857797726159400,1.928159423828125,9.829394915771484,0.30885201416015623,0.03651157531738281
1717857797736200400,1.938200439453125,9.821015209960937,0.2962824554443359,0.03037643356323242
1717857797746241300,1.9482412109375,9.827299989318847,0.3024175971984863,0.03441664886474609
1717857797756282400,1.958282470703125,9.816675719451904,0.2964320930480957,0.045938744354248044
1717857797766322400,1.968322509765625,9.835230782318115,0.2953846298217773,0.037409400939941405
1717857797776363300,1.97836328125,9.834332956695556,0.2973299186706543,0.050128597259521485
1717857797786404400,1.988404296875,9.83238766784668,0.2867056488037109,0.03172317199707031
1717857797796445400,1.998445556640625,9.839570272827148,0.2967313682556152,0.04085106582641601
1717857797806486300,2.008486328125,9.827000714111328,0.2947860794067383,0.042048166656494135
1717857797816526000,2.018526123046875,9.833884043884277,0.29179332733154295,0.037409400939941405
1717857797826567200,2.028567138671875,9.824456874847412,0.309001651763916,0.028880057525634766
1717857797836608300,2.038608154296875,9.822511585998535,0.3051110740661621,0.0330699104309082
1717857797846649000,2.048649169921875,9.834632231903075,0.2877531120300293,0.04234744186401367
1717857797856690200,2.058690185546875,9.832686943054199,0.2998737579345703,0.026186580657958983
1717857797866731300,2.068731201171875,9.815328981018066,0.30301614761352536,0.032172084808349606
1717857797876771300,2.078771240234375,9.821613760375977,0.29343934097290036,0.042945992279052735
1717857797886812200,2.088812255859375,9.833285493469237,0.2920926025390625,0.03920505218505859
1717857797896853200,2.098853271484375,9.829245278167724,0.29284079055786133,0.027832594299316404
1717857797906894000,2.10889404296875,9.83208839263916,0.297479556274414,0.03426701126098632
1717857797916935200,2.11893505859375,9.831040929412842,0.2888005752563476,0.029927520751953124
1717857797926975200,2.128975341796875,9.821913035583496,0.3076549133300781,0.0383072265625
1717857797937016300,2.139016357421875,9.828048177337646,0.2980781066894531,0.03441664886474609
1717857797947057200,2.14905712890625,9.822212310791015,0.28520927276611324,0.03815758895874023
1717857797957098200,2.15909814453125,9.829245278167724,0.2813186950683594,0.02858078231811523
1717857797967139300,2.169139404296875,9.823110136413574,0.299424845123291,0.03725976333618164
1717857797977179400,2.179179443359375,9.843161575317382,0.299424845123291,0.029179332733154296
1717857797987220200,2.18922021484375,9.828946002960205,0.29493571701049803,0.03591302490234375
1717857797997261300,2.19926123046875,9.828347452545165,0.3021183219909668,0.03561374969482422
1717857798007302400,2.209302490234375,9.829544553375243,0.28909985046386716,0.03815758895874023
1717857798017343200,2.21934326171875,9.832686943054199,0.3028665100097656,0.03441664886474609
1717857798027383300,2.22938330078125,9.835081144714355,0.30301614761352536,0.04144961624145507
1717857798037424400,2.23942431640625,9.833734406280517,0.2959831802368164,0.02902969512939453
1717857798047465200,2.24946533203125,9.835081144714355,0.29867665710449215,0.026485855865478514
1717857798057506300,2.25950634765625,9.827898539733885,0.29284079055786133,0.035464112091064454
1717857798067547400,2.26954736328125,9.823110136413574,0.3022679595947265,0.03965396499633789
1717857798077588200,2.279588134765625,9.828347452545165,0.29269115295410153,0.04279635467529297
1717857798087628300,2.289628173828125,9.828197814941406,0.29568390502929687,0.0383072265625
1717857798097669400,2.29966943359375,9.82520506286621,0.2832639839172363,0.021098902130126954
1717857798107710500,2.30971044921875,9.724947868347167,0.2905962265014648,0.038756139373779294
1717857798117751300,2.319751220703125,9.79408044128418,0.2952349922180176,0.046238019561767575
1717857798127792400,2.32979248046875,9.89568437423706,0.29703064346313474,0.03980360260009765
1717857798137832200,2.339832275390625,9.955389778137206,0.3093009269714355,0.012719196319580078
1717857798147873300,2.349873291015625,9.890447058105469,0.2780266677856445,0.05297171173095703
1717857798157914400,2.359914306640625,9.72240402908325,0.2850596351623535,0.037708676147460936
1717857798167955500,2.36995556640625,9.718064538574218,0.3000233955383301,0.04548983154296875
1717857798177996500,2.37999658203125,9.859023161315918,0.3176806327819824,0.04384381790161133
1717857798188037600,2.39003759765625,9.945962609100341,0.31004911499023435,0.022296002960205077
1717857798198077700,2.40007763671875,9.860669174957275,0.31169512863159177,0.029628245544433593
1717857798208118800,2.410118896484375,9.741557642364501,0.3007715835571289,0.05132569808959961
1717857798218159600,2.42015966796875,9.771335525512695,0.28266543350219725,0.044592005920410155
1717857798228200700,2.43020068359375,9.869198518371581,0.2741360900878906,0.019901801300048826
1717857798238241800,2.44024169921875,9.888052856445311,0.28954876327514645,0.03366846084594726
1717857798248281600,2.450281494140625,9.808894564056397,0.30092122116088865,0.0378583137512207
1717857798258322700,2.46032275390625,9.773430451965332,0.2947860794067383,0.037110125732421874
1717857798268363800,2.47036376953125,9.816825357055663,0.28640637359619137,0.03561374969482422
1717857798278404600,2.480404541015625,9.868749605560302,0.29388825378417965,0.05252279891967773
1717857798288445700,2.49044580078125,9.85109236831665,0.309001651763916,0.06209960556030273
1717857798298485800,2.50048583984375,9.800365220642089,0.3028665100097656,0.039055414581298825
1717857798308526800,2.51052685546875,9.797073193359374,0.2840121719360351,0.018255787658691406
1717857798318567700,2.520567626953125,9.83897172241211,0.29134441452026366,0.02319382858276367
1717857798328608800,2.53060888671875,9.853935482788085,0.2925415153503418,0.04055179061889648
1717857798338649900,2.54064990234375,9.829394915771484,0.29658173065185545,0.04668693237304687
1717857798348689700,2.550689697265625,9.803357972717285,0.2850596351623535,0.040701428222656245
1717857798358730500,2.56073046875,9.804405435943602,0.29703064346313474,0.040102877807617184
1717857798368771600,2.570771484375,9.84435867614746,0.3066074501037597,0.029328970336914062
1717857798378812700,2.580812744140625,9.852588744354247,0.31588498153686523,0.030226795959472655
1717857798388853500,2.590853515625,9.846603240203857,0.3085527389526367,0.023044190979003905
1717857798398894600,2.60089453125,9.812186591339112,0.30181904678344723,0.035464112091064454
1717857798408934700,2.6109345703125,9.808595288848876,0.2832639839172363,0.03516483688354492
1717857798418975500,2.6209755859375,9.843011937713623,0.2876034744262695,0.037708676147460936
1717857798429016600,2.6310166015625,9.840767373657226,0.2868552864074707,0.03980360260009765
1717857798439057700,2.6410576171875,9.823110136413574,0.29358897857666016,0.04219780426025391
1717857798449098500,2.651098388671875,9.813832604980469,0.30570962448120115,0.04563946914672851
1717857798459138600,2.661138671875,9.83163947982788,0.2995744827270508,0.032920272827148434
1717857798469179600,2.6711796875,9.846902515411376,0.30780455093383785,0.03666121292114258
1717857798479220700,2.681220703125,9.846902515411376,0.2946364418029785,0.03591302490234375
1717857798489261600,2.691261474609375,9.815628256225585,0.29718028106689454,0.027533319091796873
1717857798499302700,2.701302734375,9.817274269866942,0.30406361083984373,0.037110125732421874
1717857798509343700,2.71134375,9.84555577697754,0.30092122116088865,0.029179332733154296
1717857798519383600,2.721383544921875,9.83747534637451,0.2980781066894531,0.03501519927978516
1717857798529424600,2.731424560546875,9.829095640563965,0.29239187774658204,0.03651157531738281
1717857798539465700,2.7414658203125,9.797073193359374,0.2967313682556152,0.05461772537231445
1717857798549506600,2.751506591796875,9.805452899169921,0.2920926025390625,0.049829322052001954
1717857798559547600,2.761547607421875,9.827748902130127,0.29568390502929687,0.04249707946777344
1717857798569587700,2.771587646484375,9.831040929412842,0.28700492401123046,0.035464112091064454
1717857798579628800,2.78162890625,9.824905787658691,0.30047230834960936,0.04129997863769531
1717857798589669600,2.791669677734375,9.806500362396239,0.29718028106689454,0.03127425918579101
1717857798599710700,2.801710693359375,9.824905787658691,0.2952349922180176,0.037409400939941405
1717857798609751800,2.811751708984375,9.839121360015868,0.2932897033691406,0.044891281127929686
1717857798619792000,2.8217919921875,9.81906992111206,0.3037643356323242,0.03950432739257812
1717857798629832700,2.831832763671875,9.81906992111206,0.2952349922180176,0.04563946914672851
1717857798639873800,2.841873779296875,9.817872820281982,0.28969840087890625,0.025438392639160156
1717857798649914600,2.85191455078125,9.829245278167724,0.3037643356323242,0.030526071166992186
1717857798659955700,2.861955810546875,9.835679695129395,0.3033154228210449,0.042048166656494135
1717857798669996800,2.871996826171875,9.843161575317382,0.29777883148193357,0.03920505218505859
1717857798680036600,2.88203662109375,9.822361948394775,0.2946364418029785,0.029478607940673827
1717857798690077400,2.892077392578125,9.830143103790283,0.30181904678344723,0.03666121292114258
1717857798700118500,2.902118408203125,9.828796365356444,0.29239187774658204,0.03396773605346679
1717857798710159600,2.91215966796875,9.836727158355712,0.30181904678344723,0.04519055633544922
1717857798720200400,2.922200439453125,9.843760125732421,0.2952349922180176,0.040102877807617184
1717857798730240500,2.932240478515625,9.824756150054931,0.29777883148193357,0.040701428222656245
1717857798740281600,2.942281494140625,9.827748902130127,0.30196868438720703,0.04219780426025391
1717857798750322700,2.95232275390625,9.827299989318847,0.3133411422729492,0.037409400939941405
1717857798760363500,2.962363525390625,9.833734406280517,0.28535891036987304,0.04474164352416992
1717857798770404600,2.972404541015625,9.8311905670166,0.2910451393127441,0.04414309310913086
1717857798780445700,2.98244580078125,9.823110136413574,0.2920926025390625,0.05117606048583984
1717857798790485500,2.992485595703125,9.823110136413574,0.30047230834960936,0.03456628646850586
1717857798800526600,3.002526611328125,9.824307237243652,0.29703064346313474,0.04713584518432617
1717857798810567700,3.012567626953125,9.81847137069702,0.2991255699157715,0.03845686416625976
1717857798820608500,3.0226083984375,9.830143103790283,0.2950853546142578,0.03845686416625976
1717857798830649600,3.032649658203125,9.829993466186522,0.2931400657653808,0.042048166656494135
1717857798840689700,3.042689697265625,9.8319387550354,0.30151977157592774,0.04279635467529297
1717857798850730800,3.052730712890625,9.835230782318115,0.28057050704956055,0.044292730712890624
1717857798860771600,3.062771484375,9.819668471527098,0.2976291938781738,0.037409400939941405
1717857798870812700,3.072812744140625,9.81862100830078,0.29777883148193357,0.038756139373779294
1717857798880853800,3.082853759765625,9.831040929412842,0.2902969512939453,0.03681085052490234
1717857798890893800,3.092893798828125,9.828347452545165,0.30750527572631836,0.02693476867675781
1717857798900934700,3.1029345703125,9.822511585998535,0.29658173065185545,0.028880057525634766
1717857798910975700,3.112975830078125,9.82610288848877,0.3003226707458496,0.032172084808349606
1717857798921016600,3.1230166015625,9.819219558715819,0.3085527389526367,0.04414309310913086
1717857798931057700,3.1330576171875,9.827449626922608,0.29867665710449215,0.03621230010986328
1717857798941098800,3.1430986328125,9.841066648864745,0.2941875289916992,0.01975216369628906
1717857798951138800,3.153138916015625,9.827898539733885,0.2941875289916992,0.03591302490234375
1717857798961179600,3.1631796875,9.826701438903807,0.29882629470825195,0.033518823242187495
1717857798971220700,3.173220703125,9.829394915771484,0.30750527572631836,0.046238019561767575
1717857798981261800,3.18326171875,9.833135855865478,0.2958335426330566,0.037708676147460936
1717857798991302700,3.193302734375,9.824007962036132,0.2985270195007324,0.026186580657958983
1717857799001342700,3.2033427734375,9.816675719451904,0.3010708587646484,0.03411737365722656
1717857799011383800,3.2133837890625,9.831489842224121,0.2989759323120117,0.04249707946777344
1717857799021425000,3.2234248046875,9.823559049224853,0.2962824554443359,0.03621230010986328
1717857799031465700,3.2334658203125,9.829843828582764,0.2867056488037109,0.03725976333618164
1717857799041506800,3.2435068359375,9.832986218261718,0.2976291938781738,0.027383681488037107
1717857799051547600,3.253547607421875,9.812036953735351,0.2846107223510742,0.042048166656494135
1717857799061587500,3.26358740234375,9.805901811981201,0.2929904281616211,0.03516483688354492
1717857799071628500,3.273628662109375,9.828796365356444,0.29703064346313474,0.035464112091064454
1717857799081669600,3.283669677734375,9.835679695129395,0.3003226707458496,0.0326209976196289
1717857799091710500,3.29371044921875,9.831040929412842,0.2946364418029785,0.03696048812866211
1717857799101751600,3.30375146484375,9.816376444244383,0.30316578521728516,0.03860650177001953
1717857799111791600,3.31379150390625,9.821913035583496,0.29703064346313474,0.0383072265625
1717857799121832700,3.323832763671875,9.8189202835083,0.2932897033691406,0.03202244720458984
1717857799131873500,3.33387353515625,9.822511585998535,0.28924948806762696,0.029478607940673827
1717857799141914600,3.34391455078125,9.823858324432372,0.299424845123291,0.03561374969482422
1717857799151955700,3.353955810546875,9.826252526092528,0.3021183219909668,0.0469862075805664
1717857799161995800,3.363995849609375,9.822810861206055,0.2931400657653808,0.034715924072265626
1717857799172036600,3.37403662109375,9.83208839263916,0.3082534637451172,0.031124621582031248
1717857799182077200,3.3840771484375,9.83178911743164,0.29388825378417965,0.046537294769287106
1717857799192118300,3.3941181640625,9.753229375457764,0.28909985046386716,0.041748891448974604
1717857799202159000,3.4041591796875,9.797971018981933,0.30256723480224607,0.04085106582641601
1717857799212200200,3.4142001953125,9.868599967956543,0.28640637359619137,0.034715924072265626
1717857799222240300,3.424240234375,9.928754284667969,0.3064578125,0.021697452545166016
1717857799232281000,3.434281005859375,9.865008665466307,0.28580782318115233,0.058657940673828124
1717857799242322200,3.444322265625,9.74948843536377,0.2811690574645996,0.05835866546630859
1717857799252363300,3.45436328125,9.733477211761475,0.29822774429321286,0.03561374969482422
1717857799262404000,3.464404052734375,9.856180046844482,0.30960020217895506,0.03172317199707031
1717857799272444200,3.474444091796875,9.928006096649169,0.30780455093383785,0.02289455337524414
1717857799282485200,3.4844853515625,9.839270997619629,0.30271687240600587,0.02858078231811523
1717857799292526300,3.4945263671875,9.764452195739745,0.28535891036987304,0.047285482788085934
1717857799302567200,3.504567138671875,9.778218855285644,0.28176760787963867,0.04025251541137695
1717857799312608300,3.514608154296875,9.85677859725952,0.2919429649353027,0.035464112091064454
1717857799322649300,3.5246494140625,9.87578257293701,0.3091512893676758,0.03666121292114258
1717857799332689400,3.534689453125,9.823259774017334,0.30092122116088865,0.02977788314819336
1717857799342730200,3.544730224609375,9.771784438323975,0.29837738189697266,0.02184709014892578
1717857799352771300,3.554771240234375,9.821314485168456,0.28745383682250975,0.03501519927978516
1717857799362812200,3.564812255859375,9.870395619201659,0.29493571701049803,0.047884033203124995
1717857799372853200,3.574853271484375,9.843909763336182,0.3001730331420898,0.04848258361816406
1717857799382893300,3.584893310546875,9.795576817321777,0.303913973236084,0.03441664886474609
1717857799392934400,3.594934326171875,9.814730430603026,0.2967313682556152,0.02079962692260742
1717857799402975200,3.604975341796875,9.829843828582764,0.30705636291503907,0.029328970336914062
1717857799413016300,3.615016357421875,9.833285493469237,0.29613281784057616,0.03666121292114258
1717857799423057400,3.625057373046875,9.822361948394775,0.28954876327514645,0.03067570877075195
1717857799433098200,3.63509814453125,9.818770645904541,0.2868552864074707,0.037409400939941405
1717857799443138300,3.64513818359375,9.816376444244383,0.2946364418029785,0.04249707946777344
1717857799453179400,3.655179443359375,9.8319387550354,0.3000233955383301,0.03127425918579101
1717857799463220500,3.665220458984375,9.846303964996338,0.311545491027832,0.027234043884277342
1717857799473261300,3.67526123046875,9.834332956695556,0.3042132484436035,0.03890577697753906
1717857799483302400,3.685302490234375,9.824456874847412,0.2920926025390625,0.04339490509033203
1717857799493342500,3.695342529296875,9.807996738433838,0.2991255699157715,0.03800795135498047
1717857799503383300,3.70538330078125,9.834931507110594,0.30705636291503907,0.02798223190307617
1717857799513424400,3.71542431640625,9.846603240203857,0.29703064346313474,0.03277063522338867
1717857799523465500,3.725465576171875,9.818172095489501,0.3112462158203125,0.033219548034667964
1717857799533506300,3.73550634765625,9.830891291809081,0.31214404144287106,0.04159925384521484
1717857799543547400,3.74554736328125,9.809792389678954,0.3016694091796875,0.03456628646850586
1717857799553587200,3.755587158203125,9.83747534637451,0.299424845123291,0.04234744186401367
1717857799563628300,3.765628173828125,9.843610488128661,0.3007715835571289,0.046238019561767575
1717857799573669000,3.775669189453125,9.822661223602294,0.2916436897277832,0.04563946914672851
1717857799583710200,3.785710205078125,9.808296013641357,0.299424845123291,0.03441664886474609
1717857799593751300,3.795751220703125,9.834781869506836,0.29658173065185545,0.01840542526245117
1717857799603791400,3.805791259765625,9.8311905670166,0.30271687240600587,0.025887305450439452
1717857799613832200,3.815832275390625,9.821763397979735,0.2967313682556152,0.03202244720458984
1717857799623873300,3.825873291015625,9.813982242584228,0.282815071105957,0.03725976333618164
1717857799633914000,3.8359140625,9.81248586654663,0.2989759323120117,0.03366846084594726
1717857799643955200,3.845955078125,9.83882208480835,0.29658173065185545,0.03755903854370117
1717857799653996300,3.855996337890625,9.83822353439331,0.2904465888977051,0.04563946914672851
1717857799664036400,3.866036376953125,9.81847137069702,0.2914940521240234,0.033518823242187495
1717857799674077200,3.8760771484375,9.817573545074461,0.2980781066894531,0.043544542694091797
1717857799684118300,3.8861181640625,9.835679695129395,0.29403789138793945,0.032920272827148434
1717857799694159400,3.896159423828125,9.846004689788817,0.29553426742553707,0.03127425918579101
1717857799704200200,3.9062001953125,9.843311212921142,0.28999767608642574,0.03995324020385742
1717857799714240300,3.916240234375,9.83837317199707,0.29134441452026366,0.040102877807617184
1717857799724281300,3.92628125,9.821164847564697,0.297479556274414,0.033518823242187495
1717857799734322400,3.936322509765625,9.829095640563965,0.3085527389526367,0.03995324020385742
1717857799744363300,3.94636328125,9.826252526092528,0.29448680419921874,0.040402153015136714
1717857799754404400,3.956404296875,9.82505542526245,0.29134441452026366,0.04159925384521484
1717857799764445200,3.966445068359375,9.824905787658691,0.2962824554443359,0.03920505218505859
1717857799774485200,3.9764853515625,9.835978970336914,0.2929904281616211,0.0326209976196289
1717857799784526300,3.9865263671875,9.829694190979003,0.29433716659545894,0.033818098449707026
1717857799794567400,3.9965673828125,9.83852280960083,0.30630817489624024,0.03845686416625976
1717857799804608300,4.006608154296875,9.832836580657958,0.2919429649353027,0.03561374969482422
1717857799814649300,4.0166494140625,9.82535470046997,0.3003226707458496,0.02663549346923828
1717857799824689400,4.026689453125,9.822212310791015,0.2946364418029785,0.03800795135498047
1717857799834730500,4.03673046875,9.841216286468505,0.2998737579345703,0.03411737365722656
1717857799844771300,4.046771240234375,9.82520506286621,0.2910451393127441,0.04908113403320312
1717857799854812400,4.0568125,9.817423907470703,0.3010708587646484,0.042048166656494135
1717857799864853500,4.066853515625,9.826851076507568,0.3012204963684082,0.048931496429443354
1717857799874894300,4.076894287109375,9.826851076507568,0.297479556274414,0.03516483688354492
1717857799884934100,4.08693408203125,9.832686943054199,0.2925415153503418,0.044592005920410155
1717857799894975200,4.096975341796875,9.829993466186522,0.30047230834960936,0.031124621582031248
1717857799905016000,4.10701611328125,9.831489842224121,0.29269115295410153,0.03366846084594726
1717857799915057200,4.11705712890625,9.835978970336914,0.2889502128601074,0.03725976333618164
1717857799925098200,4.12709814453125,9.834931507110594,0.3054103492736816,0.03815758895874023
1717857799935138300,4.13713818359375,9.821015209960937,0.2964320930480957,0.04055179061889648
1717857799945179100,4.14717919921875,9.829694190979003,0.2989759323120117,0.0282815071105957
1717857799955220200,4.15722021484375,9.82460651245117,0.2904465888977051,0.039354689788818356
1717857799965261300,4.16726123046875,9.821314485168456,0.3058592620849609,0.0326209976196289
1717857799975302100,4.17730224609375,9.828347452545165,0.31064766540527344,0.03531447448730469
1717857799985342200,4.18734228515625,9.834781869506836,0.2920926025390625,0.03486556167602539
1717857799995383300,4.19738330078125,9.843610488128661,0.29179332733154295,0.04399345550537109
1717857800005424400,4.20742431640625,9.815179343414306,0.2950853546142578,0.04548983154296875
1717857800015465200,4.21746533203125,9.819219558715819,0.29837738189697266,0.03920505218505859
1717857800025506300,4.22750634765625,9.836876795959473,0.296881005859375,0.042048166656494135
1717857800035547100,4.237547119140625,9.83163947982788,0.29284079055786133,0.03920505218505859
1717857800045587200,4.247587158203125,9.8311905670166,0.2919429649353027,0.041000703430175776
1717857800055628300,4.257628173828125,9.822361948394775,0.2998737579345703,0.03815758895874023
1717857800065669400,4.26766943359375,9.8311905670166,0.31064766540527344,0.027533319091796873
1717857800075710200,4.277710205078125,9.836278245544433,0.2910451393127441,0.03995324020385742
1717857800085751300,4.287751220703125,9.836577520751952,0.30481179885864257,0.03411737365722656
1717857800095791400,4.297791259765625,9.831489842224121,0.2989759323120117,0.02454056701660156
1717857800105832400,4.30783251953125,9.836876795959473,0.2998737579345703,0.037110125732421874
1717857800115873300,4.317873291015625,9.833285493469237,0.3001730331420898,0.04563946914672851
1717857800125914400,4.327914306640625,9.839270997619629,0.2959831802368164,0.03666121292114258
1717857800135955500,4.33795556640625,9.8319387550354,0.28431144714355466,0.034715924072265626
1717857800145996300,4.347996337890625,9.828347452545165,0.3043628860473633,0.028131869506835935
1717857800156036400,4.358036376953125,9.823559049224853,0.31274259185791015,0.030226795959472655
1717857800166077400,4.368077392578125,9.81951883392334,0.3028665100097656,0.0326209976196289
1717857800176118300,4.3781181640625,9.815328981018066,0.28520927276611324,0.034715924072265626
1717857800186159400,4.388159423828125,9.829544553375243,0.2976291938781738,0.043544542694091797
1717857800196200400,4.398200439453125,9.829394915771484,0.29014731369018554,0.03696048812866211
1717857800206241300,4.4082412109375,9.826252526092528,0.29403789138793945,0.03486556167602539
1717857800216281300,4.41828125,9.830891291809081,0.29433716659545894,0.04129997863769531
1717857800226322400,4.428322509765625,9.82520506286621,0.3091512893676758,0.027533319091796873
1717857800236363500,4.438363525390625,9.83238766784668,0.2946364418029785,0.04279635467529297
1717857800246404400,4.448404296875,9.817423907470703,0.29613281784057616,0.026186580657958983
1717857800256445400,4.458445556640625,9.771335525512695,0.30047230834960936,0.03531447448730469
1717857800266485500,4.468485595703125,9.72240402908325,0.27997195663452146,0.049230771636962885
1717857800276526300,4.4785263671875,9.873089096069336,0.2980781066894531,0.04563946914672851
1717857800286567400,4.4885673828125,9.974842666625976,0.3072060005187988,0.03591302490234375
1717857800296608500,4.4986083984375,9.938181453704834,0.3037643356323242,0.043245267486572266
1717857800306649300,4.5086494140625,9.751134449005127,0.277727392578125,0.04249707946777344
1717857800316690400,4.5186904296875,9.692177233123779,0.2819172454833984,0.03980360260009765
1717857800326730500,4.52873046875,9.800365220642089,0.30735563812255856,0.033818098449707026
1717857800336771600,4.538771484375,9.9338419631958,0.3072060005187988,0.02558803024291992
1717857800346812400,4.5488125,9.887753581237792,0.3146878807067871,0.03247136001586914
1717857800356853500,4.558853515625,9.768193135833739,0.31573534393310543,0.04085106582641601
1717857800366894600,4.56889453125,9.741108729553222,0.2781763053894043,0.04159925384521484
1717857800376934400,4.578934326171875,9.83807389678955,0.26560674667358397,0.042646717071533204
1717857800386975200,4.588975341796875,9.899425314331054,0.27308862686157226,0.03127425918579101
1717857800397016600,4.5990166015625,9.837026433563231,0.29179332733154295,0.027234043884277342
1717857800407057400,4.609057373046875,9.765948571777344,0.29568390502929687,0.02319382858276367
1717857800417098500,4.619098388671875,9.787496386718749,0.2829647087097168,0.028880057525634766
1717857800427139600,4.6291396484375,9.87054525680542,0.2958335426330566,0.03965396499633789
1717857800437179400,4.639179443359375,9.870844532012939,0.3094505645751953,0.05192424850463867
1717857800447220200,4.64922021484375,9.804704711151123,0.3003226707458496,0.04638765716552734
1717857800457261300,4.65926123046875,9.78689783630371,0.2841618095397949,0.039354689788818356
1717857800467302400,4.669302490234375,9.821314485168456,0.29867665710449215,0.025139117431640625
1717857800477343200,4.67934326171875,9.871143807220458,0.2976291938781738,0.0378583137512207
1717857800487383300,4.68938330078125,9.843011937713623,0.2980781066894531,0.03366846084594726
1717857800497424400,4.69942431640625,9.811139128112792,0.29867665710449215,0.0383072265625
1717857800507465500,4.709465576171875,9.80006594543457,0.2904465888977051,0.03441664886474609
1717857800517506300,4.71950634765625,9.839270997619629,0.2920926025390625,0.03396773605346679
1717857800527547400,4.72954736328125,9.85019454269409,0.2962824554443359,0.04369418029785156
1717857800537588500,4.73958837890625,9.829843828582764,0.3087023765563965,0.046537294769287106
1717857800547628300,4.749628173828125,9.810091664886475,0.3051110740661621,0.03591302490234375
1717857800557669400,4.75966943359375,9.803806885528564,0.2741360900878906,0.03127425918579101
1717857800567710500,4.76971044921875,9.84435867614746,0.28446108474731446,0.042048166656494135
1717857800577751300,4.779751220703125,9.84465795135498,0.304512523651123,0.03202244720458984
1717857800587792400,4.78979248046875,9.829694190979003,0.29089550170898437,0.033518823242187495
1717857800597832400,4.79983251953125,9.809642752075195,0.30690672531127927,0.03591302490234375
1717857800607873500,4.80987353515625,9.820416659545899,0.29613281784057616,0.03232172241210937
1717857800617914400,4.819914306640625,9.828197814941406,0.30271687240600587,0.04908113403320312
1717857800627955500,4.82995556640625,9.8442090385437,0.2967313682556152,0.03501519927978516
1717857800637996500,4.83999658203125,9.822960498809813,0.29224224014282224,0.04055179061889648
1717857800648037400,4.850037353515625,9.797522106170653,0.2876034744262695,0.040402153015136714
1717857800658077400,4.860077392578125,9.814281517791747,0.2910451393127441,0.033219548034667964
1717857800668118500,4.870118408203125,9.835530057525634,0.2953846298217773,0.037409400939941405
1717857800678159400,4.880159423828125,9.83882208480835,0.2976291938781738,0.03277063522338867
1717857800688200400,4.890200439453125,9.814580792999267,0.29568390502929687,0.03755903854370117
1717857800698241500,4.900241455078125,9.804106160736083,0.30346506042480464,0.038756139373779294
1717857800708281600,4.910281494140625,9.824007962036132,0.2976291938781738,0.04713584518432617
1717857800718322400,4.920322509765625,9.83178911743164,0.3043628860473633,0.037110125732421874
1717857800728363500,4.930363525390625,9.842263749694824,0.3021183219909668,0.02977788314819336
1717857800738404600,4.940404541015625,9.820416659545899,0.28431144714355466,0.02498947982788086
1717857800748445400,4.950445556640625,9.819219558715819,0.28909985046386716,0.028431144714355466
1717857800758486500,4.960486572265625,9.835829332733153,0.2947860794067383,0.033219548034667964
1717857800768526300,4.9705263671875,9.836876795959473,0.29403789138793945,0.03456628646850586
1717857800778567400,4.9805673828125,9.81996774673462,0.3033154228210449,0.03800795135498047
1717857800788608300,4.990608154296875,9.81996774673462,0.2931400657653808,0.04683656997680664
1717857800798649300,5.0006494140625,9.830592016601562,0.30047230834960936,0.03591302490234375
1717857800808690400,5.0106904296875,9.840617736053467,0.3058592620849609,0.0282815071105957
1717857800818730200,5.020730224609375,9.830143103790283,0.2991255699157715,0.033818098449707026
1717857800828771300,5.030771240234375,9.814730430603026,0.29867665710449215,0.04085106582641601
1717857800838812400,5.0408125,9.824307237243652,0.30361469802856444,0.028880057525634766
1717857800848853200,5.050853271484375,9.828796365356444,0.29388825378417965,0.043544542694091797
1717857800858894300,5.060894287109375,9.828048177337646,0.29388825378417965,0.03800795135498047
1717857800868935400,5.070935302734375,9.810839852905273,0.3006219459533691,0.029328970336914062
1717857800878975500,5.0809755859375,9.83163947982788,0.2937386161804199,0.035464112091064454
1717857800889016300,5.091016357421875,9.824157599639893,0.3010708587646484,0.04773439559936523
1717857800899057400,5.101057373046875,9.838672447204589,0.299424845123291,0.0383072265625
1717857800909098500,5.111098388671875,9.846453602600096,0.3012204963684082,0.046238019561767575
1717857800919139300,5.121139404296875,9.822212310791015,0.3001730331420898,0.03995324020385742
1717857800929179400,5.131179443359375,9.808146376037596,0.28700492401123046,0.03411737365722656
1717857800939220500,5.141220458984375,9.827299989318847,0.29493571701049803,0.03920505218505859
1717857800949261300,5.15126123046875,9.826701438903807,0.2979284690856933,0.04668693237304687
1717857800959302400,5.161302490234375,9.830143103790283,0.29224224014282224,0.04085106582641601
1717857800969343500,5.171343505859375,9.812186591339112,0.2973299186706543,0.021098902130126954
1717857800979384300,5.18138427734375,9.818022457885741,0.29777883148193357,0.024091654205322263
1717857800989424400,5.19142431640625,9.827898539733885,0.2958335426330566,0.03995324020385742
1717857800999465500,5.201465576171875,9.827150351715087,0.29403789138793945,0.03920505218505859
1717857801009506600,5.211506591796875,9.840318460845946,0.2973299186706543,0.033818098449707026
1717857801019547400,5.22154736328125,9.828497090148925,0.2919429649353027,0.027234043884277342
1717857801029588500,5.23158837890625,9.813832604980469,0.28999767608642574,0.03202244720458984
1717857801039629600,5.241629638671875,9.833734406280517,0.29343934097290036,0.04189852905273437
1717857801049669600,5.251669677734375,9.835081144714355,0.2823661582946777,0.032172084808349606
1717857801059710500,5.26171044921875,9.82565397567749,0.2902969512939453,0.035763387298583985
1717857801069751600,5.27175146484375,9.826551801300049,0.29553426742553707,0.044292730712890624
1717857801079792400,5.28179248046875,9.83163947982788,0.2950853546142578,0.03845686416625976
1717857801089833500,5.29183349609375,9.829694190979003,0.2905962265014648,0.03531447448730469
1717857801099873300,5.301873291015625,9.82460651245117,0.2952349922180176,0.031124621582031248
1717857801109914400,5.311914306640625,9.829993466186522,0.2947860794067383,0.044292730712890624
1717857801119955200,5.321955078125,9.820416659545899,0.3024175971984863,0.03277063522338867
1717857801129996300,5.331996337890625,9.828197814941406,0.28865093765258787,0.042048166656494135
1717857801140037400,5.342037353515625,9.831489842224121,0.2856581855773926,0.02977788314819336
1717857801150078200,5.352078125,9.813832604980469,0.29433716659545894,0.030226795959472655
1717857801160118300,5.3621181640625,9.828497090148925,0.28446108474731446,0.04055179061889648
1717857801170159400,5.372159423828125,9.826252526092528,0.28969840087890625,0.040102877807617184
1717857801180200700,5.38220068359375,9.825953250885009,0.29867665710449215,0.03007715835571289
1717857801190241800,5.39224169921875,9.839270997619629,0.3012204963684082,0.033818098449707026
1717857801200283000,5.402282958984375,9.828646727752686,0.314089330291748,0.0469862075805664
1717857801210323000,5.412322998046875,9.81951883392334,0.2989759323120117,0.041000703430175776
1717857801220363800,5.42236376953125,9.8319387550354,0.29718028106689454,0.03037643356323242
1717857801230404900,5.43240478515625,9.830741654205323,0.28865093765258787,0.03007715835571289
1717857801240446000,5.442446044921875,9.830292741394043,0.29269115295410153,0.02977788314819336
1717857801250486800,5.45248681640625,9.829694190979003,0.2861070983886719,0.021398177337646485
1717857801260527900,5.46252783203125,9.820267021942138,0.28535891036987304,0.03561374969482422
1717857801270568000,5.47256787109375,9.817423907470703,0.29882629470825195,0.03860650177001953
1717857801280608800,5.48260888671875,9.830592016601562,0.29239187774658204,0.033219548034667964
1717857801290649900,5.49264990234375,9.696067810821532,0.299424845123291,0.025139117431640625
1717857801300691000,5.50269091796875,9.839719910430908,0.29179332733154295,0.04803367080688476
1717857801310731800,5.512731689453125,9.908104295349121,0.2962824554443359,0.028131869506835935
1717857801320771600,5.522771484375,9.868151055145264,0.3091512893676758,0.00613514175415039
1717857801330812700,5.532812744140625,9.848997441864013,0.28790274963378903,0.05357026214599609
1717857801340853800,5.542853759765625,9.814730430603026,0.28101941986083984,0.03696048812866211
1717857801350894600,5.55289453125,9.818172095489501,0.2905962265014648,0.04878185882568359
1717857801360935700,5.562935791015625,9.83777462158203,0.2976291938781738,0.06284779357910156
1717857801370976800,5.572976806640625,9.84405940093994,0.3173813575744629,0.028880057525634766
1717857801381016800,5.583016845703125,9.808296013641357,0.32456396255493164,0.012719196319580078
1717857801391057700,5.5930576171875,9.816675719451904,0.33324294357299805,0.02184709014892578
1717857801401098800,5.6030986328125,9.824157599639893,0.2914940521240234,0.031573534393310544
1717857801411139800,5.613139892578125,9.83163947982788,0.2738368148803711,0.03142389678955078
1717857801421180700,5.6231806640625,9.809642752075195,0.2668038475036621,0.04848258361816406
1717857801431220700,5.633220703125,9.79303297805786,0.26979659957885743,0.0526724365234375
1717857801441261800,5.64326171875,9.805602536773682,0.2877531120300293,0.04519055633544922
1717857801451302700,5.653302734375,9.848398891448975,0.3094505645751953,0.037110125732421874
1717857801461343700,5.66334375,9.848847804260254,0.313490779876709,0.022744915771484374
1717857801471384800,5.673384765625,9.836577520751952,0.32231939849853514,0.036361937713623046
1717857801481425700,5.68342578125,9.805452899169921,0.297479556274414,0.034715924072265626
1717857801491465700,5.6934658203125,9.821314485168456,0.28446108474731446,0.04534019393920898
1717857801501506800,5.7035068359375,9.827898539733885,0.28476035995483395,0.051475335693359374
1717857801511548000,5.7135478515625,9.828946002960205,0.3024175971984863,0.029328970336914062
1717857801521588700,5.723588623046875,9.81996774673462,0.28790274963378903,0.03441664886474609
1717857801531629800,5.7336298828125,9.822511585998535,0.2962824554443359,0.03561374969482422
1717857801541671000,5.7436708984375,9.84450831375122,0.29553426742553707,0.023942016601562498
1717857801551710700,5.753710693359375,9.837026433563231,0.30256723480224607,0.03426701126098632
1717857801561751800,5.763751708984375,9.82565397567749,0.3051110740661621,0.04938040924072265
1717857801571793000,5.77379296875,9.809343476867674,0.28311434631347654,0.0474351203918457
1717857801581833700,5.783833740234375,9.822960498809813,0.28805238723754883,0.0474351203918457
1717857801591874800,5.793874755859375,9.839719910430908,0.29284079055786133,0.028730419921875
1717857801601915000,5.803914794921875,9.82610288848877,0.2937386161804199,0.027383681488037107
1717857801611956000,5.8139560546875,9.823259774017334,0.3010708587646484,0.02977788314819336
1717857801621996800,5.823996826171875,9.824007962036132,0.2925415153503418,0.030825346374511717
1717857801632038000,5.834037841796875,9.824307237243652,0.2953846298217773,0.0330699104309082
1717857801642079000,5.844078857421875,9.836427883148193,0.2952349922180176,0.04548983154296875
1717857801652119800,5.854119873046875,9.837176071166992,0.3012204963684082,0.0430956298828125
1717857801662159600,5.86415966796875,9.815179343414306,0.29613281784057616,0.04144961624145507
1717857801672200700,5.87420068359375,9.827898539733885,0.29343934097290036,0.028880057525634766
1717857801682241800,5.88424169921875,9.826402163696288,0.2947860794067383,0.030526071166992186
1717857801692282600,5.89428271484375,9.829993466186522,0.2937386161804199,0.024091654205322263
1717857801702323700,5.90432373046875,9.821913035583496,0.2855085479736328,0.02633621826171875
1717857801712363800,5.91436376953125,9.81248586654663,0.3033154228210449,0.035763387298583985
1717857801722404600,5.924404541015625,9.821015209960937,0.29822774429321286,0.030526071166992186
1717857801732445700,5.93444580078125,9.836278245544433,0.30137013397216794,0.036361937713623046
1717857801742486800,5.94448681640625,9.839420635223387,0.30092122116088865,0.03441664886474609
1717857801752527600,5.954527587890625,9.829095640563965,0.304512523651123,0.04025251541137695
1717857801762568700,5.964568603515625,9.816077169036864,0.30151977157592774,0.04085106582641601
1717857801772608800,5.97460888671875,9.812036953735351,0.2995744827270508,0.04189852905273437
1717857801782649900,5.98464990234375,9.828946002960205,0.3033154228210449,0.029328970336914062
1717857801792690700,5.994690673828125,9.821763397979735,0.28805238723754883,0.031872809600830075
1717857801802731800,6.004731689453125,9.827898539733885,0.29358897857666016,0.03561374969482422
1717857801812772900,6.01477294921875,9.834183319091796,0.29343934097290036,0.052073886108398436
1717857801822812700,6.024812744140625,9.824157599639893,0.2962824554443359,0.03441664886474609
1717857801832853800,6.034853759765625,9.826551801300049,0.2952349922180176,0.03441664886474609
1717857801842894800,6.044894775390625,9.830592016601562,0.3007715835571289,0.04534019393920898
1717857801852935700,6.054935791015625,9.83807389678955,0.29358897857666016,0.042048166656494135
1717857801862976800,6.064976806640625,9.820865572357176,0.2910451393127441,0.042945992279052735
1717857801873017900,6.075017822265625,9.837325708770752,0.2950853546142578,0.0469862075805664
1717857801883058000,6.085057861328125,9.833285493469237,0.2979284690856933,0.0469862075805664
1717857801893098800,6.0950986328125,9.821913035583496,0.2829647087097168,0.0326209976196289
1717857801903139800,6.105139892578125,9.824456874847412,0.3007715835571289,0.03696048812866211
1717857801913181000,6.115180908203125,9.8311905670166,0.3033154228210449,0.02528875503540039
1717857801923221800,6.1252216796875,9.84465795135498,0.3006219459533691,0.03277063522338867
1717857801933261800,6.13526171875,9.820267021942138,0.30196868438720703,0.03755903854370117
1717857801943303000,6.145302978515625,9.829095640563965,0.2855085479736328,0.02558803024291992
1717857801953343700,6.15534375,9.827449626922608,0.3000233955383301,0.03486556167602539
1717857801963384800,6.165384765625,9.832686943054199,0.28700492401123046,0.03486556167602539
1717857801973426000,6.175426025390625,9.81951883392334,0.30316578521728516,0.04803367080688476
1717857801983466800,6.185466796875,9.823259774017334,0.2964320930480957,0.03995324020385742
1717857801993506600,6.195506591796875,9.823559049224853,0.29867665710449215,0.028730419921875
1717857802003547600,6.205547607421875,9.822810861206055,0.3107973030090332,0.03277063522338867
1717857802013588700,6.215588623046875,9.824007962036132,0.3054103492736816,0.04339490509033203
1717857802023629600,6.225629638671875,9.823110136413574,0.30780455093383785,0.03860650177001953
1717857802033670700,6.235670654296875,9.81936919631958,0.29822774429321286,0.03277063522338867
1717857802043710700,6.245710693359375,9.819668471527098,0.2885013000488281,0.03725976333618164
1717857802053751800,6.255751708984375,9.822810861206055,0.3003226707458496,0.049230771636962885
1717857802063792600,6.265792724609375,9.829993466186522,0.2910451393127441,0.03890577697753906
1717857802073833700,6.275833740234375,9.828646727752686,0.28655601119995117,0.03531447448730469
1717857802083874800,6.285874755859375,9.828197814941406,0.2919429649353027,0.04863222122192382
1717857802093915600,6.29591552734375,9.830741654205323,0.30346506042480464,0.036062662506103516
1717857802103955700,6.305955810546875,9.814580792999267,0.29777883148193357,0.020949264526367185
1717857802113996800,6.315996826171875,9.835679695129395,0.2883516624450683,0.03441664886474609
1717857802124037600,6.32603759765625,9.829095640563965,0.29613281784057616,0.03651157531738281
1717857802134078700,6.33607861328125,9.82505542526245,0.29493571701049803,0.03725976333618164
1717857802144119800,6.346119873046875,9.811288765716553,0.28790274963378903,0.03411737365722656
1717857802154159900,6.356159912109375,9.828946002960205,0.3076549133300781,0.0383072265625
1717857802164200700,6.36620068359375,9.828497090148925,0.2976291938781738,0.03725976333618164
1717857802174241800,6.37624169921875,9.814880068206786,0.30406361083984373,0.022296002960205077
1717857802184282600,6.38628271484375,9.821763397979735,0.29089550170898437,0.03067570877075195
1717857802194323500,6.396323486328125,9.821314485168456,0.28490999755859375,0.04474164352416992
1717857802204364500,6.406364501953125,9.834781869506836,0.314089330291748,0.034715924072265626
1717857802214404600,6.416404541015625,9.829095640563965,0.303913973236084,0.030526071166992186
1717857802224445700,6.42644580078125,9.822062673187256,0.2973299186706543,0.03037643356323242
1717857802234486500,6.436486572265625,9.821913035583496,0.28640637359619137,0.034715924072265626
1717857802244527600,6.446527587890625,9.807697463226317,0.28206688308715816,0.04159925384521484
1717857802254568700,6.456568603515625,9.833435131072997,0.2814683326721191,0.038756139373779294
1717857802264609500,6.466609619140625,9.839270997619629,0.2904465888977051,0.0378583137512207
1717857802274649300,6.4766494140625,9.829095640563965,0.29179332733154295,0.02633621826171875
1717857802284690400,6.4866904296875,9.830143103790283,0.3024175971984863,0.04369418029785156
1717857802294731300,6.496731201171875,9.827599264526366,0.29284079055786133,0.03800795135498047
1717857802304772400,6.5067724609375,9.827748902130127,0.29448680419921874,0.030974983978271482
1717857802314813400,6.5168134765625,9.81906992111206,0.29388825378417965,0.035464112091064454
1717857802324853500,6.526853515625,9.818321733093262,0.28266543350219725,0.03486556167602539
1717857802334894300,6.536894287109375,9.8319387550354,0.2902969512939453,0.04504091873168945
1717857802344935400,6.546935302734375,9.833285493469237,0.29358897857666016,0.035464112091064454
1717857802354976500,6.5569765625,9.819668471527098,0.2952349922180176,0.03456628646850586
1717857802365017300,6.567017333984375,9.823110136413574,0.29613281784057616,0.05581482620239257
1717857802375058400,6.577058349609375,9.813982242584228,0.29343934097290036,0.030974983978271482
1717857802385098500,6.587098388671875,9.809942027282714,0.28640637359619137,0.029478607940673827
1717857802395139300,6.597139404296875,9.694122521972655,0.2902969512939453,0.03965396499633789
1717857802405180400,6.607180419921875,9.834332956695556,0.29972412033081053,0.042048166656494135
1717857802415221500,6.617221435546875,9.968557887268066,0.31109657821655273,0.022744915771484374
1717857802425262300,6.627262451171875,9.983671285247802,0.2931400657653808,0.027682956695556638
1717857802435302400,6.637302490234375,9.776423204040526,0.28490999755859375,0.05327098693847656
1717857802445343500,6.647343505859375,9.69083049468994,0.30301614761352536,0.05327098693847656
1717857802455384600,6.657384521484375,9.798569569396973,0.3058592620849609,0.05401917495727539
1717857802465425400,6.66742529296875,9.94057565536499,0.32441432495117184,0.034715924072265626
1717857802475466500,6.677466552734375,9.8825162651062,0.33144729232788084,0.02154781494140625
1717857802485507600,6.687507568359375,9.769988787078857,0.3142389678955078,0.021996727752685546
1717857802495547600,6.697547607421875,9.745897132873534,0.2919429649353027,0.03725976333618164
1717857802505588500,6.70758837890625,9.797522106170653,0.24630349578857422,0.036361937713623046
1717857802515629600,6.717629638671875,9.869048880767822,0.2588730545043945,0.059256491088867186
1717857802525670700,6.727670654296875,9.86381156463623,0.2819172454833984,0.04129997863769531
1717857802535711500,6.73771142578125,9.804555073547363,0.3097498397827148,0.03651157531738281
1717857802545751600,6.74775146484375,9.795726454925537,0.316034619140625,0.0076315177917480465
1717857802555792600,6.757792724609375,9.835978970336914,0.3028665100097656,0.03007715835571289
1717857802565833500,6.76783349609375,9.87608184814453,0.2964320930480957,0.05386953735351562
1717857802575874600,6.77787451171875,9.826402163696288,0.3037643356323242,0.05416881256103515
1717857802585915600,6.78791552734375,9.782707983398437,0.2959831802368164,0.04085106582641601
1717857802595956500,6.79795654296875,9.802160871887207,0.29239187774658204,0.02558803024291992
1717857802605996500,6.80799658203125,9.856479322052001,0.2781763053894043,0.013467384338378905
1717857802616037600,6.81803759765625,9.853486569976805,0.2841618095397949,0.0326209976196289
1717857802626078700,6.82807861328125,9.815777893829345,0.30316578521728516,0.032920272827148434
1717857802636119600,6.83811962890625,9.809493114471435,0.2911947769165039,0.036361937713623046
1717857802646160600,6.84816064453125,9.81862100830078,0.29553426742553707,0.05401917495727539
1717857802656200400,6.858200439453125,9.851391643524169,0.3021183219909668,0.03651157531738281
1717857802666241300,6.8682412109375,9.841515561676024,0.29867665710449215,0.042048166656494135
1717857802676282400,6.878282470703125,9.817723182678222,0.30481179885864257,0.031124621582031248
1717857802686323500,6.888323486328125,9.797222830963134,0.29777883148193357,0.03366846084594726
1717857802696364300,6.8983642578125,9.81906992111206,0.2846107223510742,0.033219548034667964
1717857802706405400,6.9084052734375,9.85094273071289,0.29179332733154295,0.042048166656494135
1717857802716445400,6.918445556640625,9.845855052185058,0.2768295669555664,0.04608838195800781
1717857802726486500,6.928486572265625,9.81248586654663,0.29224224014282224,0.027234043884277342
1717857802736527400,6.93852734375,9.802310509490967,0.2950853546142578,0.04384381790161133
1717857802746568400,6.948568359375,9.829394915771484,0.3101987525939941,0.03232172241210937
1717857802756609500,6.958609619140625,9.83792425918579,0.30361469802856444,0.027084406280517576
1717857802766649600,6.968649658203125,9.836427883148193,0.29269115295410153,0.04548983154296875
1717857802776690400,6.9786904296875,9.808595288848876,0.28954876327514645,0.031124621582031248
1717857802786731500,6.9887314453125,9.81338369216919,0.28176760787963867,0.0430956298828125
1717857802796772600,6.998772705078125,9.840019185638427,0.29553426742553707,0.03202244720458984
1717857802806813400,7.0088134765625,9.852888019561767,0.296881005859375,0.018704700469970702
1717857802816854500,7.0188544921875,9.834183319091796,0.2941875289916992,0.026485855865478514
1717857802826894600,7.02889453125,9.817573545074461,0.30137013397216794,0.033818098449707026
1717857802836935400,7.038935302734375,9.821015209960937,0.30151977157592774,0.04683656997680664
1717857802846976500,7.0489765625,9.830292741394043,0.30705636291503907,0.04144961624145507
1717857802857017600,7.059017578125,9.83223803024292,0.3043628860473633,0.037708676147460936
1717857802867058400,7.069058349609375,9.820566297149657,0.2980781066894531,0.04279635467529297
1717857802877098500,7.079098388671875,9.803357972717285,0.2832639839172363,0.036062662506103516
1717857802887139600,7.0891396484375,9.81996774673462,0.29358897857666016,0.020500351715087888
1717857802897180700,7.0991806640625,9.830741654205323,0.2885013000488281,0.03142389678955078
1717857802907221500,7.109221435546875,9.831040929412842,0.28086978225708004,0.03995324020385742
1717857802917262600,7.1192626953125,9.824307237243652,0.29867665710449215,0.04608838195800781
1717857802927303700,7.1293037109375,9.823409411621093,0.31214404144287106,0.04474164352416992
1717857802937343500,7.139343505859375,9.835380419921874,0.31229367904663086,0.04219780426025391
1717857802947384600,7.149384521484375,9.833135855865478,0.31229367904663086,0.04339490509033203
1717857802957425700,7.15942578125,9.829694190979003,0.2867056488037109,0.042646717071533204
1717857802967466500,7.169466552734375,9.821314485168456,0.29224224014282224,0.04938040924072265
1717857802977507600,7.179507568359375,9.81936919631958,0.2931400657653808,0.026485855865478514
1717857802987548700,7.189548583984375,9.836727158355712,0.28012159423828126,0.018255787658691406
1717857802997588500,7.19958837890625,9.834931507110594,0.29134441452026366,0.030825346374511717
1717857803007629300,7.20962939453125,9.826252526092528,0.29269115295410153,0.03456628646850586
1717857803017670400,7.21967041015625,9.824157599639893,0.30615853729248044,0.04129997863769531
1717857803027711500,7.22971142578125,9.817274269866942,0.2883516624450683,0.034715924072265626
1717857803037752300,7.23975244140625,9.829394915771484,0.28954876327514645,0.035763387298583985
1717857803047792400,7.24979248046875,9.833884043884277,0.30481179885864257,0.04339490509033203
1717857803057833500,7.25983349609375,9.835978970336914,0.2861070983886719,0.029478607940673827
1717857803067874300,7.269874267578125,9.831040929412842,0.2885013000488281,0.027832594299316404
1717857803077915400,7.279915283203125,9.827299989318847,0.2958335426330566,0.033818098449707026
1717857803087956500,7.28995654296875,9.836876795959473,0.3003226707458496,0.02663549346923828
1717857803097997300,7.299997314453125,9.828646727752686,0.2914940521240234,0.02154781494140625
1717857803108037400,7.310037353515625,9.82580361328125,0.30181904678344723,0.04638765716552734
1717857803118078500,7.320078369140625,9.840318460845946,0.3016694091796875,0.05117606048583984
1717857803128119600,7.33011962890625,9.822361948394775,0.30735563812255856,0.04863222122192382
1717857803138160400,7.340160400390625,9.823409411621093,0.2962824554443359,0.034715924072265626
1717857803148201500,7.350201416015625,9.830143103790283,0.2876034744262695,0.034715924072265626
1717857803158241500,7.360241455078125,9.827898539733885,0.2946364418029785,0.02902969512939453
1717857803168282600,7.37028271484375,9.824157599639893,0.2861070983886719,0.015861585998535155
1717857803178323700,7.38032373046875,9.840019185638427,0.29613281784057616,0.02259527816772461
1717857803188364800,7.39036474609375,9.827299989318847,0.3022679595947265,0.033219548034667964
1717857803198405600,7.400405517578125,9.8319387550354,0.2882020248413086,0.037708676147460936
1717857803208445700,7.41044580078125,9.816376444244383,0.29179332733154295,0.020350714111328123
1717857803218486800,7.42048681640625,9.809193839263916,0.30196868438720703,0.03277063522338867
1717857803228527900,7.43052783203125,9.81233622894287,0.3128922294616699,0.04668693237304687
1717857803238568700,7.440568603515625,9.821613760375977,0.2950853546142578,0.02633621826171875
1717857803248609800,7.45060986328125,9.820267021942138,0.296881005859375,0.03965396499633789
1717857803258651000,7.46065087890625,9.828646727752686,0.2985270195007324,0.041748891448974604
1717857803268691000,7.47069091796875,9.827748902130127,0.2941875289916992,0.0430956298828125
1717857803278731800,7.480731689453125,9.83178911743164,0.2902969512939453,0.029478607940673827
1717857803288772900,7.49077294921875,9.822960498809813,0.28101941986083984,0.039354689788818356
1717857803298813700,7.500813720703125,9.8311905670166,0.2889502128601074,0.03755903854370117
1717857803308854800,7.510854736328125,9.824007962036132,0.29403789138793945,0.03920505218505859
1717857803318895900,7.520895751953125,9.831040929412842,0.2910451393127441,0.03965396499633789
1717857803328935700,7.530935791015625,9.829245278167724,0.2985270195007324,0.04399345550537109
1717857803338976500,7.5409765625,9.82610288848877,0.29658173065185545,0.04474164352416992
1717857803349017900,7.551017822265625,9.816825357055663,0.2931400657653808,0.03860650177001953
1717857803359059000,7.561058837890625,9.827449626922608,0.2888005752563476,0.03516483688354492
1717857803369099800,7.571099853515625,9.820715934753418,0.2976291938781738,0.03172317199707031
1717857803379139600,7.5811396484375,9.840019185638427,0.28745383682250975,0.02289455337524414
1717857803389180700,7.5911806640625,9.839270997619629,0.2877531120300293,0.03800795135498047
1717857803399221800,7.6012216796875,9.843909763336182,0.2947860794067383,0.0282815071105957
1717857803409262600,7.6112626953125,9.818770645904541,0.29822774429321286,0.045938744354248044
1717857803419303700,7.6213037109375,9.81862100830078,0.30196868438720703,0.049829322052001954
1717857803429344800,7.6313447265625,9.83837317199707,0.3136404174804687,0.03995324020385742
1717857803439384600,7.641384521484375,9.833285493469237,0.31049802780151364,0.03621230010986328
1717857803449425700,7.65142578125,9.803507610321045,0.2980781066894531,0.040402153015136714
1717857803459466800,7.661466796875,9.809044201660155,0.303913973236084,0.030825346374511717
1717857803469507600,7.671507568359375,9.790489138793944,0.282815071105957,0.021697452545166016
1717857803479548700,7.681548583984375,9.7423058303833,0.28700492401123046,0.035763387298583985
1717857803489588700,7.691588623046875,9.891494521331786,0.29284079055786133,0.039354689788818356
1717857803499629800,7.7016298828125,9.9338419631958,0.2931400657653808,0.028730419921875
1717857803509670700,7.711670654296875,9.885060104370117,0.3113958534240722,0.042945992279052735
1717857803519711700,7.721711669921875,9.786149648284912,0.2823661582946777,0.06643909606933593
1717857803529752800,7.7317529296875,9.747094233703613,0.28640637359619137,0.041000703430175776
1717857803539793700,7.741793701171875,9.803956523132324,0.30795418853759765,0.046537294769287106
1717857803549833700,7.751833740234375,9.88341409072876,0.32411504974365235,0.03516483688354492
1717857803559874800,7.761874755859375,9.861866275787353,0.31379005508422847,0.016609774017333982
1717857803569915600,7.77191552734375,9.791087689208984,0.3067570877075195,0.0330699104309082
1717857803579956700,7.781956787109375,9.783156896209716,0.2953846298217773,0.03681085052490234
1717857803589997800,7.791997802734375,9.834332956695556,0.2781763053894043,0.0430956298828125
1717857803600038000,7.802037841796875,9.86964743118286,0.28700492401123046,0.04339490509033203
1717857803610078700,7.81207861328125,9.8189202835083,0.30466216125488277,0.032920272827148434
1717857803620119800,7.822119873046875,9.79348189086914,0.3098994773864746,0.025438392639160156
1717857803630161000,7.832160888671875,9.81278514175415,0.30271687240600587,0.034715924072265626
1717857803640201700,7.84220166015625,9.85094273071289,0.29658173065185545,0.02454056701660156
1717857803650242800,7.852242919921875,9.849745629882811,0.28535891036987304,0.04863222122192382
1717857803660283000,7.862282958984375,9.801113408660887,0.2825157958984375,0.04548983154296875
1717857803670324000,7.872323974609375,9.801711959075927,0.27189152603149414,0.04219780426025391
1717857803680364800,7.88236474609375,9.830592016601562,0.30570962448120115,0.031573534393310544
1717857803690406000,7.892406005859375,9.854085120391845,0.3003226707458496,0.02858078231811523
1717857803700446700,7.90244677734375,9.841814836883545,0.2979284690856933,0.05057751007080078
1717857803710486500,7.912486572265625,9.823409411621093,0.2832639839172363,0.047285482788085934
1717857803720527600,7.922527587890625,9.804704711151123,0.2834136215209961,0.0526724365234375
1717857803730568700,7.932568603515625,9.820566297149657,0.3058592620849609,0.03456628646850586
1717857803740609500,7.942609619140625,9.85079309310913,0.3049614364624023,0.04129997863769531
1717857803750650600,7.952650634765625,9.833135855865478,0.29134441452026366,0.028131869506835935
1717857803760691700,7.962691650390625,9.810540577697754,0.2920926025390625,0.03696048812866211
1717857803770731800,7.972731689453125,9.813682967376709,0.29777883148193357,0.05252279891967773
1717857803780772600,7.982772705078125,9.842413387298583,0.296881005859375,0.039055414581298825
1717857803790813700,7.992813720703125,9.84450831375122,0.3058592620849609,0.04025251541137695
1717857803800854800,8.002854736328125,9.826551801300049,0.30690672531127927,0.022744915771484374
1717857803810895600,8.0128955078125,9.819818109130859,0.29403789138793945,0.03127425918579101
1717857803820936700,8.022936767578125,9.828946002960205,0.3016694091796875,0.042048166656494135
1717857803830976800,8.032976806640624,9.85109236831665,0.3054103492736816,0.03890577697753906
1717857803841017600,8.043017578125,9.830891291809081,0.29448680419921874,0.03621230010986328
1717857803851058700,8.05305859375,9.81278514175415,0.28999767608642574,0.0378583137512207
1717857803861099800,8.063099853515626,9.808744926452636,0.2947860794067383,0.027533319091796873
1717857803871140600,8.073140625,9.83208839263916,0.2950853546142578,0.03127425918579101
1717857803881180700,8.0831806640625,9.833435131072997,0.3022679595947265,0.03980360260009765
1717857803891221800,8.0932216796875,9.83777462158203,0.29388825378417965,0.04129997863769531
1717857803901262800,8.103262939453124,9.817872820281982,0.28057050704956055,0.03651157531738281
1717857803911303700,8.1133037109375,9.8189202835083,0.289848038482666,0.028431144714355466
1717857803921344800,8.1233447265625,9.8311905670166,0.29403789138793945,0.02693476867675781
1717857803931385900,8.1333857421875,9.832537305450439,0.311545491027832,0.03950432739257812
1717857803941426000,8.143426025390625,9.823110136413574,0.30256723480224607,0.03531447448730469
1717857803951466800,8.153466796875,9.81862100830078,0.28730419921875,0.04234744186401367
1717857803961507800,8.1635078125,9.827748902130127,0.29703064346313474,0.03696048812866211
1717857803971548700,8.173548583984376,9.851541281127929,0.2914940521240234,0.03755903854370117
1717857803981589800,8.18358984375,9.829544553375243,0.29269115295410153,0.03890577697753906
1717857803991629800,8.1936298828125,9.819818109130859,0.29179332733154295,0.0378583137512207
1717857804001671000,8.2036708984375,9.81278514175415,0.2920926025390625,0.03037643356323242
1717857804011711700,8.213711669921874,9.824157599639893,0.28954876327514645,0.03965396499633789
1717857804021752800,8.2237529296875,9.834781869506836,0.2919429649353027,0.027682956695556638
1717857804031794000,8.2337939453125,9.833584768676758,0.29718028106689454,0.03232172241210937
1717857804041833700,8.243833740234376,9.830741654205323,0.3010708587646484,0.04997895965576172
1717857804051874600,8.25387451171875,9.82550433807373,0.2931400657653808,0.03247136001586914
1717857804061915600,8.26391552734375,9.834332956695556,0.2979284690856933,0.03666121292114258
1717857804071956700,8.273956787109375,9.826402163696288,0.2910451393127441,0.04249707946777344
1717857804081997600,8.28399755859375,9.830442378997802,0.2889502128601074,0.034715924072265626
1717857804092038700,8.29403857421875,9.835978970336914,0.2920926025390625,0.029628245544433593
1717857804102078700,8.30407861328125,9.816226806640625,0.2876034744262695,0.03142389678955078
1717857804112119600,8.31411962890625,9.826851076507568,0.2967313682556152,0.03127425918579101
1717857804122160600,8.32416064453125,9.828347452545165,0.299424845123291,0.03426701126098632
1717857804132201700,8.33420166015625,9.820715934753418,0.3007715835571289,0.037708676147460936
1717857804142242600,8.34424267578125,9.819818109130859,0.28865093765258787,0.03366846084594726
1717857804152283600,8.35428369140625,9.827599264526366,0.2856581855773926,0.0383072265625
1717857804162323700,8.36432373046875,9.845705414581298,0.2867056488037109,0.043245267486572266
1717857804172364800,8.37436474609375,9.846453602600096,0.299424845123291,0.03696048812866211
1717857804182406000,8.384406005859375,9.819668471527098,0.3007715835571289,0.02902969512939453
1717857804192447000,8.394447021484375,9.807398188018798,0.29134441452026366,0.03860650177001953
1717857804202488000,8.404488037109376,9.82580361328125,0.29448680419921874,0.0282815071105957
1717857804212527900,8.41452783203125,9.829544553375243,0.2876034744262695,0.030526071166992186
1717857804222568700,8.424568603515626,9.830592016601562,0.2876034744262695,0.024390929412841794
1717857804232609800,8.43460986328125,9.824157599639893,0.29867665710449215,0.0282815071105957
1717857804242650600,8.444650634765624,9.815478618621826,0.2888005752563476,0.020350714111328123
1717857804252691700,8.454691650390625,9.834632231903075,0.28206688308715816,0.030825346374511717
1717857804262733000,8.464733154296875,9.823559049224853,0.29433716659545894,0.03037643356323242
1717857804272772900,8.47477294921875,9.818022457885741,0.2973299186706543,0.02858078231811523
1717857804282813700,8.484813720703125,9.81906992111206,0.3012204963684082,0.03142389678955078
1717857804292854800,8.494854736328126,9.824157599639893,0.3033154228210449,0.03965396499633789
1717857804302895900,8.504895751953125,9.850344180297851,0.2937386161804199,0.04803367080688476
1717857804312936700,8.514936767578124,9.83777462158203,0.29658173065185545,0.037409400939941405
1717857804322976800,8.524976806640625,9.819668471527098,0.30271687240600587,0.04055179061889648
1717857804333017900,8.535017822265624,9.822361948394775,0.2952349922180176,0.036361937713623046
1717857804343059000,8.545058837890625,9.822661223602294,0.2871545616149902,0.03800795135498047
1717857804353099800,8.555099853515625,9.83882208480835,0.28865093765258787,0.03860650177001953
1717857804363140900,8.565140869140626,9.846453602600096,0.28730419921875,0.03845686416625976
1717857804373181700,8.575181640625,9.828197814941406,0.3081038261413574,0.039055414581298825
1717857804383221800,8.5852216796875,9.833734406280517,0.31438860549926756,0.03860650177001953
1717857804393262800,8.595262939453125,9.809343476867674,0.3064578125,0.041000703430175776
1717857804403304000,8.605303955078124,9.810390940093994,0.2813186950683594,0.04189852905273437
1717857804413344800,8.6153447265625,9.836577520751952,0.2941875289916992,0.049530046844482416
1717857804423385900,8.6253857421875,9.848847804260254,0.2885013000488281,0.039354689788818356
1717857804433426000,8.635426025390625,9.829544553375243,0.2979284690856933,0.030825346374511717
1717857804443467000,8.645467041015625,9.821763397979735,0.2958335426330566,0.017208324432373044
1717857804453507800,8.6555078125,9.82550433807373,0.2973299186706543,0.027234043884277342
1717857804463549000,8.665548828125,9.83777462158203,0.2790741310119629,0.0326209976196289
1717857804473590000,8.675590087890624,9.833734406280517,0.29433716659545894,0.029179332733154296
1717857804483630800,8.685630859375,9.816974994659423,0.3049614364624023,0.04025251541137695
1717857804493671000,8.6956708984375,9.809343476867674,0.29882629470825195,0.03995324020385742
1717857804503712000,8.7057119140625,9.813084416961669,0.30047230834960936,0.03007715835571289
1717857804513752800,8.7157529296875,9.74859060974121,0.3112462158203125,0.03202244720458984
1717857804523794000,8.7257939453125,9.861417362976074,0.3082534637451172,0.04668693237304687
1717857804533835000,8.7358349609375,9.88266590270996,0.30885201416015623,0.034715924072265626
1717857804543875800,8.745875732421876,9.881468801879882,0.3119944038391113,0.0282815071105957
1717857804553916000,8.755916015625,9.810091664886475,0.2893991256713867,0.05027823486328125
1717857804563957000,8.76595703125,9.783007258605956,0.2905962265014648,0.020350714111328123
1717857804573998000,8.775998046875,9.811139128112792,0.30885201416015623,0.03725976333618164
1717857804584039000,8.786038818359375,9.867253229522705,0.31049802780151364,0.03516483688354492
1717857804594080000,8.796080078125,9.862614463806151,0.29927520751953124,0.020949264526367185
1717857804604119800,8.806119873046875,9.794529354095458,0.2973299186706543,0.03486556167602539
1717857804614161000,8.816160888671876,9.791835877227783,0.27892449340820313,0.048183308410644526
1717857804624201700,8.82620166015625,9.827150351715087,0.28221652069091796,0.03800795135498047
1717857804634242800,8.836242919921874,9.854534033203125,0.28924948806762696,0.029628245544433593
1717857804644283600,8.84628369140625,9.85124200592041,0.30137013397216794,0.023343466186523436
1717857804654323700,8.85632373046875,9.80665,0.2967313682556152,0.014514847564697266
1717857804664364800,8.86636474609375,9.788094937133788,0.2914940521240234,0.03561374969482422
1717857804674406000,8.876406005859375,9.82550433807373,0.29269115295410153,0.05117606048583984
1717857804684446700,8.88644677734375,9.859621711730956,0.2964320930480957,0.044592005920410155
1717857804694487800,8.89648779296875,9.832537305450439,0.3064578125,0.028131869506835935
1717857804704529000,8.90652880859375,9.808744926452636,0.30137013397216794,0.023942016601562498
1717857804714569000,8.91656884765625,9.822062673187256,0.2941875289916992,0.04474164352416992
1717857804724609800,8.92660986328125,9.836577520751952,0.2952349922180176,0.026785131072998045
1717857804734651000,8.93665087890625,9.841365924072266,0.28266543350219725,0.03696048812866211
1717857804744692000,8.94669189453125,9.816077169036864,0.2893991256713867,0.030974983978271482
1717857804754732800,8.95673291015625,9.807996738433838,0.29284079055786133,0.027533319091796873
1717857804764774000,8.96677392578125,9.81847137069702,0.30750527572631836,0.032920272827148434
1717857804774814000,8.97681396484375,9.833435131072997,0.3124433166503906,0.029628245544433593
1717857804784854800,8.986854736328125,9.846004689788817,0.30151977157592774,0.050128597259521485
1717857804794896000,8.996895751953126,9.834482594299315,0.2958335426330566,0.044891281127929686
1717857804804937000,9.00693701171875,9.805303261566161,0.29343934097290036,0.04399345550537109
1717857804814977800,9.016977783203124,9.81862100830078,0.3000233955383301,0.03950432739257812
1717857804825017900,9.027017822265625,9.853935482788085,0.2989759323120117,0.03247136001586914
1717857804835059000,9.037058837890624,9.833734406280517,0.29343934097290036,0.03531447448730469
1717857804845100000,9.04710009765625,9.818022457885741,0.2807201446533203,0.03202244720458984
1717857804855140900,9.057140869140625,9.82460651245117,0.29388825378417965,0.04608838195800781
1717857804865182000,9.067181884765626,9.840468098449707,0.297479556274414,0.04504091873168945
1717857804875223000,9.07722314453125,9.834781869506836,0.30047230834960936,0.0326209976196289
1717857804885262800,9.087262939453124,9.818022457885741,0.2976291938781738,0.04115034103393554
1717857804895304000,9.097303955078125,9.820117384338378,0.2967313682556152,0.03232172241210937
1717857804905345000,9.107344970703124,9.813832604980469,0.2838625343322754,0.043245267486572266
1717857804915385900,9.1173857421875,9.827150351715087,0.28580782318115233,0.040402153015136714
1717857804925427000,9.127427001953125,9.831040929412842,0.2885013000488281,0.023942016601562498
1717857804935466800,9.137466796875,9.826551801300049,0.29493571701049803,0.03800795135498047
1717857804945507800,9.1475078125,9.815628256225585,0.2952349922180176,0.03486556167602539
1717857804955548700,9.157548583984376,9.828497090148925,0.29837738189697266,0.04219780426025391
1717857804965589800,9.16758984375,9.835679695129395,0.29837738189697266,0.03486556167602539
1717857804975630800,9.177630859375,9.809044201660155,0.29403789138793945,0.04234744186401367
1717857804985671700,9.187671630859375,9.81293477935791,0.29089550170898437,0.05027823486328125
1717857804995711700,9.197711669921874,9.830592016601562,0.2958335426330566,0.043544542694091797
1717857805005752800,9.2077529296875,9.841814836883545,0.30526071166992186,0.030974983978271482
1717857805015794000,9.2177939453125,9.830741654205323,0.29867665710449215,0.047285482788085934
1717857805025834800,9.227834716796876,9.813982242584228,0.2979284690856933,0.04085106582641601
1717857805035875800,9.237875732421875,9.824007962036132,0.2904465888977051,0.04234744186401367
1717857805045916000,9.247916015625,9.827599264526366,0.2883516624450683,0.04055179061889648
1717857805055956700,9.257956787109375,9.828497090148925,0.296881005859375,0.024690204620361325
1717857805065997800,9.267997802734374,9.832686943054199,0.30271687240600587,0.02858078231811523
1717857805076039000,9.278038818359375,9.833734406280517,0.3037643356323242,0.03621230010986328
1717857805086079700,9.288079833984375,9.827599264526366,0.29837738189697266,0.028730419921875
1717857805096120800,9.298120849609376,9.816974994659423,0.29493571701049803,0.027832594299316404
1717857805106161000,9.308160888671875,9.832986218261718,0.2920926025390625,0.0430956298828125
1717857805116202000,9.318201904296876,9.828646727752686,0.29388825378417965,0.04548983154296875
1717857805126242800,9.328242919921875,9.83134020462036,0.2979284690856933,0.03426701126098632
1717857805136284000,9.338283935546874,9.81906992111206,0.2995744827270508,0.025737667846679687
1717857805146325000,9.348324951171875,9.83852280960083,0.29343934097290036,0.032920272827148434
1717857805156365800,9.35836572265625,9.834482594299315,0.2916436897277832,0.03621230010986328
1717857805166406000,9.368406005859375,9.822810861206055,0.2855085479736328,0.031573534393310544
1717857805176447000,9.378447021484375,9.824456874847412,0.28954876327514645,0.03456628646850586
1717857805186487800,9.38848779296875,9.828497090148925,0.29179332733154295,0.04025251541137695
1717857805196529000,9.39852880859375,9.817124632263184,0.2941875289916992,0.03366846084594726
1717857805206570000,9.408570068359374,9.809193839263916,0.29837738189697266,0.03666121292114258
1717857805216610000,9.418610107421875,9.824905787658691,0.3066074501037597,0.03127425918579101
1717857805226651000,9.42865087890625,9.83792425918579,0.30735563812255856,0.03067570877075195
1717857805236692000,9.43869189453125,9.842413387298583,0.2976291938781738,0.050727147674560547
1717857805246733000,9.448733154296875,9.821913035583496,0.2841618095397949,0.027533319091796873
1717857805256774000,9.45877392578125,9.815029705810547,0.2947860794067383,0.03486556167602539
1717857805266813700,9.468813720703125,9.811438403320311,0.3064578125,0.04997895965576172
1717857805276854800,9.478854736328126,9.816526081848144,0.3081038261413574,0.03860650177001953
1717857805286895900,9.488895751953125,9.825953250885009,0.30615853729248044,0.03456628646850586
1717857805296936700,9.498936767578124,9.824756150054931,0.3016694091796875,0.03531447448730469
1717857805306977800,9.508977783203125,9.823259774017334,0.29343934097290036,0.03202244720458984
1717857805317018600,9.5190185546875,9.835230782318115,0.28580782318115233,0.03845686416625976
1717857805327058700,9.52905859375,9.839869548034667,0.30137013397216794,0.02558803024291992
1717857805337099800,9.539099853515625,9.821164847564697,0.3024175971984863,0.04129997863769531
1717857805347140900,9.549140869140626,9.80724855041504,0.3001730331420898,0.041000703430175776
1717857805357181700,9.559181640625,9.823110136413574,0.30346506042480464,0.04025251541137695
1717857805367222800,9.569222900390624,9.848249253845214,0.3021183219909668,0.03531447448730469
1717857805377262800,9.579262939453125,9.824905787658691,0.2946364418029785,0.053420624542236325
1717857805387304000,9.589303955078124,9.824157599639893,0.30181904678344723,0.04085106582641601
1717857805397344800,9.5993447265625,9.819219558715819,0.2902969512939453,0.03172317199707031
1717857805407385900,9.6093857421875,9.826402163696288,0.2941875289916992,0.026485855865478514
1717857805417427000,9.619427001953126,9.84465795135498,0.2929904281616211,0.046537294769287106
1717857805427467800,9.6294677734375,9.840617736053467,0.29718028106689454,0.036062662506103516
1717857805437507800,9.6395078125,9.827599264526366,0.2995744827270508,0.03651157531738281
1717857805447549000,9.649548828125,9.82565397567749,0.303913973236084,0.03696048812866211
1717857805457589800,9.65958984375,9.833285493469237,0.2989759323120117,0.036062662506103516
1717857805467630800,9.669630859375,9.827000714111328,0.29972412033081053,0.03172317199707031
1717857805477672000,9.679671875,9.834033681488037,0.3010708587646484,0.039055414581298825
1717857805487712800,9.689712646484375,9.824456874847412,0.3037643356323242,0.024390929412841794
1717857805497752800,9.6997529296875,9.833584768676758,0.2991255699157715,0.02454056701660156
1717857805507794000,9.7097939453125,9.836876795959473,0.29837738189697266,0.03441664886474609
1717857805517835000,9.7198349609375,9.839420635223387,0.29343934097290036,0.04055179061889648
1717857805527875800,9.729875732421876,9.823858324432372,0.2893991256713867,0.03666121292114258
1717857805537917000,9.7399169921875,9.81862100830078,0.2796726814270019,0.037708676147460936
1717857805547957000,9.74995703125,9.682301151275635,0.27997195663452146,0.03202244720458984
1717857805557997800,9.759997802734375,9.827449626922608,0.313490779876709,0.03456628646850586
1717857805568039000,9.770038818359374,9.970802451324463,0.30960020217895506,0.03202244720458984
1717857805578080000,9.780080078125,9.992499903869628,0.2684498611450195,0.015113397979736327
1717857805588120800,9.790120849609375,9.780463419342041,0.25962124252319335,0.0713771369934082
1717857805598162000,9.800161865234376,9.673023619842528,0.277727392578125,0.06075286712646484
1717857805608202000,9.810201904296875,9.786598561096191,0.3024175971984863,0.05731120223999023
1717857805618243000,9.8202431640625,9.923816243743897,0.3181295455932617,0.05626373901367187
1717857805628284000,9.830283935546875,9.929951385498047,0.3338414939880371,0.03486556167602539
1717857805638325000,9.840324951171874,9.76774422302246,0.3247136001586914,0.02424129180908203
1717857805648366000,9.850365966796875,9.737966339874268,0.32097266006469727,0.016160861206054686
1717857805658406000,9.860406005859375,9.834482594299315,0.28909985046386716,0.010025719451904296
1717857805668446700,9.87044677734375,9.899724589538573,0.2832639839172363,-0.010474632263183592
1717857805678487800,9.88048779296875,9.866205766296385,0.30316578521728516,0.003142389678955078
1717857805688529000,9.89052880859375,9.792733702850342,0.2991255699157715,0.023942016601562498
1717857805698569700,9.90056982421875,9.765350021362304,0.297479556274414,0.029478607940673827
1717857805708610800,9.91061083984375,9.841216286468505,0.3043628860473633,0.03725976333618164
1717857805718651000,9.92065087890625,9.884910466766357,0.3022679595947265,0.04938040924072265
1717857805728691700,9.930691650390624,9.843161575317382,0.289848038482666,0.04863222122192382
1717857805738732800,9.94073291015625,9.758017778778076,0.2859574607849121,0.05386953735351562
1717857805748774000,9.95077392578125,9.789740950775146,0.2759317413330078,0.060603229522705075
1717857805758814700,9.960814697265626,9.845406139373779,0.2759317413330078,0.05162497329711914
1717857805768854800,9.970854736328125,9.86964743118286,0.2861070983886719,0.04399345550537109
1717857805778896000,9.980895751953126,9.818172095489501,0.2931400657653808,0.03696048812866211
1717857805788937000,9.99093701171875,9.77358008956909,0.30735563812255856,0.033219548034667964
1717857805798977800,10.000977783203124,9.803956523132324,0.31528643112182614,0.027234043884277342
1717857805809019000,10.011018798828125,9.86964743118286,0.3226186737060547,0.02319382858276367
1717857805819060000,10.02106005859375,9.847201790618897,0.3028665100097656,0.021098902130126954
1717857805829099800,10.031099853515625,9.802460147094726,0.29837738189697266,0.033518823242187495
1717857805839140900,10.041140869140625,9.783007258605956,0.277727392578125,0.03800795135498047
1717857805849182000,10.051181884765626,9.827898539733885,0.2715922508239746,0.037409400939941405
1717857805859222800,10.061222900390625,9.872340908050537,0.2850596351623535,0.030526071166992186
1717857805869264000,10.071263916015624,9.842563024902343,0.3003226707458496,0.03396773605346679
1717857805879304000,10.081303955078125,9.790189863586425,0.30151977157592774,0.03172317199707031
1717857805889345000,10.091344970703124,9.80051485824585,0.303913973236084,0.04249707946777344
1717857805899385900,10.1013857421875,9.852588744354247,0.3028665100097656,0.039055414581298825
1717857805909427000,10.111427001953125,9.86291373901367,0.3016694091796875,0.043245267486572266
1717857805919468000,10.121468017578126,9.828048177337646,0.2947860794067383,0.04219780426025391
1717857805929508900,10.1315087890625,9.7936315284729,0.2798223190307617,0.03411737365722656
1717857805939549000,10.141548828125,9.814880068206786,0.2920926025390625,0.03142389678955078
1717857805949590000,10.151590087890625,9.842413387298583,0.28431144714355466,0.043544542694091797
1717857805959630800,10.161630859375,9.839570272827148,0.29074586410522457,0.03725976333618164
1717857805969672000,10.171671875,9.821164847564697,0.2937386161804199,0.030825346374511717
1717857805979713000,10.181713134765625,9.807547825622558,0.2985270195007324,0.044292730712890624
1717857805989752800,10.1917529296875,9.816376444244383,0.3055599868774414,0.05087678527832031
1717857805999793700,10.201793701171875,9.854085120391845,0.3133411422729492,0.04638765716552734
1717857806009834800,10.211834716796876,9.836278245544433,0.3006219459533691,0.04129997863769531
1717857806019875800,10.221875732421875,9.815029705810547,0.2964320930480957,0.03696048812866211
1717857806029916700,10.231916748046874,9.809942027282714,0.28535891036987304,0.026186580657958983
1717857806039957800,10.241957763671875,9.833435131072997,0.2914940521240234,0.029478607940673827
1717857806049997800,10.251997802734374,9.84555577697754,0.2850596351623535,0.03232172241210937
1717857806060039000,10.262038818359375,9.833435131072997,0.29358897857666016,0.036361937713623046
1717857806070079700,10.272079833984375,9.805153623962402,0.29358897857666016,0.0383072265625
1717857806080120800,10.282120849609376,9.818172095489501,0.29822774429321286,0.04249707946777344
1717857806090162000,10.292161865234375,9.83178911743164,0.3043628860473633,0.044592005920410155
1717857806100202800,10.30220263671875,9.854683670806883,0.3000233955383301,0.03426701126098632
1717857806110242800,10.312242919921875,9.840468098449707,0.29089550170898437,0.04144961624145507
1717857806120284000,10.322283935546874,9.817872820281982,0.29284079055786133,0.03561374969482422
1717857806130324700,10.33232470703125,9.824157599639893,0.28206688308715816,0.033219548034667964
1717857806140365800,10.34236572265625,9.832986218261718,0.2829647087097168,0.02693476867675781
1717857806150407000,10.352406982421876,9.837026433563231,0.28311434631347654,0.033219548034667964
1717857806160447000,10.362447021484375,9.819668471527098,0.30466216125488277,0.035464112091064454
1717857806170487800,10.37248779296875,9.810091664886475,0.3024175971984863,0.048183308410644526
1717857806180529000,10.38252880859375,9.827299989318847,0.30466216125488277,0.048931496429443354
1717857806190569200,10.3925693359375,9.836427883148193,0.31259295425415035,0.05087678527832031
1717857806200610000,10.402610107421875,9.83178911743164,0.3028665100097656,0.043544542694091797
1717857806210651100,10.412651123046874,9.829843828582764,0.2893991256713867,0.05057751007080078
1717857806220691200,10.422691162109375,9.806500362396239,0.2877531120300293,0.04668693237304687
1717857806230732300,10.432732177734374,9.83178911743164,0.2902969512939453,0.029628245544433593
1717857806240773000,10.442773193359375,9.842413387298583,0.28790274963378903,0.03681085052490234
1717857806250814200,10.452814208984375,9.833435131072997,0.2769792045593262,0.042646717071533204
1717857806260855300,10.462855224609376,9.821314485168456,0.29837738189697266,0.03800795135498047
1717857806270895000,10.47289501953125,9.814131880187988,0.30466216125488277,0.03755903854370117
1717857806280936000,10.48293603515625,9.847949978637695,0.304512523651123,0.05027823486328125
1717857806290977000,10.49297705078125,9.827299989318847,0.3091512893676758,0.03486556167602539
1717857806301018000,10.50301806640625,9.820566297149657,0.2979284690856933,0.042048166656494135
1717857806311059000,10.513058837890625,9.824756150054931,0.28206688308715816,0.035464112091064454
1717857806321100000,10.52310009765625,9.835679695129395,0.28356325912475583,0.0326209976196289
1717857806331140000,10.53314013671875,9.830592016601562,0.28446108474731446,0.03202244720458984
1717857806341181000,10.543180908203125,9.83822353439331,0.3042132484436035,0.036062662506103516
1717857806351222000,10.553221923828126,9.815777893829345,0.3161842567443848,0.04608838195800781
1717857806361263000,10.56326318359375,9.821164847564697,0.29837738189697266,0.04159925384521484
1717857806371304000,10.573303955078124,9.826851076507568,0.2976291938781738,0.05252279891967773
1717857806381344000,10.583343994140625,9.827000714111328,0.30256723480224607,0.037409400939941405
1717857806391385000,10.593385009765624,9.809193839263916,0.29882629470825195,0.04519055633544922
1717857806401426200,10.60342626953125,9.824307237243652,0.29074586410522457,0.03247136001586914
1717857806411467000,10.613467041015625,9.835380419921874,0.29493571701049803,0.02154781494140625
1717857806421508000,10.623508056640626,9.83747534637451,0.29284079055786133,0.028880057525634766
1717857806431549200,10.633549072265625,9.832986218261718,0.29014731369018554,0.05386953735351562
1717857806441589000,10.643589111328126,9.823559049224853,0.2902969512939453,0.03696048812866211
1717857806451630000,10.653630126953125,9.826851076507568,0.3058592620849609,0.04534019393920898
1717857806461671200,10.663671142578124,9.836427883148193,0.311545491027832,0.03681085052490234
1717857806471712000,10.6737119140625,9.834033681488037,0.3107973030090332,0.03441664886474609
1717857806481753000,10.683753173828125,9.82565397567749,0.2964320930480957,0.03725976333618164
1717857806491794200,10.693794189453126,9.815777893829345,0.28865093765258787,0.03441664886474609
1717857806501834200,10.703834228515625,9.81862100830078,0.29284079055786133,0.02977788314819336
1717857806511875000,10.713875,9.823409411621093,0.2882020248413086,0.023044190979003905
1717857806521916200,10.723916259765625,9.829993466186522,0.28909985046386716,0.032920272827148434
1717857806531957200,10.733957275390624,9.83747534637451,0.3010708587646484,0.03800795135498047
1717857806541998000,10.743998046875,9.822810861206055,0.30181904678344723,0.031872809600830075
1717857806552038100,10.7540380859375,9.818172095489501,0.30346506042480464,0.03441664886474609
1717857806562079200,10.764079345703125,9.840318460845946,0.2920926025390625,0.028131869506835935
1717857806572120000,10.7741201171875,9.835530057525634,0.2989759323120117,0.033518823242187495
1717857806582161200,10.7841611328125,9.83223803024292,0.2925415153503418,0.029179332733154296
1717857806592202200,10.7942021484375,9.816675719451904,0.29703064346313474,0.036361937713623046
1717857806602243000,10.8042431640625,9.817423907470703,0.2911947769165039,0.027832594299316404
1717857806612283100,10.814283203125,9.835978970336914,0.2979284690856933,0.040102877807617184
1717857806622324200,10.82432421875,9.835829332733153,0.28371289672851563,0.029179332733154296
1717857806632365300,10.834365234375,9.81293477935791,0.2914940521240234,0.03651157531738281
1717857806642406100,10.84440625,9.836727158355712,0.304512523651123,0.04144961624145507
1717857806652447200,10.854447265625,9.822212310791015,0.29358897857666016,0.040102877807617184
1717857806662487000,10.864487060546875,9.817124632263184,0.2889502128601074,0.037110125732421874
1717857806672528100,10.874528076171876,9.72300257949829,0.3006219459533691,0.03426701126098632
1717857806682569000,10.88456884765625,9.847501065826416,0.3021183219909668,0.047884033203124995
1717857806692610000,10.894610107421874,9.954342314910889,0.28520927276611324,0.028131869506835935
1717857806702651100,10.904651123046875,9.956886154174803,0.26815058593749996,0.02454056701660156
1717857806712692000,10.91469189453125,9.78076269454956,0.26381109542846676,0.049530046844482416
1717857806722732000,10.92473193359375,9.693523971557617,0.2883516624450683,0.04519055633544922
1717857806732773000,10.934773193359375,9.803357972717285,0.28790274963378903,0.037110125732421874
1717857806742814000,10.94481396484375,9.916484001159667,0.31049802780151364,0.028880057525634766
1717857806752855000,10.95485498046875,9.906009368896484,0.32441432495117184,0.03127425918579101
1717857806762896100,10.964896240234374,9.791835877227783,0.32007483444213863,0.05252279891967773
1717857806772936200,10.974936279296875,9.75412720108032,0.2959831802368164,0.035464112091064454
1717857806782977000,10.98497705078125,9.830143103790283,0.2700958747863769,0.031573534393310544
1717857806793018000,10.99501806640625,9.891045608520507,0.2877531120300293,0.041000703430175776
1717857806803059200,11.00505908203125,9.851990193939208,0.29179332733154295,0.03396773605346679
1717857806813100000,11.01510009765625,9.803208335113524,0.3010708587646484,0.02798223190307617
1717857806823141000,11.02514111328125,9.781959795379638,0.2958335426330566,0.035464112091064454
1717857806833181200,11.03518115234375,9.844807588958739,0.29433716659545894,0.025887305450439452
1717857806843222000,11.045221923828125,9.867851779937743,0.2911947769165039,0.04848258361816406
1717857806853263000,11.05526318359375,9.8189202835083,0.3022679595947265,0.050727147674560547
1717857806863304200,11.06530419921875,9.787496386718749,0.28446108474731446,0.031573534393310544
1717857806873345000,11.075344970703124,9.803806885528564,0.2979284690856933,0.032920272827148434
1717857806883385000,11.085385009765625,9.854085120391845,0.3000233955383301,0.020051438903808592
1717857806893426200,11.09542626953125,9.85752678527832,0.29703064346313474,0.0282815071105957
1717857806903467300,11.10546728515625,9.82580361328125,0.30346506042480464,0.030526071166992186
1717857806913508000,11.115508056640625,9.785401460266113,0.2911947769165039,0.03755903854370117
1717857806923549200,11.125549072265626,9.813832604980469,0.28954876327514645,0.02693476867675781
1717857806933590300,11.13559033203125,9.858424610900878,0.30151977157592774,0.029328970336914062
1717857806943630300,11.14563037109375,9.847052153015136,0.3060088996887207,0.03396773605346679
1717857806953671200,11.155671142578125,9.817872820281982,0.3010708587646484,0.03995324020385742
1717857806963712300,11.165712158203124,9.816825357055663,0.2998737579345703,0.03037643356323242
1717857806973753000,11.175753173828125,9.832686943054199,0.2998737579345703,0.02289455337524414
1717857806983794200,11.185794189453125,9.836876795959473,0.2902969512939453,0.03965396499633789
1717857806993835300,11.195835205078126,9.832986218261718,0.29703064346313474,0.02858078231811523
1717857807003875000,11.205875,9.807098912811279,0.27787703018188475,0.026186580657958983
1717857807013916000,11.215916015625,9.806949275207518,0.2871545616149902,0.026036943054199218
1717857807023957000,11.22595703125,9.833285493469237,0.3007715835571289,0.04414309310913086
1717857807033998000,11.235998046875,9.83852280960083,0.3064578125,0.04115034103393554
1717857807044039000,11.246038818359375,9.824456874847412,0.29568390502929687,0.042646717071533204
1717857807054079000,11.256078857421874,9.813682967376709,0.30181904678344723,0.04504091873168945
1717857807064120000,11.2661201171875,9.80605144958496,0.2882020248413086,0.03755903854370117
1717857807074161200,11.2761611328125,9.8189202835083,0.2932897033691406,0.046537294769287106
1717857807084202000,11.286201904296876,9.831040929412842,0.3021183219909668,0.03561374969482422
1717857807094243000,11.2962431640625,9.822062673187256,0.2980781066894531,0.030526071166992186
1717857807104284200,11.3062841796875,9.811737678527832,0.31648353195190426,0.03860650177001953
1717857807114324000,11.316323974609375,9.829993466186522,0.2953846298217773,0.04189852905273437
1717857807124365000,11.326364990234374,9.847501065826416,0.29837738189697266,0.0326209976196289
1717857807134406100,11.33640625,9.836876795959473,0.2985270195007324,0.03920505218505859
1717857807144447000,11.346447021484375,9.823708686828613,0.2941875289916992,0.025438392639160156
1717857807154488000,11.356488037109376,9.814730430603026,0.30137013397216794,0.04548983154296875
1717857807164528000,11.366528076171875,9.829095640563965,0.296881005859375,0.04129997863769531
1717857807174569200,11.3765693359375,9.834183319091796,0.28655601119995117,0.03800795135498047
1717857807184610800,11.38661083984375,9.836577520751952,0.29433716659545894,0.03336918563842773
1717857807194652000,11.39665185546875,9.811737678527832,0.29822774429321286,0.030526071166992186
1717857807204692700,11.406692626953125,9.817423907470703,0.3001730331420898,0.038756139373779294
1717857807214732500,11.416732666015625,9.828347452545165,0.30151977157592774,0.03800795135498047
1717857807224773600,11.426773681640626,9.829993466186522,0.2832639839172363,0.03232172241210937
1717857807234814700,11.436814697265625,9.826252526092528,0.30047230834960936,0.03950432739257812
1717857807244855600,11.44685546875,9.810690215301513,0.30406361083984373,0.032172084808349606
1717857807254896600,11.456896728515625,9.821763397979735,0.2850596351623535,0.03561374969482422
1717857807264937700,11.466937744140624,9.82460651245117,0.29224224014282224,0.036062662506103516
1717857807274977800,11.476977783203125,9.823708686828613,0.2929904281616211,0.02693476867675781
1717857807285018600,11.4870185546875,9.822511585998535,0.28805238723754883,0.03890577697753906
1717857807295059700,11.497059814453126,9.827000714111328,0.2958335426330566,0.036062662506103516
1717857807305100800,11.507100830078125,9.829245278167724,0.29179332733154295,0.03456628646850586
1717857807315141600,11.5171416015625,9.834482594299315,0.29074586410522457,0.03681085052490234
1717857807325182700,11.5271826171875,9.816974994659423,0.29568390502929687,0.038756139373779294
1717857807335222800,11.537222900390624,9.821464122772216,0.29343934097290036,0.04219780426025391
1717857807345263600,11.547263671875,9.826551801300049,0.3007715835571289,0.037110125732421874
1717857807355304700,11.5573046875,9.825953250885009,0.29388825378417965,0.03441664886474609
1717857807365345800,11.567345703125,9.82580361328125,0.30092122116088865,0.02798223190307617
1717857807375386600,11.57738671875,9.812036953735351,0.29358897857666016,0.03755903854370117
1717857807385426700,11.5874267578125,9.821763397979735,0.2888005752563476,0.02528875503540039
1717857807395467800,11.5974677734375,9.82610288848877,0.2973299186706543,0.042945992279052735
1717857807405508900,11.6075087890625,9.8319387550354,0.3042132484436035,0.045938744354248044
1717857807415549700,11.6175498046875,9.834482594299315,0.2959831802368164,0.031872809600830075
1717857807425590800,11.6275908203125,9.822960498809813,0.3028665100097656,0.040701428222656245
1717857807435631900,11.6376318359375,9.827898539733885,0.28954876327514645,0.034715924072265626
1717857807445671700,11.647671630859374,9.815328981018066,0.28476035995483395,0.04085106582641601
1717857807455712800,11.657712646484375,9.837325708770752,0.2888005752563476,0.025887305450439452
1717857807465753900,11.66775390625,9.834781869506836,0.2929904281616211,0.03336918563842773
1717857807475794700,11.677794677734376,9.827748902130127,0.29703064346313474,0.0474351203918457
1717857807485835800,11.687835693359375,9.822361948394775,0.309001651763916,0.04339490509033203
1717857807495875800,11.697875732421876,9.823409411621093,0.2962824554443359,0.03501519927978516
1717857807505917000,11.7079169921875,9.835380419921874,0.30151977157592774,0.030974983978271482
1717857807515957800,11.717957763671874,9.823409411621093,0.2925415153503418,0.03142389678955078
1717857807525998800,11.727998779296875,9.823409411621093,0.29553426742553707,0.04219780426025391
1717857807536040000,11.7380400390625,9.823409411621093,0.2905962265014648,0.030226795959472655
1717857807546080800,11.748080810546876,9.837176071166992,0.2985270195007324,0.043245267486572266
1717857807556120600,11.75812060546875,9.827000714111328,0.29882629470825195,0.040102877807617184
1717857807566161700,11.76816162109375,9.828347452545165,0.30047230834960936,0.033518823242187495
1717857807576202800,11.77820263671875,9.840617736053467,0.2998737579345703,0.036361937713623046
1717857807586243600,11.78824365234375,9.814730430603026,0.2838625343322754,0.03696048812866211
1717857807596284700,11.79828466796875,9.82535470046997,0.2920926025390625,0.031124621582031248
1717857807606324700,11.80832470703125,9.828347452545165,0.29553426742553707,0.025887305450439452
1717857807616365600,11.818365478515625,9.828197814941406,0.2905962265014648,0.03501519927978516
1717857807626406700,11.82840673828125,9.816226806640625,0.29239187774658204,0.030974983978271482
1717857807636447700,11.83844775390625,9.829245278167724,0.30316578521728516,0.031872809600830075
1717857807646488600,11.848488525390625,9.836876795959473,0.29568390502929687,0.039055414581298825
1717857807656529700,11.85852978515625,9.819668471527098,0.3022679595947265,0.04115034103393554
1717857807666569700,11.86856982421875,9.82535470046997,0.289848038482666,0.030974983978271482
1717857807676610800,11.87861083984375,9.739761991119384,0.2861070983886719,0.027682956695556638
1717857807686651600,11.888651611328125,9.71058265838623,0.29658173065185545,0.03426701126098632
1717857807696692700,11.898692626953125,9.932046311950684,0.3007715835571289,0.03651157531738281
1717857807706733800,11.90873388671875,10.020033222961425,0.2962824554443359,0.016460136413574217
1717857807716774700,11.918774658203125,9.900323139953613,0.27084406280517576,0.054767362976074214
1717857807726814700,11.928814697265626,9.670479780578614,0.2733879020690918,0.05820902786254883
1717857807736855800,11.938855712890625,9.695918173217773,0.280271231842041,0.039055414581298825
1717857807746896600,11.948896728515624,9.888651406860351,0.30615853729248044,0.03172317199707031
1717857807756937700,11.958937744140625,9.970353538513184,0.32022447204589843,0.027682956695556638
1717857807766978800,11.968978759765625,9.836876795959473,0.33144729232788084,0.01631049880981445
1717857807777019000,11.979018798828125,9.724199680328368,0.3128922294616699,0.025438392639160156
1717857807787059700,11.989059814453125,9.794978266906737,0.31169512863159177,0.03366846084594726
1717857807797100800,11.999100830078126,9.891494521331786,0.2792237686157226,0.04144961624145507
1717857807807142000,12.009141845703125,9.898826763916015,0.2614168937683105,0.05252279891967773
1717857807817182700,12.0191826171875,9.810540577697754,0.27787703018188475,0.04444236831665039
1717857807827223800,12.029223876953125,9.762057994079589,0.29703064346313474,0.04085106582641601
1717857807837264000,12.039263916015624,9.823559049224853,0.3016694091796875,0.030226795959472655
1717857807847304700,12.0493046875,9.891793796539305,0.2950853546142578,0.023792378997802732
1717857807857345800,12.059345703125,9.879074600219726,0.31109657821655273,0.02633621826171875
1717857807867387000,12.069386962890626,9.795876092529296,0.29433716659545894,0.049829322052001954
1717857807877427700,12.079427734375,9.76130980606079,0.2861070983886719,0.04967968444824218
1717857807887467500,12.089467529296876,9.829245278167724,0.28730419921875,0.04563946914672851
1717857807897508600,12.099508544921875,9.905859731292724,0.29239187774658204,0.04384381790161133
1717857807907550000,12.109550048828124,9.859920986938477,0.29837738189697266,0.03127425918579101
1717857807917590800,12.1195908203125,9.767295310211182,0.2979284690856933,0.02858078231811523
1717857807927632000,12.1296318359375,9.786448923492431,0.28999767608642574,0.0383072265625
1717857807937673000,12.1396728515625,9.860968450164794,0.3042132484436035,0.034715924072265626
1717857807947712800,12.149712646484375,9.868001417541503,0.30271687240600587,0.04369418029785156
1717857807957753600,12.159753662109376,9.813832604980469,0.2946364418029785,0.051475335693359374
1717857807967794700,12.169794677734375,9.76774422302246,0.2989759323120117,0.03651157531738281
1717857807977835800,12.179835693359376,9.807398188018798,0.29718028106689454,0.0282815071105957
1717857807987876600,12.189876708984375,9.86336265182495,0.2952349922180176,0.036361937713623046
1717857807997916700,12.199916748046874,9.874435834503172,0.28640637359619137,0.039055414581298825
1717857808007957800,12.209957763671875,9.81293477935791,0.29777883148193357,0.03516483688354492
1717857808017998600,12.21999853515625,9.79976667022705,0.28655601119995117,0.03755903854370117
1717857808028039700,12.230039794921876,9.822361948394775,0.3003226707458496,0.03426701126098632
1717857808038080800,12.240080810546875,9.853636207580566,0.31274259185791015,0.04444236831665039
1717857808048121600,12.25012158203125,9.842862300109863,0.313490779876709,0.04773439559936523
1717857808058161700,12.26016162109375,9.802759422302245,0.29837738189697266,0.03651157531738281
1717857808068202800,12.27020263671875,9.798120656585693,0.28999767608642574,0.03800795135498047
1717857808078243800,12.280243896484375,9.816376444244383,0.28101941986083984,0.0330699104309082
1717857808088284700,12.29028466796875,9.849895267486572,0.2775777549743652,0.030226795959472655
1717857808098325800,12.30032568359375,9.836876795959473,0.29613281784057616,0.04249707946777344
1717857808108365800,12.31036572265625,9.80575217437744,0.29358897857666016,0.037409400939941405
1717857808118406700,12.32040673828125,9.810091664886475,0.3085527389526367,0.03366846084594726
1717857808128447700,12.33044775390625,9.839420635223387,0.3091512893676758,0.0330699104309082
1717857808138488800,12.34048876953125,9.843760125732421,0.2962824554443359,0.042945992279052735
1717857808148529700,12.35052978515625,9.83208839263916,0.2893991256713867,0.02483984222412109
1717857808158570800,12.36057080078125,9.813234054565429,0.2962824554443359,0.039055414581298825
1717857808168610800,12.37061083984375,9.814131880187988,0.29613281784057616,0.029628245544433593
1717857808178652000,12.38065185546875,9.848698166656494,0.29089550170898437,0.0383072265625
1717857808188692200,12.390692138671875,9.843161575317382,0.2859574607849121,0.028131869506835935
1717857808198733300,12.4007333984375,9.813533329772948,0.30196868438720703,0.04085106582641601
1717857808208774400,12.4107744140625,9.807996738433838,0.2950853546142578,0.03531447448730469
1717857808218814500,12.420814453125,9.808595288848876,0.30181904678344723,0.0430956298828125
1717857808228855300,12.430855224609376,9.842263749694824,0.303913973236084,0.039055414581298825
1717857808238896400,12.440896484375,9.837624983978271,0.29284079055786133,0.03845686416625976
1717857808248937500,12.4509375,9.82520506286621,0.28790274963378903,0.02528875503540039
1717857808258978300,12.460978271484375,9.816526081848144,0.28520927276611324,0.03127425918579101
1717857808269019400,12.471019287109375,9.839719910430908,0.2902969512939453,0.025438392639160156
1717857808279059500,12.4810595703125,9.846752877807617,0.29777883148193357,0.03007715835571289
1717857808289100300,12.491100341796875,9.839270997619629,0.29703064346313474,0.03247136001586914
1717857808299141400,12.501141357421876,9.814281517791747,0.29822774429321286,0.044891281127929686
1717857808309182500,12.511182373046875,9.816675719451904,0.30256723480224607,0.03681085052490234
1717857808319223300,12.521223388671874,9.834781869506836,0.3107973030090332,0.04144961624145507
1717857808329263400,12.531263427734375,9.83852280960083,0.31169512863159177,0.05102642288208008
1717857808339304400,12.541304443359374,9.823858324432372,0.29388825378417965,0.03755903854370117
1717857808349345500,12.551345458984375,9.809792389678954,0.29493571701049803,0.036062662506103516
1717857808359386400,12.561386474609375,9.818321733093262,0.29613281784057616,0.022296002960205077
1717857808369427500,12.571427490234376,9.835530057525634,0.28909985046386716,0.028880057525634766
1717857808379468500,12.581468505859375,9.83792425918579,0.29014731369018554,0.03501519927978516
1717857808389508400,12.59150830078125,9.826402163696288,0.2904465888977051,0.04997895965576172
1717857808399549200,12.601549072265625,9.833584768676758,0.289848038482666,0.03486556167602539
1717857808409590500,12.611590576171874,9.830592016601562,0.2813186950683594,0.03247136001586914
1717857808419631400,12.62163134765625,9.833135855865478,0.2995744827270508,0.029328970336914062
1717857808429672400,12.63167236328125,9.822062673187256,0.2952349922180176,0.03516483688354492
1717857808439713500,12.641713623046876,9.819219558715819,0.28924948806762696,0.037708676147460936
1717857808449753300,12.65175341796875,9.822511585998535,0.3006219459533691,0.02319382858276367
1717857808459794200,12.661794189453126,9.82520506286621,0.2871545616149902,0.028730419921875
1717857808469835300,12.671835205078125,9.821763397979735,0.2914940521240234,0.030825346374511717
1717857808479876400,12.68187646484375,9.828497090148925,0.29493571701049803,0.03920505218505859
1717857808489917200,12.691917236328125,9.82505542526245,0.2885013000488281,0.042048166656494135
1717857808499957200,12.701957275390624,9.832686943054199,0.2953846298217773,0.02663549346923828
1717857808509998300,12.711998291015625,9.826252526092528,0.29553426742553707,0.04668693237304687
1717857808520039400,12.722039306640625,9.837624983978271,0.29553426742553707,0.049829322052001954
1717857808530080300,12.732080322265626,9.82610288848877,0.29403789138793945,0.039055414581298825
1717857808540121300,12.742121337890625,9.815927531433104,0.28790274963378903,0.03202244720458984
1717857808550162400,12.752162353515626,9.80679963760376,0.2910451393127441,0.028131869506835935
