time,seconds_elapsed,z,y,x
1716735564526106600,0.124106689453125,-0.052165985107421875,-0.0260554701089859,0.0712345540523529
1716735564536106800,0.134106689453125,-0.052165985107421875,-0.02611474320292473,0.07112535834312439
1716735564546106600,0.144106689453125,-0.052165985107421875,-0.026096537709236145,0.07100280374288559
1716735564556106800,0.154106689453125,-0.05216693878173828,-0.02603289484977722,0.07091216742992401
1716735564566106600,0.164106689453125,-0.05216693878173828,-0.026081781834363937,0.07086107134819031
1716735564576106800,0.174106689453125,-0.05216789245605469,-0.02600238472223282,0.07074721902608871
1716735564586106600,0.184106689453125,-0.05216789245605469,-0.025993287563323975,0.07068604230880737
1716735564596106800,0.194106689453125,-0.05216789245605469,-0.02605234831571579,0.07057711482048035
1716735564606106600,0.204106689453125,-0.05216789245605469,-0.026039831340312958,0.07053525745868683
1716735564616106800,0.214106689453125,-0.052168846130371094,-0.02596038207411766,0.07042157649993896
1716735564626107000,0.22410693359375,-0.052168846130371094,-0.025958247482776642,0.07032135128974915
1716735564636106800,0.234106689453125,-0.0521697998046875,-0.025998156517744064,0.07020892202854156
1716735564646107000,0.24410693359375,-0.0521697998046875,-0.025869816541671753,0.0701463371515274
1716735564656106800,0.254106689453125,-0.052170753479003906,-0.025796037167310715,0.0701131522655487
1716735564666107000,0.26410693359375,-0.052170753479003906,-0.025835901498794556,0.07000064104795456
1716735564676106800,0.274106689453125,-0.052170753479003906,-0.02582680433988571,0.06993946433067322
1716735564686107000,0.28410693359375,-0.052170753479003906,-0.025814175605773926,0.06989777088165283
1716735564696106800,0.294106689453125,-0.05217170715332031,-0.025812026113271713,0.06979760527610779
1716735564706107000,0.30410693359375,-0.05217170715332031,-0.025741588324308395,0.06974540650844574
1716735564716106800,0.314106689453125,-0.05217266082763672,-0.02567106857895851,0.06969325989484787
1716735564726107000,0.32410693359375,-0.052204132080078125,-0.023126892745494843,0.06246977299451828
1716735564736106800,0.334106689453125,-0.052227020263671875,-0.02076496183872223,0.05601559951901436
1716735564746107000,0.34410693359375,-0.05224418640136719,-0.018651358783245087,0.05018309876322746
1716735564756106800,0.354106689453125,-0.05225563049316406,-0.016719095408916473,0.044900935143232346
1716735564766107000,0.36410693359375,-0.05226325988769531,-0.015036460012197495,0.04012097790837288
1716735564776106800,0.374106689453125,-0.052269935607910156,-0.013448886573314667,0.03581605851650238
1716735564786107000,0.38410693359375,-0.05227088928222656,-0.012098424136638641,0.03197140991687775
1716735564796106800,0.394106689453125,-0.052272796630859375,-0.010872729122638702,0.028547493740916252
1716735564806107000,0.40410693359375,-0.05227184295654297,-0.009762611240148544,0.02548246830701828
1716735564816106800,0.414106689453125,-0.05227088928222656,-0.0087817944586277,0.0226992629468441
1716735564826107000,0.42410693359375,-0.052268028259277344,-0.007937274873256683,0.020159533247351646
1716735564836106800,0.434106689453125,-0.05226612091064453,-0.007176507264375687,0.01793324016034603
1716735564846107000,0.44410693359375,-0.05226325988769531,-0.006406351923942566,0.015984006226062775
1716735564856106800,0.454106689453125,-0.0522613525390625,-0.005711168050765991,0.014287341386079788
1716735564866107000,0.46410693359375,-0.05225849151611328,-0.005073815584182739,0.012600786983966827
1716735564876106800,0.474106689453125,-0.05225563049316406,-0.0045194849371910095,0.011008713394403458
1716735564886107000,0.48410693359375,-0.052252769470214844,-0.00401720404624939,0.009684845805168152
1716735564896106800,0.494106689453125,-0.05225086212158203,-0.0036247149109840393,0.008639141917228699
1716735564906107000,0.50410693359375,-0.04027748107910156,-0.00800153985619545,0.014772891998291016
1716735564916106800,0.514106689453125,-0.037880897521972656,-0.007637493312358856,0.018580496311187744
1716735564926106600,0.524106689453125,-0.035485267639160156,-0.009597063064575195,0.017547205090522766
1716735564936106800,0.534106689453125,-0.03308677673339844,-0.009194429963827133,0.014165397733449936
1716735564946106600,0.544106689453125,-0.033084869384765625,-0.006311256438493729,0.013102702796459198
1716735564956106800,0.554106689453125,-0.03308296203613281,-0.003488263115286827,0.012150298804044724
1716735564966106600,0.564106689453125,-0.030686378479003906,-0.0030347462743520737,0.008719757199287415
1716735564976106800,0.574106689453125,-0.028289794921875,-0.005033180117607117,0.008032280951738358
1716735564986106600,0.584106689453125,-0.02828693389892578,-0.0021333564072847366,0.009460639208555222
1716735564996106800,0.594106689453125,-0.025890350341796875,-0.001780560240149498,0.008641179651021957
1716735565006106600,0.604106689453125,-0.023494720458984375,-0.0014865808188915253,0.008051227778196335
1716735565016106800,0.614106689453125,-0.02109813690185547,0.0010505057871341705,0.007507923990488052
1716735565026106600,0.624106689453125,-0.023489952087402344,0.0012692175805568695,0.00683184340596199
1716735565036106800,0.634106689453125,-0.02348804473876953,0.003714395686984062,0.004050057381391525
1716735565046106600,0.644106689453125,-0.02348613739013672,0.0012994129210710526,0.003595605492591858
1716735565056106800,0.654106689453125,-0.023484230041503906,0.0013272874057292938,0.0031924061477184296
1716735565066106600,0.664106689453125,-0.021088600158691406,0.0013678651303052902,0.007535405457019806
1716735565076106800,0.674106689453125,-0.021085739135742188,-0.0010065902024507523,0.004580099135637283
1716735565086106600,0.684106689453125,-0.021083831787109375,-0.0033508241176605225,0.004073135554790497
1716735565096106800,0.694106689453125,-0.01868915557861328,-0.003315325826406479,0.0040468014776706696
1716735565106106600,0.704106689453125,-0.01868915557861328,-0.0033117439597845078,0.006460249423980713
1716735565116106800,0.714106689453125,-0.021083831787109375,-0.0032186228781938553,0.006423771381378174
1716735565126106600,0.724106689453125,-0.023477554321289062,-0.0031151659786701202,0.006445262581110001
1716735565136106800,0.734106689453125,-0.023477554321289062,-0.0031799469143152237,0.004022702574729919
1716735565146106600,0.744106689453125,-0.02347564697265625,-0.005378907546401024,0.001155659556388855
1716735565156106800,0.754106689453125,-0.023473739624023438,-0.0049781836569309235,-0.001787617802619934
1716735565166106600,0.764106689453125,-0.023473739624023438,-0.002599729225039482,-0.0017649978399276733
1716735565176106800,0.774106689453125,-0.023473739624023438,-0.002286020666360855,0.00037431344389915466
1716735565186106600,0.784106689453125,-0.02108001708984375,-0.0019045080989599228,0.0001673474907875061
1716735565196106800,0.794106689453125,-0.02108001708984375,0.00041586533188819885,0.0025945529341697693
1716735565206106600,0.804106689453125,-0.02108001708984375,0.00039062462747097015,0.002678819000720978
1716735565216106800,0.814106689453125,-0.02347278594970703,0.0007120463997125626,-0.00015089288353919983
1716735565226106600,0.824106689453125,-0.021079063415527344,0.0030426867306232452,-0.000059954822063446045
1716735565236106800,0.834106689453125,-0.02108001708984375,0.0032164976000785828,-0.00009075552225112915
1716735565246106600,0.844106689453125,-0.023473739624023438,0.00325838103890419,-0.002472430467605591
1716735565256106800,0.854106689453125,-0.023473739624023438,0.0033514294773340225,0.0022796466946601868
1716735565266106600,0.864106689453125,-0.02586841583251953,0.003406090661883354,-0.0001442544162273407
1716735565276106800,0.874106689453125,-0.02586841583251953,0.0009958520531654358,0.0022727996110916138
1716735565286106600,0.884106689453125,-0.023473739624023438,-0.0014726445078849792,0.004700221121311188
1716735565296106800,0.894106689453125,-0.02108001708984375,0.0009147655218839645,0.0022673793137073517
1716735565306106600,0.904106689453125,-0.02108001708984375,0.0009566675871610641,0.002279955893754959
1716735565316106800,0.914106689453125,-0.01868438720703125,-0.0013932865113019943,0.004586637020111084
1716735565326106600,0.924106689453125,-0.01868438720703125,0.003445897251367569,0.004537910223007202
1716735565336106800,0.934106689453125,-0.01868438720703125,0.003491567447781563,0.0021753646433353424
1716735565346106600,0.944106689453125,-0.02108001708984375,0.0012609101831912994,-0.0003075823187828064
1716735565356106800,0.954106689453125,-0.02108001708984375,0.0012540649622678757,0.0020479969680309296
1716735565366106600,0.964106689453125,-0.02108001708984375,0.00357101671397686,-0.000332515686750412
1716735565376106800,0.974106689453125,-0.021079063415527344,0.003564227372407913,-0.0003711581230163574
1716735565386106600,0.984106689453125,-0.021079063415527344,0.003480277955532074,0.0019980035722255707
1716735565396106800,0.994106689453125,-0.02107715606689453,0.003113098442554474,-0.0006697513163089752
1716735565406106600,1.004106689453125,-0.02347087860107422,0.0031162090599536896,-0.0006502717733383179
1716735565416106800,1.014106689453125,-0.02107715606689453,0.0030911844223737717,-0.0005660876631736755
1716735565426106600,1.024106689453125,-0.02347087860107422,0.0006810929626226425,-0.000543348491191864
1716735565436106800,1.034106689453125,-0.021078109741210938,0.0007949136197566986,0.00193018838763237
1716735565446106600,1.044106689453125,-0.021078109741210938,0.003234637901186943,0.004356149584054947
1716735565456106800,1.054106689453125,-0.021079063415527344,0.0008349809795618057,0.004436764866113663
1716735565466106600,1.064106689453125,-0.021076202392578125,0.0028551556169986725,0.006518799811601639
1716735565476106800,1.074106689453125,-0.018678665161132812,0.004931885749101639,0.008471321314573288
1716735565486106600,1.084106689453125,-0.018678665161132812,0.0026026852428913116,0.00849960371851921
1716735565496106800,1.094106689453125,-0.02106952667236328,0.0022922195494174957,0.00809648260474205
1716735565506106600,1.104106689453125,-0.02346324920654297,0.0022185426205396652,0.005735170096158981
1716735565516106200,1.114106201171875,-0.021065711975097656,0.001898638904094696,0.002660755068063736
1716735565526106400,1.1241064453125,-0.02106475830078125,-0.0004989281296730042,0.000247221440076828
1716735565536106200,1.134106201171875,-0.021065711975097656,0.0018793866038322449,0.00026995688676834106
1716735565546106400,1.1441064453125,-0.018667221069335938,0.0016517918556928635,-0.002621721476316452
1716735565556106200,1.154106201171875,-0.01627349853515625,-0.0007582418620586395,-0.0025990083813667297
1716735565566106400,1.1641064453125,-0.01627349853515625,-0.0007025040686130524,-0.004903491586446762
1716735565576106200,1.174106201171875,-0.016274452209472656,-0.0007187202572822571,-0.0024863779544830322
1716735565586106400,1.1841064453125,-0.016274452209472656,-0.0007436536252498627,-0.002402283251285553
1716735565596106200,1.194106201171875,-0.013880729675292969,-0.0007015671581029892,-0.004784099757671356
1716735565606106400,1.2041064453125,-0.016275405883789062,0.0016382914036512375,-0.0047545768320560455
1716735565616106200,1.214106201171875,-0.016275405883789062,-0.0007719732820987701,-0.0047317855060100555
1716735565626106400,1.2241064453125,-0.016275405883789062,-0.003124278038740158,-0.0023250021040439606
1716735565636106200,1.234106201171875,-0.016275405883789062,-0.003078751266002655,-0.002293236553668976
1716735565646106400,1.2441064453125,-0.016275405883789062,-0.003033449873328209,-0.002261396497488022
1716735565656106200,1.254106201171875,-0.0066986083984375,-0.0006551388651132584,-0.009421270340681076
1716735565666106400,1.2641064453125,0.0244293212890625,-0.0013812799006700516,-0.011865966022014618
1716735565676106200,1.274106201171875,0.019639015197753906,-0.0012062452733516693,-0.009383276104927063
1716735565686106400,1.2841064453125,0.00287628173828125,-0.0011104084551334381,-0.004054132848978043
1716735565696106200,1.294106201171875,-0.0019159317016601562,0.0015693064779043198,-0.003566984087228775
1716735565706106400,1.3041064453125,0.02202320098876953,0.0015881117433309555,-0.000618424266576767
1716735565716106200,1.314106201171875,0.01962757110595703,0.0040521323680877686,-0.00011299550533294678
1716735565726106400,1.3241064453125,-0.006711006164550781,0.004297429695725441,-0.00007671117782592773
1716735565736106200,1.334106201171875,-0.011501312255859375,0.004256546497344971,0.0027630776166915894
1716735565746106400,1.3441064453125,0.005259513854980469,0.006107645109295845,0.0005647540092468262
1716735565756106200,1.354106201171875,0.0004711151123046875,0.003639811649918556,0.0005976185202598572
1716735565766106400,1.3641064453125,-0.016289710998535156,0.0012979228049516678,0.0006680265069007874
1716735565776106200,1.374106201171875,-0.021078109741210938,-0.0011123083531856537,-0.0017033256590366364
1716735565786106400,1.3841064453125,-0.0067119598388671875,0.003653198480606079,-0.001719154417514801
1716735565796106200,1.394106201171875,-0.009105682373046875,0.0012012757360935211,-0.0017089657485485077
1716735565806106400,1.4041064453125,-0.025867462158203125,0.0013048239052295685,-0.001687571406364441
1716735565816106800,1.414106689453125,-0.02347278594970703,0.0038024354726076126,-0.0040602609515190125
1716735565826106600,1.424106689453125,-0.009106636047363281,0.003382071852684021,-0.001452036201953888
1716735565836106800,1.434106689453125,-0.013895988464355469,0.0009050518274307251,-0.0013576969504356384
1716735565846106600,1.444106689453125,-0.02586650848388672,0.0009653251618146896,-0.0014680661261081696
1716735565856106800,1.454106689453125,-0.02586650848388672,-0.0013835448771715164,0.0009580366313457489
1716735565866106600,1.464106689453125,-0.013895988464355469,-0.0013994574546813965,0.000980716198682785
1716735565876106800,1.474106689453125,-0.013895988464355469,-0.0013629775494337082,0.001073833554983139
1716735565886106600,1.484106689453125,-0.023473739624023438,-0.0013013146817684174,0.003476906567811966
1716735565896106800,1.494106689453125,-0.02586841583251953,0.0011962950229644775,0.005892608314752579
1716735565906106600,1.504106689453125,-0.018685340881347656,-0.001281948760151863,0.00347345694899559
1716735565916106800,1.514106689453125,-0.01629161834716797,-0.0012299362570047379,0.0011498332023620605
1716735565926106600,1.524106689453125,-0.02347087860107422,-0.001190725713968277,0.0005852468311786652
1716735565936106800,1.534106689453125,-0.0258636474609375,-0.005899932235479355,-0.002261202782392502
1716735565946106600,1.544106689453125,-0.018680572509765625,-0.0035217273980379105,0.00015578046441078186
1716735565956106800,1.554106689453125,-0.013892173767089844,0.0012702606618404388,0.00017502903938293457
1716735565966106600,1.564106689453125,-0.01868152618408203,0.004108788445591927,0.00009619072079658508
1716735565976106800,1.574106689453125,-0.016287803649902344,0.004103057086467743,0.0025711022317409515
1716735565986106600,1.584106689453125,-0.011499404907226562,0.004025973379611969,0.0025847330689430237
1716735565996106800,1.594106689453125,-0.009105682373046875,0.004001040011644363,0.00027462467551231384
1716735566006106600,1.604106689453125,-0.01628589630126953,0.003537297248840332,-0.002376016229391098
1716735566016106800,1.614106689453125,-0.021074295043945312,0.0035214629024267197,0.000040903687477111816
1716735566026106600,1.624106689453125,-0.01628589630126953,0.0011112038046121597,0.00006370246410369873
1716735566036106800,1.634106689453125,-0.013891220092773438,0.0035030655562877655,0.0025580115616321564
1716735566046106600,1.644106689453125,-0.01867961883544922,0.00582001730799675,-0.0022167041897773743
1716735566056106800,1.654106689453125,-0.021074295043945312,0.008269093930721283,-0.0022464878857135773
1716735566068519200,1.666519287109375,-0.01867961883544922,0.008242936804890633,-0.0022816918790340424
1716735566078519000,1.67651904296875,-0.013891220092773438,0.005852159112691879,0.0025260262191295624
1716735566088519200,1.686519287109375,-0.01867961883544922,0.003489626571536064,0.0024805963039398193
1716735566098519000,1.69651904296875,-0.021074295043945312,0.0035453662276268005,0.000176113098859787
1716735566108519200,1.706519287109375,-0.016284942626953125,0.005506481975317001,0.00009360536932945251
1716735566118519000,1.71651904296875,-0.0186767578125,0.00740978866815567,-0.0023730024695396423
1716735566128519200,1.726519287109375,-0.02106952667236328,0.009316254407167435,-0.002425801008939743
1716735566138519000,1.73651904296875,-0.025856971740722656,0.006555173546075821,-0.002360790967941284
1716735566148519200,1.746519287109375,-0.02346038818359375,0.008343994617462158,-0.007081836462020874
1716735566158519000,1.75651904296875,-0.021066665649414062,0.00549330934882164,-0.009355336427688599
1716735566168519200,1.766519287109375,-0.023459434509277344,0.0003458745777606964,-0.00913231447339058
1716735566178519000,1.77651904296875,-0.023459434509277344,-0.001997038722038269,-0.006787154823541641
1716735566188519200,1.786519287109375,-0.021065711975097656,-0.002019774168729782,-0.0020146444439888
1716735566198519000,1.79651904296875,-0.021065711975097656,0.00043578818440437317,0.002782810479402542
1716735566208519200,1.806519287109375,-0.01867198944091797,0.00047191232442855835,0.002876143902540207
1716735566218519000,1.81651904296875,-0.021066665649414062,0.000523056834936142,0.00043302401900291443
1716735566228519200,1.826519287109375,-0.01867198944091797,0.002961665391921997,0.00034543871879577637
1716735566238519000,1.83651904296875,-0.01627826690673828,-0.0017814300954341888,-0.0020169131457805634
1716735566248519200,1.846519287109375,-0.01627826690673828,-0.004191523417830467,-0.0019941814243793488
1716735566258519000,1.85651904296875,-0.01867198944091797,-0.004021080210804939,-0.002044316381216049
1716735566268519200,1.866519287109375,-0.013884544372558594,-0.0015712827444076538,-0.0019544847309589386
1716735566278519000,1.87651904296875,-0.011491775512695312,-0.00393248163163662,0.0005135461688041687
1716735566288519200,1.886519287109375,-0.016280174255371094,-0.003886869177222252,-0.0018490031361579895
1716735566298519000,1.89651904296875,-0.016280174255371094,-0.0038922931998968124,0.0006257258355617523
1716735566308519200,1.906519287109375,-0.013885498046875,-0.001452319324016571,0.0030515119433403015
1716735566318519000,1.91651904296875,-0.011492729187011719,-0.0014680437743663788,0.005468379706144333
1716735566328519200,1.926519287109375,-0.011491775512695312,0.0009288527071475983,0.002973850816488266
1716735566338519000,1.93651904296875,-0.016280174255371094,0.0009028390049934387,0.0005443207919597626
1716735566348519200,1.946519287109375,-0.013885498046875,0.0009483061730861664,-0.001818101853132248
1716735566358519000,1.95651904296875,-0.013885498046875,0.003384716808795929,0.0005884990096092224
1716735566368519200,1.966519287109375,-0.013885498046875,0.005782235413789749,-0.0017863474786281586
1716735566378519000,1.97651904296875,-0.013885498046875,0.003362037241458893,-0.001821618527173996
1716735566388519200,1.986519287109375,-0.013885498046875,0.005749396979808807,-0.001860242336988449
1716735566398519000,1.99651904296875,-0.016280174255371094,0.005331370979547501,0.0006478726863861084
1716735566408519200,2.006519287109375,-0.01867389678955078,0.005377035588026047,-0.001714702695608139
1716735566418519000,2.01651904296875,-0.01867389678955078,0.002966940402984619,-0.004086162894964218
1716735566428519200,2.026519287109375,-0.018672943115234375,0.0025555938482284546,-0.0015393532812595367
1716735566438519000,2.03651904296875,-0.01627826690673828,0.002031959593296051,0.0034414269030094147
1716735566448519200,2.046519287109375,-0.01627826690673828,0.004529483616352081,0.003463044762611389
1716735566458519000,2.05651904296875,-0.018670082092285156,0.003986295312643051,0.0033202767372131348
1716735566468519200,2.066519287109375,-0.018670082092285156,0.001576341688632965,0.005737081170082092
1716735566478519000,2.07651904296875,-0.021063804626464844,-0.0008723698556423187,0.008160866796970367
1716735566488519200,2.086519287109375,-0.02106189727783203,-0.0010214298963546753,0.005374763160943985
1716735566498519000,2.09651904296875,-0.02106189727783203,-0.0011053569614887238,0.0029555484652519226
1716735566508519200,2.106519287109375,-0.02345561981201172,-0.0009929090738296509,0.0029157064855098724
1716735566518519000,2.11651904296875,-0.02106189727783203,0.0038408003747463226,-0.0018408410251140594
1716735566528519200,2.126519287109375,-0.018668174743652344,0.0063383206725120544,-0.0018192268908023834
1716735566538519000,2.13651904296875,-0.02585124969482422,0.0015340261161327362,-0.0017964951694011688
1716735566548519200,2.146519287109375,-0.009088516235351562,0.005904164165258408,-0.006809558719396591
1716735566558519000,2.15651904296875,0.010066986083984375,0.0029042698442935944,-0.004347816109657288
1716735566568519200,2.166519287109375,0.010066986083984375,-0.0019521154463291168,-0.0020013973116874695
1716735566578519000,2.17651904296875,-0.004298210144042969,-0.006703956052660942,-0.0019083842635154724
1716735566588519200,2.186519287109375,-0.00908660888671875,-0.008995968848466873,0.0003880336880683899
1716735566598519000,2.19651904296875,-0.0019044876098632812,-0.00671764649450779,0.0028027743101119995
1716735566608519200,2.206519287109375,-0.0066928863525390625,-0.00667540542781353,0.005209282040596008
1716735566618519000,2.21651904296875,-0.025847434997558594,-0.0016611777245998383,0.005249097943305969
1716735566628519200,2.226519287109375,-0.021059036254882812,-0.004071410745382309,0.005271967500448227
1716735566638519000,2.23651904296875,-0.009087562561035156,0.0007576495409011841,0.00277101993560791
1716735566648519200,2.246519287109375,-0.01148223876953125,-0.00410466268658638,0.0028041228652000427
1716735566658519000,2.25651904296875,-0.025847434997558594,-0.006314950063824654,0.0004371367394924164
1716735566668519200,2.266519287109375,-0.021059036254882812,-0.008677516132593155,0.002786003053188324
1716735566678519000,2.27651904296875,-0.009087562561035156,-0.011017367243766785,0.005150694400072098
1716735566688519200,2.286519287109375,-0.01148223876953125,-0.011094562709331512,0.007558561861515045
1716735566698519000,2.29651904296875,-0.023454666137695312,-0.005532996729016304,0.004808396100997925
1716735566708519200,2.306519287109375,-0.018665313720703125,-0.00013939663767814636,0.004402443766593933
1716735566718519000,2.31651904296875,-0.006694793701171875,0.0021196119487285614,0.0020322054624557495
1716735566728519200,2.326519287109375,-0.009089469909667969,-0.00023832917213439941,-0.0002687908709049225
1716735566738519000,2.33651904296875,-0.021060943603515625,-0.00025435909628868103,-0.0002459213137626648
1716735566748519200,2.346519287109375,-0.023454666137695312,-0.00014201924204826355,-0.002679925411939621
1716735566758519000,2.35651904296875,-0.011483192443847656,-0.002604737877845764,-0.0027273893356323242
1716735566768519200,2.366519287109375,-0.011483192443847656,-0.0050146859139204025,-0.0027047842741012573
1716735566778519000,2.37651904296875,-0.021062850952148438,-0.0019399113953113556,-0.00029177218675613403
1716735566788518700,2.3865185546875,-0.021063804626464844,0.0009896382689476013,0.004481371492147446
1716735566798518500,2.3965185546875,-0.011487007141113281,-0.000979941338300705,0.006461698561906815
1716735566808518700,2.4065185546875,-0.013880729675292969,-0.0032603275030851364,0.006541024893522263
1716735566818518500,2.4165185546875,-0.02345752716064453,-0.005670048296451569,0.001775149255990982
1716735566828518700,2.4265185546875,-0.02345752716064453,-0.005296517163515091,0.0014101602137088776
1716735566838518500,2.4365185546875,-0.013880729675292969,-0.005245741456747055,0.0013614557683467865
1716735566848518700,2.4465185546875,-0.016275405883789062,-0.00042198970913887024,0.0013351775705814362
1716735566858518500,2.4565185546875,-0.021063804626464844,-0.0004185102880001068,-0.0010397322475910187
1716735566868518700,2.4665185546875,-0.021063804626464844,-0.0003152526915073395,0.0013761036098003387
1716735566878518500,2.4765185546875,-0.01627635955810547,-0.0002696327865123749,-0.000986441969871521
1716735566888518700,2.4865185546875,-0.013880729675292969,-0.0026126857846975327,-0.0010353587567806244
1716735566898518500,2.4965185546875,-0.02106475830078125,-0.005022779107093811,-0.0010126195847988129
1716735566908518700,2.5065185546875,-0.021063804626464844,-0.00014123693108558655,-0.003443252295255661
1716735566918518500,2.5165185546875,-0.01627826690673828,0.002666441723704338,-0.00335707888007164
1716735566928518700,2.5265185546875,-0.01627826690673828,0.005053684115409851,-0.001001458615064621
1716735566938518500,2.5365185546875,-0.021065711975097656,0.0026912670582532883,-0.0034411363303661346
1716735566948518700,2.5465185546875,-0.021066665649414062,0.005130937322974205,0.0013790540397167206
1716735566958518500,2.5565185546875,-0.021066665649414062,0.005253488197922707,0.001397203654050827
1716735566968518700,2.5665185546875,-0.021066665649414062,0.0052364282310009,-0.001093585044145584
1716735566978518500,2.5765185546875,-0.023459434509277344,-0.000027621164917945862,0.006213035434484482
1716735566988518700,2.5865185546875,-0.023459434509277344,0.000014279037714004517,0.003831416368484497
1716735566998518500,2.5965185546875,-0.021065711975097656,0.00004962831735610962,0.0014109425246715546
1716735567008518700,2.6065185546875,-0.018671035766601562,0.0001529436558485031,0.0014325492084026337
1716735567018518500,2.6165185546875,-0.021066665649414062,0.002720644697546959,-0.0009922757744789124
1716735567028518700,2.6265185546875,-0.021065711975097656,0.0027715694159269333,0.0013530999422073364
1716735567038518500,2.6365185546875,-0.01867198944091797,0.0028078481554985046,-0.0009478442370891571
1716735567048518700,2.6465185546875,-0.01867198944091797,0.005196316167712212,-0.0056555308401584625
1716735567058518500,2.6565185546875,-0.018672943115234375,0.0052417851984500885,-0.005623754113912582
1716735567068518700,2.6665185546875,-0.018672943115234375,0.007569152861833572,-0.0055522434413433075
1716735567078518500,2.6765185546875,-0.018672943115234375,0.009947376325726509,-0.003135211765766144
1716735567088519200,2.686519287109375,-0.016279220581054688,0.0071168988943099976,-0.002898499369621277
1716735567098519000,2.69651904296875,-0.016280174255371094,0.007149903103709221,-0.000430472195148468
1716735567108519200,2.706519287109375,-0.016279220581054688,0.004690773785114288,0.0019354932010173798
1716735567118519000,2.71651904296875,-0.018672943115234375,0.0046747177839279175,0.001958295702934265
1716735567128519200,2.726519287109375,-0.01867389678955078,0.004600945860147476,-0.0004029273986816406
1716735567138519000,2.73651904296875,-0.021065711975097656,0.001559339463710785,-0.002742171287536621
1716735567148519200,2.746519287109375,-0.018671035766601562,-0.0008575953543186188,-0.00036386027932167053
1716735567158519000,2.75651904296875,-0.01627635955810547,-0.0013108216226100922,-0.00501217320561409
1716735567168519200,2.766519287109375,-0.01627635955810547,0.000654175877571106,-0.007131125777959824
1716735567178519000,2.77651904296875,-0.01627635955810547,0.0030415281653404236,-0.004775546491146088
1716735567188519200,2.786519287109375,-0.018671035766601562,0.0006792508065700531,-0.0072153545916080475
1716735567198519000,2.79651904296875,-0.01627635955810547,0.0031281262636184692,-0.007245004177093506
1716735567208519200,2.806519287109375,-0.013883590698242188,0.0005638487637042999,-0.009250529110431671
1716735567218519000,2.81651904296875,-0.013883590698242188,0.0006180554628372192,-0.00688571110367775
1716735567228519200,2.826519287109375,-0.016279220581054688,0.00047405436635017395,-0.0016734711825847626
1716735567238519000,2.83651904296875,-0.013884544372558594,0.0004580281674861908,-0.004044808447360992
1716735567248519200,2.846519287109375,-0.013884544372558594,-0.001885194331407547,-0.004093654453754425
1716735567258519000,2.85651904296875,-0.013887405395507812,-0.001924373209476471,-0.003529023379087448
1716735567268519200,2.866519287109375,-0.016282081604003906,-0.004264364019036293,-0.005952607840299606
1716735567278519000,2.87651904296875,-0.01628589630126953,-0.006492991000413895,-0.007639303803443909
1716735567288519200,2.886519287109375,-0.01628589630126953,-0.004044225439429283,-0.005274701863527298
1716735567298519000,2.89651904296875,-0.021078109741210938,-0.008601758629083633,0.000030547380447387695
1716735567308519200,2.906519287109375,-0.018683433532714844,-0.006162084639072418,0.0024565309286117554
1716735567318519000,2.91651904296875,-0.018686294555664062,-0.005782879889011383,0.00508248433470726
1716735567328519200,2.926519287109375,-0.018688201904296875,-0.005281820893287659,0.01000126451253891
1716735567338519000,2.93651904296875,-0.02108478546142578,-0.00470929779112339,0.009859941899776459
1716735567348519200,2.946519287109375,-0.021083831787109375,-0.0042167771607637405,0.011888116598129272
1716735567358519000,2.95651904296875,-0.021083831787109375,-0.004172692075371742,0.009406458586454391
1716735567368519200,2.966519287109375,-0.01868915557861328,-0.004130726680159569,0.009419016540050507
1716735567378519000,2.97651904296875,-0.016295433044433594,-0.004137730225920677,0.004592053592205048
1716735567388519200,2.986519287109375,-0.01868915557861328,-0.0017084665596485138,0.006960216909646988
1716735567398519000,2.99651904296875,-0.01629352569580078,-0.0014892593026161194,0.006622467190027237
1716735567408519200,3.006519287109375,-0.01629352569580078,-0.0012099482119083405,0.008568745106458664
1716735567418519000,3.01651904296875,-0.01629161834716797,0.0013472270220518112,0.0033531971275806427
1716735567428519200,3.026519287109375,-0.01628875732421875,0.003883911296725273,0.002810150384902954
1716735567438519000,3.03651904296875,-0.01628589630126953,0.0015288684517145157,0.0022455118596553802
1716735567448519200,3.046519287109375,-0.01628589630126953,0.003907347097992897,-0.00012601912021636963
1716735567458519000,3.05651904296875,-0.016286849975585938,0.0014461688697338104,0.002339813858270645
1716735567468519200,3.066519287109375,-0.01628589630126953,0.0015007350593805313,0.0023102089762687683
1716735567478519000,3.07651904296875,-0.016286849975585938,0.003869844600558281,0.0023943670094013214
1716735567488519200,3.086519287109375,-0.01389312744140625,0.001521112397313118,0.0024261474609375
1716735567498519000,3.09651904296875,-0.016287803649902344,-0.0008309874683618546,0.002438589930534363
1716735567508519200,3.106519287109375,-0.01868152618408203,0.0015087034553289413,0.002468172460794449
1716735567518519000,3.11651904296875,-0.016287803649902344,0.0015406254678964615,0.002422589808702469
1716735567528519200,3.126519287109375,-0.013892173767089844,0.0015337783843278885,0.004778165370225906
1716735567538519000,3.13651904296875,-0.013892173767089844,0.0015882011502981186,0.0023544728755950928
1716735567548519200,3.146519287109375,-0.013891220092773438,-0.0009516198188066483,-0.00007364153861999512
1716735567558519000,3.15651904296875,-0.01867961883544922,-0.0033526718616485596,-0.0025064684450626373
1716735567568519200,3.166519287109375,-0.01867961883544922,-0.0009745005518198013,-0.002483617514371872
1716735567578519000,3.17651904296875,-0.021074295043945312,0.001412743702530861,-0.004916399717330933
1716735567588519200,3.186519287109375,-0.03065013885498047,-0.01537282858043909,-0.019316811114549637
1716735567598519000,3.19651904296875,0.0028676986694335938,-0.0033371783792972565,0.004653673619031906
1716735567608519200,3.206519287109375,-0.02586650848388672,-0.006232958287000656,0.010546941310167313
1716735567618519000,3.21651904296875,-0.030655860900878906,-0.006357869133353233,-0.0013421699404716492
1716735567628519200,3.226519287109375,-0.04980945587158203,-0.00398966483771801,0.008199375122785568
1716735567638519000,3.23651904296875,-0.02347278594970703,-0.00836566649377346,0.0033776983618736267
1716735567648519200,3.246519287109375,-0.02586841583251953,-0.008379198610782623,0.001244857907295227
1716735567658519000,3.25651904296875,-0.054599761962890625,-0.0031056441366672516,0.0034534186124801636
1716735567668519200,3.266519287109375,-0.0617828369140625,0.0024980902671813965,0.005503911525011063
1716735567678519000,3.27651904296875,-0.030658721923828125,0.00008646398782730103,0.005407519638538361
1716735567688519200,3.286519287109375,-0.011505126953125,0.004978330805897713,0.0030348077416419983
1716735567698519000,3.29651904296875,-0.028261184692382812,0.0002145804464817047,0.00021792948246002197
1716735567708519200,3.306519287109375,-0.04981040954589844,-0.0018956977874040604,0.00024735182523727417
1716735567718519000,3.31651904296875,-0.02826213836669922,-0.006642019376158714,0.0002597421407699585
1716735567728519200,3.326519287109375,-0.009108543395996094,-0.006768161430954933,0.00022235140204429626
1716735567738519000,3.33651904296875,-0.02586841583251953,-0.004337366670370102,0.0027096346020698547
1716735567748519200,3.346519287109375,-0.03783988952636719,-0.0037274621427059174,0.000047948211431503296
1716735567758519000,3.35651904296875,-0.021081924438476562,0.003558443859219551,0.00006948411464691162
1716735567768519200,3.366519287109375,-0.0091094970703125,0.003819352015852928,-0.0026497580111026764
1716735567778519000,3.37651904296875,-0.01629161834716797,0.003733210265636444,-0.0025748126208782196
1716735567788519200,3.386519287109375,-0.030658721923828125,0.0038502253592014313,-0.0024759694933891296
1716735567798519000,3.39651904296875,-0.01868724822998047,0.0014493204653263092,-0.002514701336622238
1716735567808519200,3.406519287109375,-0.0043201446533203125,-0.0010323990136384964,0.0022294633090496063
1716735567818519000,3.41651904296875,-0.013897895812988281,-0.003432219848036766,-0.0024782679975032806
1716735567828519200,3.426519287109375,-0.025870323181152344,-0.0033289212733507156,0.0023316778242588043
1716735567838519000,3.43651904296875,-0.021080970764160156,-0.000999337062239647,0.004697471857070923
1716735567848519200,3.446519287109375,-0.0091094970703125,0.0013176128268241882,0.0023169666528701782
1716735567858519000,3.45651904296875,-0.013898849487304688,-0.001098092645406723,0.0024203695356845856
1716735567868519200,3.466519287109375,-0.025870323181152344,-0.0034308824688196182,0.00003518909215927124
1716735567878519000,3.47651904296875,-0.021081924438476562,-0.0057796090841293335,0.0000669620931148529
1716735567888519200,3.486519287109375,-0.009110450744628906,-0.005867291241884232,0.0024169795215129852
1716735567898519000,3.49651904296875,-0.01629352569580078,-0.00575355626642704,0.007284808903932571
1716735567908519200,3.506519287109375,-0.02347564697265625,-0.005708537995815277,0.007316853851079941
1716735567918519000,3.51651904296875,-0.018688201904296875,-0.000865621492266655,0.007287267595529556
1716735567928519200,3.526519287109375,-0.009110450744628906,-0.0009430292993783951,0.007301017642021179
1716735567938519000,3.53651904296875,-0.013898849487304688,-0.0029899850487709045,0.00450669601559639
1716735567948519200,3.546519287109375,-0.02108001708984375,-0.00277799554169178,0.00413050502538681
1716735567958519000,3.55651904296875,-0.018683433532714844,-0.0025497861206531525,0.0037314780056476593
1716735567968519200,3.566519287109375,-0.009105682373046875,-0.002724774181842804,-0.0011454224586486816
1716735567978519000,3.57651904296875,-0.01389312744140625,-0.0022913161665201187,-0.0016206428408622742
1716735567988519200,3.586519287109375,-0.018682479858398438,-0.0021879076957702637,0.0007950589060783386
1716735567998519000,3.59651904296875,-0.018682479858398438,0.00029943138360977173,0.0007586292922496796
1716735568008519200,3.606519287109375,-0.011499404907226562,-0.0016757454723119736,0.0028195716440677643
1716735568018519000,3.61651904296875,-0.01389312744140625,-0.004034914076328278,0.0027934610843658447
1716735568028519200,3.626519287109375,-0.021076202392578125,-0.003973552957177162,0.0004082992672920227
1716735568038519000,3.63651904296875,-0.02107715606689453,-0.0015919096767902374,0.0004504397511482239
1716735568048519200,3.646519287109375,-0.01868152618408203,-0.001669006422162056,0.00046402961015701294
1716735568058519000,3.65651904296875,-0.018682479858398438,0.0007614772766828537,0.0005572699010372162
1716735568068519200,3.666519287109375,-0.021076202392578125,-0.0010821651667356491,0.00018079206347465515
1716735568078519000,3.67651904296875,-0.01868152618408203,0.003689173609018326,-0.002309981733560562
1716735568088519200,3.686519287109375,-0.01389312744140625,0.0037402603775262833,-0.0023588798940181732
1716735568098519000,3.69651904296875,-0.013892173767089844,0.003775613382458687,-0.002385146915912628
1716735568108519200,3.706519287109375,-0.01868152618408203,-0.0009583756327629089,-0.0024146437644958496
1716735568118519000,3.71651904296875,-0.01868152618408203,-0.000854814425110817,9.611248970031738e-7
1716735568128519200,3.726519287109375,-0.01389312744140625,-0.0008707009255886078,-0.002370506525039673
1716735568138519000,3.73651904296875,-0.016287803649902344,-0.00080917589366436,-0.004755716770887375
1716735568148519200,3.746519287109375,-0.01868152618408203,0.0015727747231721878,-0.00710798054933548
1716735568158519000,3.75651904296875,-0.018682479858398438,0.0039999838918447495,-0.007034163922071457
1716735568168519200,3.766519287109375,-0.016287803649902344,0.004002176225185394,-0.007134143263101578
1716735568178519000,3.77651904296875,-0.01868152618408203,0.0015919338911771774,-0.004717107862234116
1716735568188519200,3.786519287109375,-0.02107715606689453,0.004031496122479439,-0.0022910982370376587
1716735568198519000,3.79651904296875,-0.021076202392578125,0.0040246471762657166,-0.004723925143480301
1716735568208519200,3.806519287109375,-0.018682479858398438,0.001676071435213089,-0.0022980496287345886
1716735568218519000,3.81651904296875,-0.018682479858398438,0.0017179660499095917,0.0001087188720703125
1716735568228519200,3.826519287109375,-0.021079063415527344,0.0013980790972709656,0.0006634145975112915
1716735568238519000,3.83651904296875,-0.021079063415527344,0.006228847429156303,0.0006757266819477081
1716735568248519200,3.846519287109375,-0.016290664672851562,0.006274322047829628,0.0007075071334838867
1716735568258519000,3.85651904296875,-0.016290664672851562,0.003922164440155029,0.0031141676008701324
1716735568268519200,3.866519287109375,-0.021079063415527344,0.0011135805398225784,0.0008531138300895691
1716735568278519000,3.87651904296875,-0.021079063415527344,0.001155627891421318,0.0008655823767185211
1716735568288519200,3.886519287109375,-0.018685340881347656,0.003544047474861145,0.0009463019669055939
1716735568298519000,3.89651904296875,-0.018685340881347656,0.008316565304994583,0.0009690374135971069
1716735568308519200,3.906519287109375,-0.02108001708984375,0.010684506967663765,0.003328118473291397
1716735568318519000,3.91651904296875,-0.023473739624023438,0.010740403085947037,0.003417734056711197
1716735568328519200,3.926519287109375,-0.02107715606689453,0.007638400420546532,0.00324442982673645
1716735568338519000,3.93651904296875,-0.021076202392578125,0.004723735153675079,0.003117591142654419
1716735568348519200,3.946519287109375,-0.023468017578125,-0.000526992604136467,0.0005861669778823853
1716735568358519000,3.95651904296875,-0.021071434020996094,-0.0009416863322257996,0.00038079917430877686
1716735568368519200,3.966519287109375,-0.0186767578125,0.0013877302408218384,-0.002041757106781006
1716735568378519000,3.97651904296875,-0.0186767578125,-0.0009553823620080948,-0.0020906515419483185
1716735568388519200,3.986519287109375,-0.0186767578125,0.0015366673469543457,-0.0019884929060935974
1716735568398519000,3.99651904296875,-0.018675804138183594,0.003337811678647995,-0.0019630268216133118
1716735568408519200,4.006519287109375,-0.018675804138183594,0.005838679149746895,-0.004316359758377075
1716735568418519000,4.01651904296875,-0.0186767578125,0.005891148000955582,-0.004246063530445099
1716735568428519200,4.026519287109375,-0.0186767578125,0.0011379998177289963,-0.0018780417740345001
1716735568438519000,4.03651904296875,-0.021071434020996094,0.001188935711979866,-0.0019268281757831573
1716735568448519200,4.046519287109375,-0.021071434020996094,0.0012342408299446106,0.0004992112517356873
1716735568458519000,4.05651904296875,-0.0186767578125,0.0012169703841209412,-0.0019914433360099792
1716735568468519200,4.066519287109375,-0.02346515655517578,0.003665570169687271,-0.002020992338657379
1716735568478519000,4.07651904296875,-0.021071434020996094,0.0037076175212860107,-0.0020085275173187256
1716735568488519200,4.086519287109375,-0.02346515655517578,0.0031852368265390396,-0.0016968026757240295
1716735568498519000,4.09651904296875,-0.021071434020996094,0.003239748999476433,-0.004120584577322006
1716735568508519200,4.106519287109375,-0.02346515655517578,0.0032714270055294037,-0.004165966063737869
1716735568518519000,4.11651904296875,-0.021071434020996094,0.0032748524099588394,-0.004146654158830643
1716735568528519200,4.126519287109375,-0.0186767578125,0.003262389451265335,-0.006498809903860092
1716735568538519000,4.13651904296875,-0.018677711486816406,0.005302459001541138,-0.0037430375814437866
1716735568548519200,4.146519287109375,-0.018678665161132812,0.007729817181825638,-0.003669328987598419
1716735568558519000,4.15651904296875,-0.01628398895263672,0.005318382754921913,-0.003765847533941269
1716735568568519200,4.166519287109375,-0.018677711486816406,0.004962962120771408,-0.005917754024267197
1716735568578519000,4.17651904296875,-0.016284942626953125,0.00224982388317585,-0.000793948769569397
1716735568588519200,4.186519287109375,-0.016284942626953125,-0.0004804898053407669,-0.000555083155632019
1716735568598519000,4.19651904296875,-0.004313468933105469,0.004272604361176491,-0.007711488753557205
1716735568608519200,4.206519287109375,0.029204368591308594,0.0011378265917301178,-0.012069705873727798
1716735568618519000,4.21651904296875,0.029205322265625,-0.003675447776913643,-0.009591426700353622
1716735568628519200,4.226519287109375,0.019628524780273438,-0.0035642310976982117,-0.007356379181146622
1716735568638519000,4.23651904296875,0.007656097412109375,-0.0009612776339054108,-0.007413201034069061
1716735568648519200,4.246519287109375,0.0220184326171875,-0.003403985872864723,-0.0043928734958171844
1716735568658519000,4.25651904296875,0.019624710083007812,-0.0009574107825756073,-0.0019282996654510498
1716735568668519200,4.266519287109375,0.010044097900390625,-0.0008216705173254013,-0.0012751147150993347
1716735568678519300,4.276519287109375,0.0028591156005859375,0.001699145883321762,-0.0008992813527584076
1716735568688519200,4.286519287109375,0.010039329528808594,0.004163065925240517,-0.00039374083280563354
1716735568698519300,4.296519287109375,0.0028543472290039062,0.0014929138123989105,0.002467803657054901
1716735568708519200,4.306519287109375,-0.011510848999023438,-0.0008171908557415009,0.00249272957444191
1716735568718519000,4.31651904296875,-0.006722450256347656,0.0015575960278511047,0.0048903971910476685
1716735568728519200,4.326519287109375,-0.001934051513671875,0.006319887936115265,0.007249381393194199
1716735568738519000,4.33651904296875,-0.009116172790527344,0.0037905070930719376,0.0072733499109745026
1716735568748519200,4.346519287109375,-0.021087646484375,0.006274310871958733,0.009611845016479492
1716735568758519000,4.35651904296875,-0.01629924774169922,0.003916408866643906,0.00970509648323059
1716735568768519200,4.366519287109375,-0.0067195892333984375,0.0036536213010549545,0.009233787655830383
1716735568778519000,4.37651904296875,-0.009113311767578125,0.001185435801744461,0.009266860783100128
1716735568788519200,4.386519287109375,-0.018685340881347656,-0.0014899112284183502,0.010973896831274033
1716735568798519000,4.39651904296875,-0.02347087860107422,-0.0016471575945615768,0.010424122214317322
1716735568808519200,4.406519287109375,-0.01867961883544922,0.0005875192582607269,0.00997442752122879
1716735568818519000,4.41651904296875,-0.021074295043945312,-0.0018259398639202118,0.009977832436561584
1716735568828519200,4.426519287109375,-0.030648231506347656,0.0005757864564657211,0.007064398378133774
1716735568838519000,4.43651904296875,-0.030645370483398438,0.0006262008100748062,0.003944188356399536
1716735568848519200,4.446519287109375,-0.02106761932373047,0.0005966164171695709,0.0014954768121242523
1716735568858519000,4.45651904296875,-0.018672943115234375,-0.0017556305974721909,-0.0008861683309078217
1716735568868519200,4.466519287109375,-0.025856971740722656,-0.0017101746052503586,-0.00085444375872612
1716735568878519000,4.47651904296875,-0.023462295532226562,-0.0016295947134494781,-0.0032429397106170654
1716735568888519200,4.486519287109375,-0.021068572998046875,0.0007385928183794022,-0.0032782554626464844
1716735568898519000,4.49651904296875,-0.023462295532226562,0.0031272396445274353,-0.0008033998310565948
1716735568908519200,4.506519287109375,-0.028250694274902344,0.0030975062400102615,-0.0008577965199947357
1716735568918519000,4.51651904296875,-0.028250694274902344,0.003081655129790306,0.0015590675175189972
1716735568928519200,4.526519287109375,-0.023462295532226562,0.002995278686285019,-0.0007599778473377228
1716735568938519000,4.53651904296875,-0.021068572998046875,-0.0018284935504198074,0.0016604512929916382
1716735568948519200,4.546519287109375,-0.025856971740722656,-0.0017194170504808426,0.0016012564301490784
1716735568958519000,4.55651904296875,-0.025856971740722656,-0.004148650914430618,0.004021555185317993
1716735568968519200,4.566519287109375,-0.021068572998046875,-0.0017031598836183548,0.003972519189119339
1716735568978519000,4.57651904296875,-0.01867389678955078,-0.0016804225742816925,0.006382610648870468
1716735568988519200,4.586519287109375,-0.023462295532226562,-0.0016291365027427673,0.006333574652671814
1716735568998519000,4.59651904296875,-0.023462295532226562,-0.001655127853155136,0.008692514151334763
1716735569008519200,4.606519287109375,-0.01867389678955078,0.0030560828745365143,0.011100389063358307
1716735569018519000,4.61651904296875,-0.021068572998046875,0.0030789654701948166,0.011116154491901398
1716735569028519200,4.626519287109375,-0.025856971740722656,0.003001771867275238,0.006341427564620972
1716735569038519000,4.63651904296875,-0.025854110717773438,0.0006276201456785202,0.00099172443151474
1716735569048519200,4.646519287109375,-0.02106475830078125,-0.0017837025225162506,-0.003893241286277771
1716735569058519000,4.65651904296875,-0.018667221069335938,0.0006496887654066086,-0.0020636990666389465
1716735569068519200,4.666519287109375,-0.02345561981201172,0.003143874928355217,-0.002061508595943451
1716735569078519000,4.67651904296875,-0.02585124969482422,0.0032383017241954803,0.0004155375063419342
1716735569088519200,4.686519287109375,-0.02345752716064453,0.0009281951934099197,0.00044046714901924133
1716735569098519000,4.69651904296875,-0.021063804626464844,-0.0015433654189109802,0.0004542022943496704
1716735569108519200,4.706519287109375,-0.023453712463378906,-0.004183115437626839,-0.0023147985339164734
1716735569118519000,4.71651904296875,-0.025848388671875,-0.0040897708386182785,-0.0023513734340667725
1716735569128519200,4.726519287109375,-0.021060943603515625,-0.0016535241156816483,0.00005529448390007019
1716735569138519000,4.73651904296875,-0.023454666137695312,-0.001621536910533905,0.000009682029485702515
1716735569148519200,4.746519287109375,-0.023454666137695312,-0.0015794336795806885,0.004810526967048645
1716735569158519000,4.75651904296875,-0.025849342346191406,0.0008512027561664581,0.004903662949800491
1716735569168519200,4.766519287109375,-0.025850296020507812,-0.001509934663772583,0.004977468401193619
1716735569178519000,4.77651904296875,-0.025850296020507812,-0.001477077603340149,0.005051411688327789
1716735569188519200,4.786519287109375,-0.025849342346191406,-0.003750177100300789,0.0022174566984176636
1716735569198519000,4.79651904296875,-0.025847434997558594,-0.0014436710625886917,-0.0002209208905696869
1716735569208519200,4.806519287109375,-0.0234527587890625,0.0033287517726421356,-0.004986494779586792
1716735569218519000,4.81651904296875,-0.023453712463378906,0.003361586481332779,-0.00012420117855072021
1716735569228519200,4.826519287109375,-0.023454666137695312,0.0034035444259643555,-0.0001116432249546051
1716735569238519000,4.83651904296875,-0.02105998992919922,0.0009218174964189529,0.0022383183240890503
1716735569248519200,4.846519287109375,-0.02105998992919922,0.000905817374587059,-0.0025273077189922333
1716735569258519000,4.85651904296875,-0.02105998992919922,-0.001456400379538536,-0.00496712327003479
1716735569268519200,4.866519287109375,-0.021059036254882812,-0.0014823880046606064,-0.005002383142709732
1716735569278519000,4.87651904296875,-0.0234527587890625,-0.0015018153935670853,-0.007393114268779755
1716735569288519200,4.886519287109375,-0.02345561981201172,-0.0014421958476305008,-0.004551377147436142
1716735569298519000,4.89651904296875,-0.02345561981201172,-0.0014000944793224335,-0.004538934677839279
1716735569308519200,4.906519287109375,-0.02106189727783203,0.001083647832274437,0.00019378960132598877
1716735569318519000,4.91651904296875,-0.021060943603515625,0.0010084770619869232,-0.002286657691001892
1716735569328519200,4.926519287109375,-0.02106189727783203,0.001050695776939392,0.00011994317173957825
1716735569338519000,4.93651904296875,-0.02106189727783203,-0.0014206934720277786,0.0025278180837631226
1716735569348519200,4.946519287109375,-0.023454666137695312,-0.0038444828242063522,0.00007910653948783875
1716735569358519000,4.95651904296875,-0.02345561981201172,-0.003869522362947464,0.00255744531750679
1716735569368519200,4.966519287109375,-0.02106189727783203,-0.003885410726070404,0.00018598511815071106
1716735569378519000,4.97651904296875,-0.021060943603515625,-0.0015788432210683823,-0.0022524185478687286
1716735569388519200,4.986519287109375,-0.018667221069335938,0.0007872320711612701,-0.0021877139806747437
1716735569398519000,4.99651904296875,-0.018667221069335938,-0.0015703849494457245,0.00029949843883514404
1716735569408519200,5.006519287109375,-0.02106189727783203,-0.0015804469585418701,0.00024142488837242126
1716735569418519000,5.01651904296875,-0.018667221069335938,-0.0015577096492052078,0.00025731325149536133
1716735569428519200,5.026519287109375,-0.02106189727783203,-0.0014645196497440338,0.0026150643825531006
1716735569438519000,5.03651904296875,-0.02345561981201172,-0.0014713648706674576,0.002576436847448349
1716735569448519200,5.046519287109375,-0.02345561981201172,0.0038302838802337646,0.00472036749124527
1716735569458519000,5.05651904296875,-0.02345561981201172,0.003933671861886978,0.007136017084121704
1716735569468519200,5.066519287109375,-0.02345561981201172,0.0015711504966020584,0.0070906393229961395
1716735569478519000,5.07651904296875,-0.021062850952148438,0.0016653481870889664,0.0023851580917835236
1716735569488519200,5.086519287109375,-0.023456573486328125,0.0017746016383171082,0.002325907349586487
1716735569498519000,5.09651904296875,-0.021062850952148438,0.018618162721395493,-0.002437584102153778
1716735569508519200,5.106519287109375,-0.023454666137695312,-0.005864860489964485,0.0021081194281578064
1716735569518519000,5.11651904296875,-0.023454666137695312,0.006019743159413338,0.01894262433052063
1716735569528519200,5.126519287109375,-0.004298210144042969,0.0009630452841520309,-0.0029959306120872498
1716735569538519000,5.13651904296875,-0.021058082580566406,0.008139032870531082,-0.005428839474916458
1716735569548519200,5.146519287109375,-0.018663406372070312,0.00570620596408844,0.008943222463130951
1716735569558519000,5.15651904296875,-0.025846481323242188,0.0033052172511816025,0.0112987719476223
1716735569568519200,5.166519287109375,-0.016265869140625,0.005356967449188232,0.018123827874660492
1716735569578519000,5.17651904296875,-0.03062725067138672,0.0074466802179813385,0.01045725867152214
1716735569588519200,5.186519287109375,-0.013863563537597656,0.0023171454668045044,0.03861071541905403
1716735569598519000,5.19651904296875,-0.013856887817382812,-0.014771314337849617,-0.005442451685667038
1716735569608519200,5.206519287109375,-0.2700338363647461,0.030677035450935364,0.015535082668066025
1716735569618519000,5.21651904296875,0.2519102096557617,-0.008393026888370514,0.0027431733906269073
1716735569628519200,5.226519287109375,-0.02581310272216797,-0.0011278614401817322,-0.017182111740112305
1716735569638519000,5.23651904296875,-0.12397575378417969,-0.0012231916189193726,-0.00028628483414649963
1716735569648519200,5.246519287109375,-0.025814056396484375,-0.008302327245473862,0.004523605108261108
1716735569658519300,5.256519287109375,0.0819253921508789,-0.010655710473656654,-0.007554236799478531
1716735569668519200,5.266519287109375,-0.006659507751464844,0.010874856263399124,0.025868065655231476
1716735569678519300,5.276519287109375,-0.056934356689453125,0.015610739588737488,-0.012848149985074997
1716735569688519200,5.286519287109375,-0.04735851287841797,0.003734096884727478,0.011176727712154388
1716735569698519300,5.296519287109375,0.034043312072753906,0.022882159799337387,-0.007896233350038528
1716735569708519200,5.306519287109375,-0.040175437927246094,0.00562484934926033,-0.0008244514465332031
1716735569718519000,5.31651904296875,-0.05932903289794922,-0.001573767513036728,-0.017561081796884537
1716735569728519200,5.326519287109375,-0.0018682479858398438,0.0008431710302829742,-0.007968388497829437
1716735569738519000,5.33651904296875,0.014891624450683594,0.007600013166666031,-0.0004911981523036957
1716735569748518700,5.3465185546875,-0.004261970520019531,-0.009624041616916656,-0.004978090524673462
1716735569758518800,5.356518798828125,-0.07608985900878906,-0.0026695840060710907,0.00260360911488533
1716735569768518700,5.3665185546875,-0.02102375030517578,0.006891336292028427,0.01938575506210327
1716735569778518800,5.376518798828125,0.010106086730957031,0.006512697786092758,-0.026554856449365616
1716735569788518700,5.3865185546875,-0.023412704467773438,0.004030786454677582,-0.00026280805468559265
1716735569798518800,5.396518798828125,-0.049750328063964844,0.0017297826707363129,0.006883341819047928
1716735569808518700,5.4065185546875,-0.02820110321044922,0.0017039775848388672,0.009242139756679535
1716735569818518800,5.416518798828125,0.0077114105224609375,-0.02225712686777115,-0.00033140555024147034
1716735569828518700,5.4265185546875,-0.032989501953125,0.0017267726361751556,-0.0075014084577560425
1716735569838518800,5.436518798828125,-0.040172576904296875,0.001819949597120285,-0.007537927478551865
1716735569848518700,5.4465185546875,-0.04256629943847656,-0.012503379955887794,0.0020514801144599915
1716735569858518800,5.456518798828125,0.0005254745483398438,0.004784639924764633,-0.009634803980588913
1716735569868518700,5.4665185546875,0.0005254745483398438,0.004759583622217178,-0.009550657123327255
1716735569878518800,5.476518798828125,-0.04735851287841797,-0.0047856103628873825,-0.0048075951635837555
1716735569888518700,5.4865185546875,-0.021022796630859375,-0.009475387632846832,-0.002530451864004135
1716735569898518800,5.496518798828125,0.005313873291015625,-0.004760643467307091,0.011867634952068329
1716735569908518700,5.5065185546875,-0.016234397888183594,-0.009517207741737366,0.007033731788396835
1716735569918518800,5.516518798828125,-0.03778076171875,-0.007152751088142395,-0.0025974512100219727
1716735569928518700,5.5265185546875,-0.018629074096679688,-0.004082569852471352,-0.019476722925901413
1716735569938518800,5.536518798828125,0.0029163360595703125,0.0011470206081867218,0.01907089352607727
1716735569948518700,5.5465185546875,-0.013842582702636719,0.008245594799518585,0.0022865384817123413
1716735569958518800,5.556518798828125,-0.03299713134765625,0.005903936922550201,-0.01679682731628418
1716735569968518700,5.5665185546875,-0.023420333862304688,-0.001317102462053299,0.0023635663092136383
1716735569978518800,5.576518798828125,-0.00905609130859375,0.015478614717721939,-0.002331659197807312
1716735569988518700,5.5865185546875,-0.013844490051269531,-0.001688733696937561,-0.023707523941993713
1716735569998518800,5.596518798828125,-0.03060626983642578,0.01011345162987709,0.0007424689829349518
1716735570008518700,5.6065185546875,-0.040183067321777344,0.012491948902606964,-0.013600077480077744
1716735570018518800,5.616518798828125,-0.004268646240234375,0.010077428072690964,0.005437515676021576
1716735570028518700,5.6265185546875,-0.021028518676757812,0.00004179030656814575,-0.001524321734905243
1716735570038518800,5.636518798828125,-0.03299999237060547,0.012054376304149628,0.0032767988741397858
1716735570048519200,5.646519287109375,-0.021027565002441406,-0.002671238034963608,0.012957543134689331
1716735570058519000,5.65651904296875,-0.013844490051269531,-0.012344567105174065,0.015368781983852386
1716735570068519200,5.666519287109375,-0.018632888793945312,0.006859976798295975,0.01053161546587944
1716735570078519000,5.67651904296875,-0.023421287536621094,0.00922808051109314,-0.006263021379709244
1716735570088519200,5.686519287109375,-0.025815963745117188,0.009141787886619568,0.005783043801784515
1716735570098519000,5.69651904296875,-0.021027565002441406,-0.002845045179128647,0.0034115538001060486
1716735570108519200,5.706519287109375,-0.013841629028320312,-0.010385807603597641,0.0006824694573879242
1716735570118519000,5.71651904296875,-0.03299427032470703,-0.005607800558209419,0.012595586478710175
1716735570128519200,5.726519287109375,-0.04017829895019531,-0.005581477656960487,0.012630656361579895
1716735570138519000,5.73651904296875,-0.013841629028320312,0.008816801011562347,0.012704454362392426
1716735570148519200,5.746519287109375,-0.016231536865234375,0.0039516352117061615,-0.0025435127317905426
1716735570158519000,5.75651904296875,-0.028199195861816406,-0.0008963719010353088,-0.0005967803299427032
1716735570168519200,5.766519287109375,-0.03059101104736328,0.008631139993667603,-0.02014000713825226
1716735570178519000,5.77651904296875,-0.011437416076660156,0.003933515399694443,-0.0009227097034454346
1716735570188519200,5.786519287109375,-0.011437416076660156,-0.01758245937526226,0.013397004455327988
1716735570198519000,5.79651904296875,-0.021012306213378906,-0.010185696184635162,-0.006232760846614838
1716735570208519200,5.806519287109375,-0.028196334838867188,0.002239994704723358,-0.01104213297367096
1716735570218519000,5.81651904296875,-0.016225814819335938,0.01425311341881752,-0.0014528855681419373
1716735570228519200,5.826519287109375,-0.009042739868164062,0.00466025248169899,-0.006218425929546356
1716735570238519000,5.83651904296875,-0.02340984344482422,-0.0004267282783985138,0.013386528939008713
1716735570248519200,5.846519287109375,-0.028199195861816406,-0.0002516843378543854,0.006292406469583511
1716735570258519000,5.85651904296875,-0.018622398376464844,0.0022230595350265503,-0.003278736025094986
1716735570268519200,5.866519287109375,-0.016228675842285156,0.0071240998804569244,-0.005712859332561493
1716735570278519000,5.87651904296875,-0.02580547332763672,-0.0025403499603271484,0.008608154952526093
1716735570288519200,5.886519287109375,-0.013831138610839844,-0.0124910157173872,0.008295938372612
1716735570298519000,5.89651904296875,-0.009039878845214844,0.006895966827869415,0.005422264337539673
1716735570308519200,5.906519287109375,-0.02579975128173828,0.009283125400543213,0.0005953088402748108
1716735570318519000,5.91651904296875,-0.01622295379638672,0.006801467388868332,-0.0066315606236457825
1716735570328519200,5.926519287109375,-0.0210113525390625,-0.005195340141654015,-0.011455364525318146
1716735570338519000,5.93651904296875,-0.0210113525390625,0.006756231188774109,0.0053075142204761505
1716735570348519200,5.946519287109375,-0.0210113525390625,0.018753398209810257,0.0029485151171684265
1716735570358519000,5.95651904296875,-0.040164947509765625,0.014065232127904892,-0.0018377862870693207
1716735570368519200,5.966519287109375,-0.018613815307617188,0.00610891729593277,-0.0066085271537303925
1716735570378519000,5.97651904296875,-0.013825416564941406,-0.005820000544190407,-0.0018077492713928223
1716735570388519200,5.986519287109375,-0.02579784393310547,0.0036635622382164,0.0006229951977729797
1716735570398519000,5.99651904296875,-0.013824462890625,0.010357923805713654,-0.0039992742240428925
1716735570408519200,6.006519287109375,-0.03058338165283203,-0.006875181570649147,-0.00876346230506897
1716735570418519000,6.01651904296875,-0.03537178039550781,-0.00011498108506202698,-0.0012669339776039124
1716735570428519200,6.026519287109375,-0.028189659118652344,-0.002467069774866104,0.015504918992519379
1716735570438519000,6.03651904296875,-0.023400306701660156,0.004638120532035828,-0.003634866327047348
1716735570448519200,6.046519287109375,-0.03058147430419922,-0.01245095580816269,-0.010878510773181915
1716735570458519000,6.05651904296875,-0.02818775177001953,-0.007687119767069817,-0.0036120228469371796
1716735570468519200,6.066519287109375,-0.030582427978515625,0.009005378931760788,0.006036389619112015
1716735570478519000,6.07651904296875,-0.023400306701660156,-0.002943083643913269,0.0108407624065876
1716735570488519200,6.086519287109375,-0.013823509216308594,0.0018978938460350037,-0.005848351866006851
1716735570498519000,6.09651904296875,-0.02100658416748047,0.006708841770887375,0.0013502202928066254
1716735570508519200,6.106519287109375,-0.02818584442138672,-0.0033579878509044647,-0.01809488609433174
1716735570518519000,6.11651904296875,-0.01621532440185547,-0.0033771321177482605,-0.0013321936130523682
1716735570528519200,6.126519287109375,-0.02818584442138672,-0.008181361481547356,0.0010847188532352448
1716735570538519000,6.13651904296875,-0.013819694519042969,0.003712207078933716,-0.01326671987771988
1716735570548519200,6.146519287109375,-0.021007537841796875,0.0063409507274627686,-0.005548056215047836
1716735570558519000,6.15651904296875,-0.023400306701660156,-0.012722950428724289,0.008761409670114517
1716735570568519200,6.166519287109375,-0.023401260375976562,0.008880674839019775,0.001668490469455719
1716735570578519000,6.17651904296875,-0.025795936584472656,-0.0030094385147094727,0.0016739405691623688
1716735570588519200,6.186519287109375,-0.12395858764648438,-0.0030253231525421143,-0.010274335741996765
1716735570598519000,6.19651904296875,0.1681365966796875,-0.00574716180562973,0.003929995000362396
1716735570608519200,6.206519287109375,-0.09283256530761719,-0.0294586643576622,0.0013754181563854218
1716735570618519000,6.21651904296875,-0.10719680786132812,-0.0032189413905143738,0.0037867091596126556
1716735570628519200,6.226519287109375,-0.07367897033691406,-0.0007724203169345856,0.023010730743408203
1716735570638519000,6.23651904296875,0.06997394561767578,-0.027077866718173027,0.020451582968235016
1716735570648519200,6.246519287109375,-0.05212879180908203,0.007334660738706589,0.01508643850684166
1716735570658519000,6.25651904296875,-0.07128143310546875,-0.009107086807489395,-0.004521775990724564
1716735570668519200,6.266519287109375,-0.07128047943115234,0.005641590803861618,0.0023539401590824127
1716735570678519000,6.27651904296875,0.029275894165039062,-0.015935633331537247,-0.007277507334947586
1716735570688519200,6.286519287109375,0.017303466796875,-0.005951212719082832,-0.00026674196124076843
1716735570698519000,6.29651904296875,-0.059309959411621094,-0.017951609566807747,-0.00989813357591629
1716735570708519200,6.306519287109375,-0.06170654296875,0.011578921228647232,0.00687866285443306
1716735570718519000,6.31651904296875,0.02687835693359375,0.023472744971513748,-0.0026844702661037445
1716735570728519200,6.326519287109375,0.007724761962890625,0.009091820567846298,-0.0026618652045726776
1716735570738519000,6.33651904296875,-0.07846641540527344,-0.005189033225178719,-0.00024282559752464294
1716735570748519200,6.346519287109375,-0.049736976623535156,0.00203578919172287,-0.01938410848379135
1716735570758519000,6.35651904296875,0.014905929565429688,0.0114528127014637,-0.009360693395137787
1716735570768519200,6.366519287109375,0.0029325485229492188,0.015874721109867096,-0.013745613396167755
1716735570778519000,6.37651904296875,-0.054528236389160156,-0.005630621686577797,0.017391249537467957
1716735570788519200,6.386519287109375,-0.0425567626953125,-0.0031945444643497467,-0.0017497725784778595
1716735570798519000,6.39651904296875,-0.004250526428222656,-0.012687383219599724,0.003063611686229706
1716735570808519200,6.406519287109375,-0.006644248962402344,-0.010299857705831528,0.010207463055849075
1716735570818519000,6.41651904296875,-0.03537559509277344,0.002107512205839157,0.009970713406801224
1716735570828519200,6.426519287109375,-0.04255485534667969,0.004693411290645599,-0.009675025939941406
1716735570838519000,6.43651904296875,-0.0042476654052734375,0.009523667395114899,-0.00966249406337738
1716735570848519200,6.446519287109375,-0.00185394287109375,0.014285974204540253,-0.00012090802192687988
1716735570858519000,6.45651904296875,-0.03776741027832031,0.004751216620206833,-0.00010843947529792786
1716735570868519200,6.466519287109375,-0.023401260375976562,-0.0024598687887191772,-0.00483202189207077
1716735570878519000,6.47651904296875,-0.009037017822265625,-0.000030271708965301514,-0.007252443581819534
1716735570888519200,6.486519287109375,-0.009037017822265625,0.009460482746362686,-0.026331167668104172
1716735570898519000,6.49651904296875,-0.04016399383544922,0.00452827662229538,0.00761142373085022
1716735570908519200,6.506519287109375,-0.032980918884277344,0.00930953398346901,-0.0020038336515426636
1716735570918519000,6.51651904296875,-0.02340412139892578,0.0016816146671772003,-0.0017056800425052643
1716735570928519200,6.526519287109375,0.010113716125488281,0.005980502814054489,0.010650914162397385
1716735570938519000,6.53651904296875,-0.0210113525390625,-0.013201465830206871,-0.01801472157239914
1716735570948519200,6.546519287109375,-0.04016685485839844,-0.010961435735225677,0.003899030387401581
1716735570958519000,6.55651904296875,-0.023406028747558594,-0.00617988221347332,0.0014661997556686401
1716735570968519200,6.566519287109375,-0.021012306213378906,-0.0062673334032297134,0.0014219321310520172
1716735570978519000,6.57651904296875,-0.03058910369873047,-0.003841191530227661,-0.005806278437376022
1716735570988519200,6.586519287109375,-0.04495811462402344,0.008681148290634155,-0.007899843156337738
1716735570998519000,6.59651904296875,-0.001865386962890625,-0.012838853523135185,0.016535114496946335
1716735571008519200,6.606519287109375,0.0005292892456054688,-0.0032199397683143616,-0.012182865291833878
1716735571018519000,6.61651904296875,-0.04496192932128906,-0.000854194164276123,0.004641439765691757
1716735571028519200,6.626519287109375,-0.02580738067626953,0.006302230060100555,0.004606172442436218
1716735571038519000,6.63651904296875,-0.01623058319091797,-0.005262358114123344,-0.007655888795852661
1716735571048519200,6.646519287109375,-0.018627166748046875,0.007082499563694,-0.0025552622973918915
1716735571058519000,6.65651904296875,-0.030599594116210938,0.014310471713542938,-0.012100178748369217
1716735571068519200,6.666519287109375,-0.028204917907714844,-0.00007423758506774902,0.002268526703119278
1716735571078519000,6.67651904296875,-0.011445999145507812,0.009525366127490997,0.00707278773188591
1716735571088519200,6.686519287109375,-0.011445045471191406,0.001918058842420578,-0.00482303649187088
1716735571098519000,6.69651904296875,-0.02820301055908203,-0.0029000267386436462,-0.00008903443813323975
1716735571108519200,6.706519287109375,-0.01862621307373047,0.006718829274177551,-0.009653378278017044
1716735571118519000,6.71651904296875,-0.0018672943115234375,0.0019044913351535797,-0.012082934379577637
1716735571128519200,6.726519287109375,-0.023416519165039062,0.015974659472703934,0.01711808517575264
1716735571138519000,6.73651904296875,-0.013837814331054688,0.010744176805019379,-0.006845071911811829
1716735571148519200,6.746519287109375,-0.023413658142089844,-0.01857791282236576,-0.006700463593006134
1716735571158519000,6.75651904296875,-0.023413658142089844,0.010133258998394012,0.0028797462582588196
1716735571168519200,6.766519287109375,-0.011442184448242188,-0.0018639080226421356,-0.0019438639283180237
1716735571178519000,6.77651904296875,-0.025808334350585938,0.0005722120404243469,-0.004325546324253082
1716735571188519200,6.786519287109375,-0.013837814331054688,0.00023170188069343567,0.0009016692638397217
1716735571198519000,6.79651904296875,-0.03059864044189453,-0.004472542554140091,-0.00865023210644722
1716735571208519200,6.806519287109375,-0.016236305236816406,0.012242075055837631,-0.008004993200302124
1716735571218519000,6.81651904296875,-0.02341938018798828,0.012217044830322266,-0.010314986109733582
1716735571228519200,6.826519287109375,-0.0186309814453125,-0.011973414570093155,-0.007637824863195419
1716735571238519000,6.83651904296875,-0.013844490051269531,0.009449955075979233,0.023907102644443512
1716735571248519200,6.846519287109375,-0.0018739700317382812,0.00941481813788414,0.0071738287806510925
1716735571258519000,6.85651904296875,-0.018630027770996094,-0.005305115133523941,-0.005112763494253159
1716735571268519200,6.866519287109375,-0.03060150146484375,-0.0077342744916677475,-0.014663517475128174
1716735571278519000,6.87651904296875,-0.021024703979492188,0.011459819972515106,-0.00040492042899131775
1716735571288519200,6.886519287109375,0.0005235671997070312,0.004310440272092819,0.009245544672012329
1716735571298519000,6.89651904296875,-0.011447906494140625,0.004412438720464706,0.01393624022603035
1716735571308519200,6.906519287109375,-0.023418426513671875,-0.002789236605167389,0.009151149541139603
1716735571318519000,6.91651904296875,-0.021020889282226562,-0.0077857766300439835,0.0038617290556430817
1716735571328519200,6.926519287109375,-0.006656646728515625,-0.0029643066227436066,0.003935519605875015
1716735571338519000,6.93651904296875,-0.025806427001953125,-0.0004448220133781433,0.005690187215805054
1716735571348519200,6.946519287109375,-0.011442184448242188,0.0067833177745342255,-0.008643273264169693
1716735571358519000,6.95651904296875,-0.01623058319091797,-0.017197322100400925,0.0009403824806213379
1716735571368519200,6.966519287109375,-0.01623058319091797,-0.005184207111597061,-0.0038355812430381775
1716735571378519000,6.97651904296875,-0.02820110321044922,-0.009937752038240433,-0.0014673247933387756
1716735571388519200,6.986519287109375,-0.02101898193359375,-0.00032910704612731934,-0.01348382979631424
1716735571398519000,6.99651904296875,-0.013835906982421875,0.006905689835548401,-0.020595982670783997
1716735571408519200,7.006519287109375,-0.006656646728515625,-0.01214318722486496,0.003825560212135315
1716735571418519000,7.01651904296875,-0.030602455139160156,-0.006931820884346962,-0.010176483541727066
1716735571428519200,7.026519287109375,-0.03539466857910156,0.0030552931129932404,-0.01934785768389702
1716735571438519000,7.03651904296875,-0.016243934631347656,-0.011253699660301208,0.00023387745022773743
1716735571448519200,7.046519287109375,-0.02582073211669922,0.012730363756418228,-0.023695673793554306
1716735571458519000,7.05651904296875,-0.03300762176513672,0.007919467985630035,0.003301996737718582
1716735571468519200,7.066519287109375,-0.021039962768554688,-0.004105709493160248,0.0040088072419166565
1716735571478519000,7.07651904296875,-0.011466026306152344,-0.011180087924003601,0.009296011179685593
1716735571488519200,7.086519287109375,-0.01864910125732422,-0.013541286811232567,-0.009783778339624405
1716735571498519000,7.09651904296875,-0.021043777465820312,-0.0038647837936878204,-0.00020464882254600525
1716735571508519200,7.106519287109375,-0.030620574951171875,0.012920785695314407,0.0046189576387405396
1716735571518519000,7.11651904296875,-0.01864910125732422,0.012962739914655685,0.0022373199462890625
1716735571528519200,7.126519287109375,-0.01864910125732422,-0.006100831553339958,0.0165465846657753
1716735571538519000,7.13651904296875,-0.006678581237792969,-0.0036611035466194153,-0.0001810714602470398
1716735571548519200,7.146519287109375,-0.021043777465820312,0.010684620589017868,-0.00017757341265678406
1716735571558519000,7.15651904296875,-0.028227806091308594,-0.0011444687843322754,0.009413938969373703
1716735571568519200,7.166519287109375,-0.030622482299804688,-0.008343115448951721,0.009436804801225662
1716735571578519000,7.17651904296875,-0.016252517700195312,-0.008293569087982178,0.006197113543748856
1716735571588519200,7.186519287109375,-0.02582836151123047,0.001514289528131485,-0.008547443896532059
1716735571598519000,7.19651904296875,-0.02822113037109375,-0.000858403742313385,-0.0014682486653327942
1716735571608519200,7.206519287109375,-0.009067535400390625,0.00876050814986229,0.005726795643568039
1716735571618519000,7.21651904296875,-0.08807754516601562,-0.005620921030640602,-0.01100967824459076
1716735571628519200,7.226519287109375,0.012480735778808594,0.008646562695503235,-0.0015350691974163055
1716735571638519000,7.23651904296875,0.04360675811767578,0.0010901540517807007,0.005673900246620178
1716735571648519200,7.246519287109375,-0.018642425537109375,-0.020487181842327118,0.003225162625312805
1716735571658519000,7.25651904296875,-0.0928640365600586,-0.017597870901226997,0.01028025895357132
1716735571668519200,7.266519287109375,-0.00188446044921875,-0.019462622702121735,0.0004302076995372772
1716735571678519000,7.27651904296875,0.022057533264160156,-0.012234488502144814,0.010038759559392929
1716735571688519200,7.286519287109375,-0.016251564025878906,-0.006601184606552124,0.002566978335380554
1716735571698519000,7.29651904296875,-0.08089542388916016,0.015160348266363144,0.021802209317684174
1716735571708519200,7.306519287109375,-0.08089351654052734,0.01540413498878479,0.021380621939897537
1716735571718519000,7.31651904296875,0.029241561889648438,0.01536407321691513,0.013746973127126694
1716735571728519200,7.326519287109375,-0.02821636199951172,-0.015941405668854713,-0.003358844667673111
1716735571738519000,7.33651904296875,-0.08088874816894531,-0.0039987508207559586,-0.015265077352523804
1716735571748519200,7.346519287109375,-0.013851165771484375,-0.0015728957951068878,0.006237313151359558
1716735571758519000,7.35651904296875,0.031638145446777344,0.005474686622619629,0.0014727488160133362
1716735571768519200,7.366519287109375,-0.025821685791015625,0.002993021160364151,-0.0009657181799411774
1716735571778519000,7.37651904296875,-0.07609939575195312,0.010208632797002792,-0.0032860934734344482
1716735571788519200,7.386519287109375,-0.018639564514160156,0.012773282825946808,0.013423170894384384
1716735571798519000,7.39651904296875,0.02206134796142578,0.010343540459871292,0.0038727186620235443
1716735571808519200,7.406519287109375,-0.02342510223388672,0.0003291964530944824,0.006045695394277573
1716735571818519000,7.41651904296875,-0.06891155242919922,0.0023197680711746216,-0.003897774964570999
1716735571828519200,7.426519287109375,-0.01145172119140625,-0.0144132599234581,-0.0014685317873954773
1716735571838519000,7.43651904296875,0.017278671264648438,-0.00712178647518158,0.0032608434557914734
1716735571848519200,7.446519287109375,-0.018634796142578125,-0.011877307668328285,0.010517317801713943
1716735571858519000,7.45651904296875,-0.05215263366699219,0.007359173148870468,0.015211354941129684
1716735571868519200,7.466519287109375,-0.018634796142578125,-0.006893530488014221,0.0008062645792961121
1716735571878519000,7.47651904296875,0.010096549987792969,0.0002595558762550354,-0.01361348107457161
1716735571888519200,7.486519287109375,-0.016239166259765625,-0.004139451310038567,0.009940795600414276
1716735571898519000,7.49651904296875,-0.04496955871582031,0.0030850768089294434,0.0027706995606422424
1716735571908519200,7.506519287109375,0.0005235671997070312,0.00802341103553772,0.009448539465665817
1716735571918519000,7.51651904296875,0.022070884704589844,-0.013531357049942017,0.007015816867351532
1716735571928519200,7.526519287109375,-0.013838768005371094,-0.0013757608830928802,-0.003091655671596527
1716735571938519000,7.53651904296875,-0.04017448425292969,0.0012375153601169586,0.008541721850633621
1716735571948519200,7.546519287109375,-0.018624305725097656,0.018146373331546783,-0.018299028277397156
1716735571958519000,7.55651904296875,0.0029230117797851562,0.003812938928604126,-0.0015850923955440521
1716735571968519200,7.566519287109375,-0.0042591094970703125,-0.01775086671113968,-0.018321659415960312
1716735571978519000,7.57651904296875,-0.03778076171875,-0.0008869059383869171,-0.015447892248630524
1716735571988519200,7.586519287109375,-0.016236305236816406,-0.0007978230714797974,0.0018136166036128998
1716735571998519000,7.59651904296875,0.0053119659423828125,0.013539202511310577,-0.01009274646639824
1716735572008519200,7.606519287109375,-0.006659507751464844,0.006388437002897263,-0.01732083410024643
1716735572018519000,7.61651904296875,-0.03778839111328125,0.0013245828449726105,0.00024433061480522156
1716735572028519200,7.626519287109375,-0.011454582214355469,0.0010604113340377808,-0.003899741917848587
1716735572038519000,7.63651904296875,0.0053043365478515625,0.010659951716661453,0.008087150752544403
1716735572048519200,7.646519287109375,-0.018637657165527344,0.003590039908885956,-0.003923799842596054
1716735572058519000,7.65651904296875,-0.044974327087402344,-0.0011144503951072693,0.0032838061451911926
1716735572068519200,7.666519287109375,-0.016243934631347656,0.013291824609041214,-0.0016115233302116394
1716735572078519000,7.67651904296875,-0.006667137145996094,-0.006278764456510544,0.017775405198335648
1716735572088519200,7.686519287109375,-0.009057044982910156,0.0028015263378620148,-0.016073737293481827
1716735572098519000,7.69651904296875,-0.02102947235107422,0.01492481678724289,-0.008818607777357101
1716735572108519200,7.706519287109375,-0.02102947235107422,0.004838146269321442,0.008210450410842896
1716735572118519000,7.71651904296875,-0.006665229797363281,0.012053944170475006,0.013072613626718521
1716735572128519200,7.726519287109375,-0.023420333862304688,0.009071476757526398,-0.001467328518629074
1716735572138519000,7.73651904296875,-0.02581310272216797,0.006237305700778961,-0.013559497892856598
1716735572148519200,7.746519287109375,-0.021024703979492188,-0.0034166909754276276,-0.003969021141529083
1716735572158519000,7.75651904296875,-0.013840675354003906,0.0037975050508975983,0.00795658677816391
1716735572168519200,7.766519287109375,-0.025811195373535156,-0.01345149241387844,-0.00396747887134552
1716735572178519000,7.77651904296875,-0.011445999145507812,0.008138369768857956,0.01759280636906624
1716735572188519200,7.786519287109375,-0.023416519165039062,0.017866313457489014,0.0007866658270359039
1716735572198519000,7.79651904296875,-0.004261016845703125,0.005487482994794846,-0.004168502986431122
1716735572208519200,7.806519287109375,-0.0042591094970703125,-0.006964260712265968,0.0029997490346431732
1716735572218519000,7.81651904296875,-0.01622772216796875,-0.0026749707758426666,0.005163837224245071
1716735572228519200,7.826519287109375,-0.023408889770507812,-0.005104150623083115,0.00518982857465744
1716735572238519000,7.83651904296875,-0.011438369750976562,-0.005123589187860489,0.00040490180253982544
1716735572248519200,7.846519287109375,-0.021013259887695312,-0.00015960633754730225,-0.00006432831287384033
1716735572258519000,7.85651904296875,-0.03298473358154297,0.004732079803943634,-0.000042770057916641235
1716735572268519200,7.866519287109375,-0.0258026123046875,-0.004883166402578354,0.004752401262521744
1716735572278519000,7.87651904296875,-0.018619537353515625,0.004668779671192169,-0.002346135675907135
1716735572288519200,7.886519287109375,-0.011437416076660156,-0.009763062000274658,0.007302086800336838
1716735572298519000,7.89651904296875,-0.016225814819335938,0.0021818242967128754,0.0024784021079540253
1716735572308519200,7.906519287109375,-0.03537940979003906,0.011739153414964676,0.00008775666356086731
1716735572318519000,7.91651904296875,-0.018619537353515625,-0.0002579502761363983,0.00005253031849861145
1716735572328519200,7.926519287109375,-0.018619537353515625,0.009222172200679779,-0.007112905383110046
1716735572338519000,7.93651904296875,-0.02101421356201172,-0.007495352998375893,-0.00231190025806427
1716735572348519200,7.946519287109375,-0.016225814819335938,-0.00027064234018325806,-0.014270469546318054
1716735572358519000,7.95651904296875,-0.016228675842285156,-0.0004838034510612488,-0.013675019145011902
1716735572368519200,7.966519287109375,0.0005283355712890625,0.006707392632961273,-0.00839022547006607
1716735572378519000,7.97651904296875,-0.021022796630859375,-0.010179050266742706,0.0017071254551410675
1716735572388519200,7.986519287109375,-0.023416519165039062,-0.000618230551481247,-0.010241031646728516
1716735572398519000,7.99651904296875,-0.006657600402832031,-0.0030476562678813934,0.00893867015838623
1716735572408519200,8.006519287109375,-0.023416519165039062,-0.0006115064024925232,0.020922265946865082
1716735572418519000,8.01651904296875,-0.004261970520019531,0.006673436611890793,-0.0007234849035739899
1716735572428519200,8.026519287109375,-0.013838768005371094,-0.007768964394927025,-0.01986343041062355
1716735572438519000,8.03651904296875,-0.016237258911132812,0.004428256303071976,-0.005119968205690384
1716735572448519200,8.046519287109374,-0.02341938018798828,-0.002700086683034897,-0.0003608986735343933
1716735572458519000,8.05651904296875,-0.011448860168457031,-0.007465781643986702,-0.0003450736403465271
1716735572468519200,8.066519287109376,-0.021024703979492188,0.016466207802295685,-0.012374117970466614
1716735572478519000,8.07651904296875,-0.016239166259765625,-0.005308613181114197,-0.004673171788454056
1716735572488519200,8.086519287109375,-0.018632888793945312,0.006756816059350967,-0.00459032878279686
1716735572498519000,8.09651904296875,-0.021027565002441406,0.006740927696228027,-0.004567597061395645
1716735572508519200,8.106519287109375,-0.02821063995361328,0.004012055695056915,-0.004209607839584351
1716735572518519000,8.11651904296875,-0.018634796142578125,-0.0006729438900947571,0.007782910019159317
1716735572528519200,8.126519287109375,-0.006664276123046875,-0.010276183485984802,0.0005652941763401031
1716735572538519000,8.13651904296875,-0.011452674865722656,0.0136374831199646,0.014995288103818893
1716735572548519200,8.146519287109374,-0.03060626983642578,0.008833404630422592,0.0006526447832584381
1716735572558519000,8.15651904296875,-0.006664276123046875,0.0016826391220092773,-0.006575457751750946
1716735572568519200,8.166519287109375,-0.02102947235107422,0.004009861499071121,-0.01368642970919609
1716735572578519000,8.17651904296875,-0.02102947235107422,0.0036102496087551117,-0.013356655836105347
1716735572588519200,8.186519287109375,-0.016241073608398438,0.0012386292219161987,-0.010946426540613174
1716735572598519000,8.19651904296875,-0.0018758773803710938,0.00841444730758667,-0.0014082714915275574
1716735572608519200,8.206519287109375,-0.013846397399902344,-0.010707419365644455,0.01530560851097107
1716735572618519000,8.21651904296875,-0.009057998657226562,0.0036419667303562164,0.0033573098480701447
1716735572628519200,8.226519287109374,-0.021026611328125,0.008209597319364548,-0.009072542190551758
1716735572638519000,8.23651904296875,-0.004265785217285156,-0.0018418766558170319,0.01511295884847641
1716735572648519200,8.246519287109376,-0.004265785217285156,-0.004136092960834503,0.01990356296300888
1716735572658519300,8.256519287109375,-0.016237258911132812,-0.004151768982410431,0.0007725097239017487
1716735572668519200,8.266519287109375,-0.030600547790527344,-0.006427831947803497,0.01707259938120842
1716735572678519300,8.276519287109375,-0.02581024169921875,-0.0159513670951128,-0.014539584517478943
1716735572688519200,8.286519287109375,0.0651693344116211,0.02000376582145691,-0.014527145773172379
1716735572698519300,8.296519287109374,0.0005283355712890625,-0.016411373391747475,0.01189807802438736
1716735572708519200,8.306519287109374,-0.018627166748046875,-0.011399898678064346,-0.009629778563976288
1716735572718519000,8.31651904296875,-0.059329986572265625,-0.015665804967284203,0.011945053935050964
1716735572728519200,8.326519287109376,0.012493133544921875,-0.024383950978517532,-0.0193914957344532
1716735572738519000,8.33651904296875,-0.01384735107421875,-0.016279511153697968,0.021564707159996033
1716735572748519200,8.346519287109375,-0.06891441345214844,0.017775744199752808,0.0021764300763607025
1716735572758519000,8.35651904296875,-0.047367095947265625,0.001119457185268402,-0.0049844831228256226
1716735572768519200,8.366519287109375,0.01009368896484375,0.005997758358716965,0.014113318175077438
1716735572778519000,8.37651904296875,0.017274856567382812,-0.015504550188779831,0.004568208009004593
1716735572788519200,8.386519287109374,-0.042578697204589844,-0.017624324187636375,-0.010044693946838379
1716735572798519000,8.39651904296875,-0.05215740203857422,0.00447782501578331,0.02106144279241562
1716735572808519200,8.406519287109376,0.0053043365478515625,-0.0023607835173606873,0.0038825049996376038
1716735572818519000,8.41651904296875,0.005305290222167969,-0.002367813140153885,-0.003338657319545746
1716735572828519200,8.426519287109375,-0.025818824768066406,0.007476631551980972,-0.0060192011296749115
1716735572838519000,8.43651904296875,-0.025819778442382812,-0.018770039081573486,0.008290395140647888
1716735572848519200,8.446519287109375,-0.006665229797363281,0.012268170714378357,-0.017970718443393707
1716735572858519000,8.45651904296875,0.0005140304565429688,0.0054491497576236725,-0.010533828288316727
1716735572868519200,8.466519287109374,-0.028215408325195312,-0.0017016157507896423,0.001391686499118805
1716735572878519000,8.47651904296875,-0.03539848327636719,0.003128550946712494,-0.01056668534874916
1716735572888519200,8.486519287109376,-0.011457443237304688,-0.001684781163930893,0.008671019226312637
1716735572898519000,8.49651904296875,0.00530242919921875,0.019847210496664047,-0.008065681904554367
1716735572908519200,8.506519287109375,-0.02821636199951172,0.007856883108615875,-0.0008796527981758118
1716735572918519300,8.516519287109375,-0.02582263946533203,-0.004149606451392174,0.015906095504760742
1716735572928519200,8.526519287109375,-0.011457443237304688,0.00787249207496643,-0.010479014366865158
1716735572938519000,8.53651904296875,-0.004273414611816406,-0.0018008127808570862,-0.022432927042245865
1716735572948519200,8.546519287109374,-0.02821826934814453,-0.006796728819608688,0.006812334060668945
1716735572958519000,8.55651904296875,-0.03300666809082031,-0.011542869731783867,0.00443045049905777
1716735572968519200,8.566519287109376,-0.0114593505859375,-0.004386605694890022,-0.005181491374969482
1716735572978519000,8.57651904296875,-0.004275321960449219,0.00031452253460884094,0.00435098260641098
1716735572988519200,8.586519287109375,-0.018640518188476562,0.00269283726811409,-0.0028088875114917755
1716735572998519000,8.59651904296875,-0.033005714416503906,0.0026737451553344727,-0.007594019174575806
1716735573008519200,8.606519287109375,-0.004276275634765625,0.03136901929974556,-0.00038528069853782654
1716735573018519000,8.61651904296875,-0.016246795654296875,-0.006964541971683502,0.011550601571798325
1716735573028519200,8.626519287109375,-0.023428916931152344,-0.00447152741253376,0.013827677816152573
1716735573038519000,8.63651904296875,-0.04497718811035156,0.002686329185962677,-0.007636114954948425
1716735573048519200,8.646519287109374,-0.033005714416503906,-0.011694708839058876,-0.00043080002069473267
1716735573058519000,8.65651904296875,-0.021035194396972656,-0.004531437531113625,-0.005215834826231003
1716735573068519200,8.666519287109375,-0.02821826934814453,0.0027454309165477753,-0.007527068257331848
1716735573078519000,8.67651904296875,-0.030615806579589844,0.002769477665424347,-0.004659034311771393
1716735573088519200,8.686519287109375,-0.011462211608886719,0.012330301105976105,0.00015220791101455688
1716735573098519000,8.69651904296875,-0.011462211608886719,0.004808485507965088,-0.013993650674819946
1716735573108519200,8.706519287109375,-0.030615806579589844,0.0024565495550632477,0.017143279314041138
1716735573118519000,8.71651904296875,-0.018645286560058594,-0.007083829492330551,0.014842212200164795
1716735573128519200,8.726519287109374,-0.011464118957519531,0.0073812492191791534,-0.0019149556756019592
1716735573138519000,8.73651904296875,-0.013857841491699219,-0.0069613829255104065,0.005283668637275696
1716735573148519200,8.746519287109376,-0.013857841491699219,0.005113091319799423,0.010093547403812408
1716735573158519000,8.75651904296875,-0.030617713928222656,-0.0020364709198474884,0.0005904883146286011
1716735573168519200,8.766519287109375,-0.033008575439453125,-0.004528878256678581,-0.014215342700481415
1716735573178519000,8.77651904296875,-0.013856887817382812,0.0051512159407138824,-0.014193788170814514
1716735573188519200,8.786519287109375,-0.03301048278808594,-0.01162424124777317,0.007376883178949356
1716735573198519000,8.79651904296875,-0.011461257934570312,0.0027114413678646088,0.00492815300822258
1716735573208519200,8.806519287109374,-0.0162506103515625,-0.014016184955835342,-0.0022999271750450134
1716735573218519000,8.81651904296875,-0.016249656677246094,0.009957823902368546,-0.002345547080039978
1716735573228519200,8.826519287109376,-0.028220176696777344,-0.0044144149869680405,-0.004778306931257248
1716735573238519000,8.83651904296875,-0.03061676025390625,0.005305711179971695,0.012115046381950378
1716735573248519200,8.846519287109375,-0.016251564025878906,0.01964617148041725,0.00022805854678153992
1716735573258519000,8.85651904296875,-0.011463165283203125,-0.0019084326922893524,0.009766217321157455
1716735573268519200,8.866519287109375,0.0005083084106445312,0.0029130354523658752,0.021811027079820633
1716735573278519000,8.87651904296875,-0.023433685302734375,0.010009508579969406,-0.009238667786121368
1716735573288519200,8.886519287109374,-0.023433685302734375,0.002978038042783737,0.012262426316738129
1716735573298519000,8.89651904296875,-0.021040916442871094,0.002952922135591507,0.009952381253242493
1716735573308519200,8.906519287109376,-0.016248703002929688,0.00017324835062026978,0.007068764418363571
1716735573318519000,8.91651904296875,-0.01863861083984375,0.004798825830221176,-0.0005829483270645142
1716735573328519200,8.926519287109375,-0.023427963256835938,-0.016715584322810173,0.0018848590552806854
1716735573338519000,8.93651904296875,-0.021030426025390625,0.011973496526479721,0.015679746866226196
1716735573348519200,8.946519287109375,-0.023421287536621094,-0.009691610932350159,0.0008771792054176331
1716735573358519000,8.95651904296875,-0.03299522399902344,-0.00011657923460006714,0.009996294975280762
1716735573368519200,8.966519287109374,-0.016234397888183594,0.009468134492635727,-0.007282555103302002
1716735573378519000,8.97651904296875,-0.016233444213867188,0.0021890290081501007,-0.014448065310716629
1716735573388519200,8.986519287109376,-0.018627166748046875,-0.004942486062645912,-0.0025259479880332947
1716735573398519000,8.99651904296875,-0.023416519165039062,-0.007313888520002365,-0.0049042850732803345
1716735573408519200,9.006519287109375,-0.018627166748046875,-0.009723979979753494,0.011877864599227905
1716735573418519000,9.01651904296875,-0.02102184295654297,0.016582533717155457,-0.007330220192670822
1716735573428519200,9.026519287109375,-0.03059864044189453,0.004595696926116943,0.004663500934839249
1716735573438519000,9.03651904296875,-0.016233444213867188,0.004569891840219498,-0.004948709160089493
1716735573448519200,9.046519287109374,-0.01623249053955078,-0.0025810599327087402,-0.007388334721326828
1716735573458519000,9.05651904296875,-0.011445045471191406,-0.012115655466914177,0.004595011472702026
1716735573468519200,9.066519287109376,-0.02102184295654297,0.014252405613660812,-0.00981568917632103
1716735573478519000,9.07651904296875,-0.021020889282226562,0.004607584327459335,-0.00746922567486763
1716735573488519200,9.086519287109375,-0.01623249053955078,-0.00021614506840705872,-0.009837225079536438
1716735573498519000,9.09651904296875,-0.018625259399414062,-0.00022299215197563171,-0.0026932470500469208
1716735573508519200,9.106519287109375,-0.03059673309326172,-0.009829483926296234,-0.007536053657531738
1716735573518519000,9.11651904296875,-0.0090484619140625,0.004577938467264175,-0.014706321060657501
1716735573528519200,9.126519287109375,-0.018630027770996094,0.00217403843998909,-0.004510320723056793
1716735573538519000,9.13651904296875,-0.0162353515625,-0.0025824271142482758,-0.011738527566194534
1716735573548519200,9.146519287109374,-0.011450767517089844,0.004556499421596527,0.0009971261024475098
1716735573558519000,9.15651904296875,-0.021030426025390625,0.004512324929237366,0.0014232881367206573
1716735573568519200,9.166519287109375,-0.016242027282714844,-0.0026472993195056915,-0.008137725293636322
1716735573578519000,9.17651904296875,-0.016242027282714844,-0.014705825597047806,-0.003393564373254776
1716735573588519200,9.186519287109375,-0.011453628540039062,0.004432119429111481,-0.0033709853887557983
1716735573598519000,9.19651904296875,-0.01863574981689453,0.01405118778347969,-0.005752880126237869
1716735573608519200,9.206519287109375,-0.011453628540039062,-0.000281013548374176,-0.01286165788769722
1716735573618519000,9.21651904296875,-0.02342700958251953,-0.0004361756145954132,0.0020887665450572968
1716735573628519200,9.226519287109374,-0.01624774932861328,-0.0053162481635808945,-0.004599537700414658
1716735573638519000,9.23651904296875,-0.01864147186279297,0.011423729360103607,0.00019233301281929016
1716735573648519200,9.246519287109376,-0.018642425537109375,0.0042739734053611755,0.017025701701641083
1716735573658519000,9.25651904296875,-0.05934429168701172,-0.02682460844516754,-0.01645786687731743
1716735573668519200,9.266519287109375,0.18007755279541016,0.032832663506269455,0.016956567764282227
1716735573678519000,9.27651904296875,-0.11919689178466797,-0.012438898906111717,0.0264148972928524
1716735573688519200,9.286519287109375,-0.09525203704833984,-0.0006342865526676178,-0.0028038136661052704
1716735573698519000,9.29651904296875,-0.05455207824707031,-0.0005819089710712433,0.014025978744029999
1716735573708519200,9.306519287109374,0.06276512145996094,-0.019775211811065674,-0.0028460174798965454
1716735573718519000,9.31651904296875,-0.04018592834472656,0.013856116682291031,-0.0004916936159133911
1716735573728519200,9.326519287109376,-0.11919403076171875,-0.00048635154962539673,0.011495210230350494
1716735573738519000,9.33651904296875,-0.06412887573242188,0.01882832497358322,0.0019298270344734192
1716735573748519200,9.346519287109375,0.07713031768798828,0.018744289875030518,0.001904863864183426
1716735573758519000,9.35651904296875,-0.00905609130859375,0.010960306972265244,0.0014338046312332153
1716735573768519200,9.366519287109375,-0.0665140151977539,-0.013522641733288765,-0.010779961943626404
1716735573778519000,9.37651904296875,-0.0665140151977539,-0.0038460344076156616,-0.001200888305902481
1716735573788519200,9.386519287109374,0.02925586700439453,-0.006837880238890648,-0.010890893638134003
1716735573798519000,9.39651904296875,0.005311012268066406,-0.009158976376056671,-0.012760240584611893
1716735573808519200,9.406519287109376,-0.07848930358886719,0.000693153589963913,0.01879362389445305
1716735573818519000,9.41651904296875,-0.044971466064453125,0.03193007782101631,-0.019553322345018387
1716735573828519200,9.426519287109375,0.029250144958496094,0.008067537099123001,-0.005301874130964279
1716735573838519000,9.43651904296875,-0.009057044982910156,0.007515735924243927,0.011714648455381393
1716735573848519200,9.446519287109375,-0.08088302612304688,-0.002076897770166397,-0.019387267529964447
1716735573858519000,9.45651904296875,-0.04018211364746094,-0.013944501057267189,-0.007394745945930481
1716735573868519200,9.466519287109374,0.017276763916015625,-0.011738646775484085,0.002693522721529007
1716735573878519000,9.47651904296875,-0.004273414611816406,0.002808690071105957,0.0031592100858688354
1716735573888519200,9.486519287109376,-0.049765586853027344,0.0028998441994190216,0.00801100954413414
1716735573898519000,9.49651904296875,-0.028217315673828125,0.007791653275489807,0.00563831627368927
1716735573908519200,9.506519287109375,0.005301475524902344,0.0006499327719211578,0.012714069336652756
1716735573918519000,9.51651904296875,-0.0018777847290039062,0.007541228085756302,-0.006845936179161072
1716735573928519200,9.526519287109375,-0.05694293975830078,0.0003482326865196228,0.009855587035417557
1716735573938519000,9.53651904296875,-0.05694389343261719,-0.011529635637998581,0.0026365555822849274
1716735573948519200,9.546519287109374,-0.006664276123046875,-0.021058961749076843,-0.004952855408191681
1716735573958519000,9.55651904296875,-0.0042705535888671875,0.008201990276575089,0.006864357739686966
1716735573968519200,9.566519287109376,-0.04976081848144531,0.0011226125061511993,0.009280141443014145
1716735573978519000,9.57651904296875,-0.04018402099609375,0.013135727494955063,0.009292583912611008
1716735573988519200,9.586519287109375,0.0076999664306640625,0.0035416260361671448,-0.005169108510017395
1716735573998519000,9.59651904296875,-0.009058952331542969,-0.0012150928378105164,-0.00042606890201568604
1716735574008519200,9.606519287109375,-0.021030426025390625,0.0012107007205486298,0.006711140275001526
1716735574018519000,9.61651904296875,-0.033000946044921875,-0.010728470981121063,-0.005305364727973938
1716735574028519200,9.626519287109375,-0.009058952331542969,-0.006016971543431282,0.023438535630702972
1716735574038519000,9.63651904296875,0.0005207061767578125,0.008459273725748062,0.018152397125959396
1716735574048519200,9.646519287109374,-0.03538990020751953,0.0037294328212738037,0.010401777923107147
1716735574058519000,9.65651904296875,-0.030597686767578125,-0.022618554532527924,-0.004479303956031799
1716735574068519200,9.666519287109375,-0.013838768005371094,0.013317104429006577,-0.0068575069308280945
1716735574078519000,9.67651904296875,-0.016233444213867188,0.01084565743803978,0.0051271915435791016
1716735574088519200,9.686519287109375,-0.02101898193359375,0.008237417787313461,0.004707016050815582
1716735574098519000,9.69651904296875,-0.04496002197265625,-0.008546926081180573,0.00479111447930336
1716735574108519200,9.706519287109375,-0.011441230773925781,-0.008576605468988419,0.004736714065074921
1716735574118519000,9.71651904296875,-0.018624305725097656,-0.0038710124790668488,-0.011928360909223557
1716735574128519200,9.726519287109374,-0.03538322448730469,-0.001135062426328659,-0.007459472864866257
1716735574138519000,9.73651904296875,-0.030594825744628906,0.008534923195838928,-0.00989019125699997
1716735574148519200,9.746519287109376,-0.0090484619140625,0.01326686516404152,0.014519963413476944
1716735574158519000,9.75651904296875,-0.018625259399414062,0.00851171463727951,-0.002165716141462326
1716735574168519200,9.766519287109375,-0.030595779418945312,-0.013475725427269936,0.0025013089179992676
1716735574178519000,9.77651904296875,-0.030595779418945312,0.003315344452857971,-0.009515121579170227
1716735574188519200,9.786519287109375,-0.009046554565429688,-0.0014834888279438019,-0.009572919458150864
1716735574198519000,9.79651904296875,-0.006655693054199219,0.005498487502336502,-0.013807889074087143
1716735574208519200,9.806519287109374,-0.030599594116210938,0.0029897019267082214,0.013006817549467087
1716735574218519000,9.81651904296875,-0.028204917907714844,-0.009000372141599655,0.010615937411785126
1716735574228519200,9.826519287109376,-0.03538799285888672,-0.016218017786741257,0.01782456412911415
1716735574238519000,9.83651904296875,-0.009049415588378906,-0.006365595385432243,0.014963243156671524
1716735574248519200,9.846519287109375,-0.028202056884765625,-0.018064221367239952,-0.019042085856199265
1716735574258519000,9.85651904296875,-0.030597686767578125,-0.005484262481331825,-0.004725046455860138
1716735574268519200,9.866519287109375,-0.01862812042236328,-0.004977623000741005,-0.021434787660837173
1716735574278519000,9.87651904296875,-0.032998085021972656,0.012428633868694305,0.007798470556735992
1716735574288519200,9.886519287109374,-0.0282135009765625,0.010420989245176315,0.0008859634399414062
1716735574298519000,9.89651904296875,-0.01384735107421875,-0.0015849769115447998,0.0057004354894161224
1716735574308519200,9.906519287109376,-0.0282135009765625,-0.00639849528670311,0.005784597247838974
1716735574318519000,9.91651904296875,-0.013848304748535156,0.01512988656759262,-0.0013945437967777252
1716735574328519200,9.926519287109375,-0.01384735107421875,0.0031417645514011383,0.008085697889328003
1716735574338519000,9.93651904296875,-0.025818824768066406,0.0031837113201618195,0.003309875726699829
1716735574348519200,9.946519287109375,-0.013848304748535156,0.008003707975149155,0.0008702725172042847
1716735574358519000,9.95651904296875,-0.01384735107421875,0.019939418882131577,-0.006286073476076126
1716735574368519200,9.966519287109374,-0.021028518676757812,-0.006984081119298935,-0.013524036854505539
1716735574378519000,9.97651904296875,-0.025816917419433594,-0.0022920146584510803,-0.0063244737684726715
1716735574388519200,9.986519287109376,-0.0234222412109375,0.0000828765332698822,-0.013503652065992355
1716735574398519000,9.99651904296875,-0.023424148559570312,0.0021957755088806152,0.0038035735487937927
1716735574408519200,10.006519287109375,-0.021030426025390625,0.0021185241639614105,-0.0009711422026157379
1716735574418519000,10.01651904296875,-0.01624298095703125,0.004607312381267548,-0.008071035146713257
1716735574428519200,10.026519287109375,-0.018636703491210938,-0.005008278414607048,0.006301157176494598
1716735574438519000,10.03651904296875,-0.02582073211669922,-0.007465820759534836,-0.005579069256782532
1716735574448519200,10.046519287109374,-0.01624584197998047,-0.0026497244834899902,0.014067597687244415
1716735574458519000,10.05651904296875,-0.018640518188476562,-0.0026076771318912506,-0.0050735510885715485
1716735574468519200,10.066519287109376,-0.006669044494628906,-0.00981980562210083,0.002054516226053238
1716735574478519000,10.07651904296875,-0.025823593139648438,-0.002057671546936035,0.009134311228990555
1716735574488519200,10.086519287109375,-0.025824546813964844,0.0027058571577072144,-0.007541026920080185
1716735574498519000,10.09651904296875,-0.028217315673828125,0.014647286385297775,0.00437546893954277
1716735574508519200,10.106519287109375,-0.02342700958251953,0.019143804907798767,0.006582319736480713
1716735574518519000,10.11651904296875,-0.01863574981689453,0.004276204854249954,0.0015442706644535065
1716735574528519200,10.126519287109375,-0.033000946044921875,0.01861189678311348,-0.005692873150110245
1716735574538519000,10.13651904296875,-0.025815963745117188,0.008263759315013885,-0.008169535547494888
1716735574548519200,10.146519287109374,-0.023420333862304688,0.005786750465631485,0.011078417301177979
1716735574558519000,10.15651904296875,-0.013841629028320312,-0.004403650760650635,-0.003377247601747513
1716735574568519200,10.166519287109375,-0.028203964233398438,-0.007459236308932304,0.0061773695051670074
1716735574578519000,10.17651904296875,-0.03059864044189453,-0.0025675855576992035,-0.0009835883975028992
1716735574588519200,10.186519287109375,-0.016233444213867188,0.004637818783521652,0.0014264695346355438
1716735574598519000,10.19651904296875,-0.021022796630859375,-0.007281942293047905,-0.0010167546570301056
1716735574608519200,10.206519287109375,-0.03059864044189453,0.004654087126255035,0.0037976428866386414
1716735574618519000,10.21651904296875,-0.023412704467773438,-0.012373682111501694,0.022560574114322662
1716735574628519200,10.226519287109374,-0.03538227081298828,-0.0050084590911865234,0.012553039938211441
1716735574638519000,10.23651904296875,-0.04016876220703125,0.007086068391799927,-0.007140368223190308
1716735574648519200,10.246519287109376,-0.02101421356201172,0.004723649471998215,0.014361977577209473
1716735574658519000,10.25651904296875,-0.023407936096191406,0.002364546060562134,0.009547535330057144
1716735574668519200,10.266519287109375,-0.01862049102783203,0.0072052329778671265,0.0072236694395542145
1716735574678519000,10.27651904296875,-0.02579975128173828,0.014230914413928986,-0.002903025597333908
1716735574688519200,10.286519287109375,-0.030588150024414062,0.007032483816146851,0.0234559066593647
1716735574698519000,10.29651904296875,-0.02818775177001953,0.0018716566264629364,0.015522785484790802
1716735574708519200,10.306519287109374,-0.02100086212158203,-0.012832548469305038,-0.01627877727150917
1716735574718519000,10.31651904296875,-0.01621246337890625,0.001625802367925644,-0.006738394498825073
1716735574728519200,10.326519287109376,-0.01621246337890625,-0.005581673234701157,-0.0018659234046936035
1716735574738519000,10.33651904296875,-0.035366058349609375,-0.003145255148410797,-0.01861300691962242
1716735574748519200,10.346519287109375,-0.02339458465576172,0.013527560979127884,0.005404245108366013
1716735574758519000,10.35651904296875,-0.023395538330078125,-0.02240152284502983,0.0030329227447509766
1716735574768519200,10.366519287109375,-0.04254913330078125,0.02785727009177208,-0.025694023817777634
1716735574778519000,10.37651904296875,0.1513824462890625,0.00775986909866333,-0.015710953623056412
1716735574788519200,10.386519287109374,0.03885364532470703,-0.013599228113889694,-0.015545211732387543
1716735574798519000,10.39651904296875,-0.06410026550292969,-0.011164069175720215,0.011361554265022278
1716735574808519200,10.406519287109376,-0.0018529891967773438,0.003292310982942581,-0.01251707598567009
1716735574818519000,10.41651904296875,0.0340576171875,-0.013461343944072723,-0.0023435652256011963
1716735574828519200,10.426519287109375,-0.05213356018066406,0.020221251994371414,-0.000038273632526397705
1716735574838519000,10.43651904296875,-0.06650066375732422,0.013248879462480545,0.007206667214632034
1716735574848519200,10.446519287109375,0.01729583740234375,-0.010589826852083206,0.0000456981360912323
1716735574858519000,10.45651904296875,0.029266357421875,-0.003677189350128174,0.0052204430103302
1716735574868519200,10.466519287109374,-0.04495429992675781,-0.008472373709082603,-0.01157761737704277
1716735574878519000,10.47651904296875,-0.07847309112548828,-0.008259778842329979,0.009932417422533035
1716735574888519200,10.486519287109376,0.012506484985351562,0.005947574973106384,0.007546253502368927
1716735574898519000,10.49651904296875,0.0077190399169921875,-0.03204144164919853,-0.002485498785972595
1716735574908519200,10.506519287109375,-0.03777027130126953,0.0016192272305488586,0.009500257670879364
1716735574918519000,10.51651904296875,-0.059319496154785156,-0.00785410962998867,-0.014420270919799805
1716735574928519200,10.526519287109375,-0.0018606185913085938,-0.004894152283668518,0.007286343723535538
1716735574938519000,10.53651904296875,0.017292022705078125,-0.021630767732858658,0.0025138109922409058
1716735574948519200,10.546519287109374,-0.03298759460449219,0.007783625274896622,-0.01181333139538765
1716735574958519000,10.55651904296875,-0.06411457061767578,-0.001689709722995758,-0.0022150352597236633
1716735574968519200,10.566519287109376,-0.0018682479858398438,-0.0034917742013931274,0.0027672089636325836
1716735574978519000,10.57651904296875,0.01728534698486328,-0.010574232786893845,-0.009201738983392715
1716735574988519200,10.586519287109375,-0.044966697692871094,0.004215992987155914,0.0030326656997203827
1716735574998519000,10.59651904296875,-0.042572975158691406,0.021059494465589523,0.0006634034216403961
1716735575008519200,10.606519287109375,-0.021025657653808594,0.0019570328295230865,-0.0041739195585250854
1716735575018519000,10.61651904296875,0.022070884704589844,0.016292482614517212,0.0005600415170192719
1716735575028519200,10.626519287109375,-0.03060150146484375,-0.012525392696261406,-0.004272628575563431
1716735575038519000,10.63651904296875,-0.05214881896972656,-0.012480108067393303,0.0005476176738739014
1716735575048519200,10.646519287109374,-0.011447906494140625,0.0019169412553310394,-0.004286270588636398
1716735575058519000,10.65651904296875,0.0005207061767578125,-0.00031461194157600403,-0.006211221218109131
1716735575068519200,10.666519287109375,-0.021027565002441406,-0.00511852465569973,0.000993829220533371
1716735575078519000,10.67651904296875,-0.04257488250732422,-0.007547684013843536,0.00580829381942749
1716735575088519200,10.686519287109375,-0.021027565002441406,-0.0002650916576385498,-0.0013721100986003876
1716735575098519000,10.69651904296875,-0.011450767517089844,0.002041812986135483,0.003371894359588623
1716735575108519200,10.706519287109375,-0.03060436248779297,0.004471220076084137,-0.006231073290109634
1716735575118519000,10.71651904296875,-0.025815963745117188,-0.002720370888710022,0.02016647905111313
1716735575128519200,10.726519287109374,-0.021027565002441406,-0.014717373996973038,0.005765937268733978
1716735575138519000,10.73651904296875,0.0005207061767578125,0.011976398527622223,0.0030296072363853455
1716735575148519200,10.746519287109376,-0.030602455139160156,0.009556036442518234,0.007782801985740662
1716735575158519000,10.75651904296875,-0.009052276611328125,0.011824090033769608,0.009800877422094345
1716735575168519200,10.766519287109375,-0.03060150146484375,0.004792559891939163,0.002571582794189453
1716735575178519000,10.77651904296875,-0.0018711090087890625,0.019150804728269577,-0.007043804973363876
1716735575188519200,10.786519287109375,-0.006656646728515625,0.004300594329833984,-0.00719694048166275
1716735575198519000,10.79651904296875,-0.035384178161621094,-0.005882957950234413,0.0023280270397663116
1716735575208519200,10.806519287109374,-0.030595779418945312,-0.0011013336479663849,-0.01207583025097847
1716735575218519000,10.81651904296875,-0.001865386962890625,-0.008312299847602844,-0.002434246242046356
1716735575228519200,10.826519287109376,-0.018624305725097656,-0.00594419427216053,0.014289941638708115
1716735575238519000,10.83651904296875,-0.032989501953125,0.006058409810066223,0.009456146508455276
1716735575248519200,10.846519287109375,-0.01862335205078125,-0.005938878282904625,-0.007338423281908035
1716735575258519000,10.85651904296875,-0.009046554565429688,0.01799287274479866,-0.014578968286514282
1716735575268519200,10.866519287109375,-0.013835906982421875,0.010837703943252563,-0.01921289786696434
1716735575278519000,10.87651904296875,-0.030595779418945312,-0.0012105517089366913,0.011925414204597473
1716735575288519200,10.886519287109374,-0.021019935607910156,0.001165781170129776,-0.004711441695690155
1716735575298519000,10.89651904296875,-0.01623058319091797,-0.011218618601560593,0.009906288236379623
1716735575308519200,10.906519287109376,-0.028202056884765625,0.015159547328948975,0.007524661719799042
1716735575318519000,10.91651904296875,-0.04017066955566406,0.007584996521472931,-0.009424358606338501
1716735575328519200,10.926519287109375,-0.023410797119140625,0.0004340745508670807,-0.002287108451128006
1716735575338519000,10.93651904296875,-0.021017074584960938,-0.006697433069348335,-0.009518597275018692
1716735575348519200,10.946519287109375,-0.021017074584960938,0.005238432437181473,-0.00949246808886528
1716735575358519000,10.95651904296875,-0.02580547332763672,0.002828028053045273,0.007289797067642212
1716735575368519200,10.966519287109374,-0.023410797119140625,0.016856934875249863,0.007528763264417648
1716735575378519000,10.97651904296875,-0.023410797119140625,-0.0022513940930366516,-0.016381394118070602
1716735575388519200,10.986519287109376,-0.016229629516601562,0.009374335408210754,0.007860925048589706
1716735575398519000,10.99651904296875,-0.035381317138671875,-0.010281749069690704,0.0031617209315299988
1716735575408519200,11.006519287109375,-0.018622398376464844,-0.0007209554314613342,0.010367114096879959
1716735575418519300,11.016519287109375,-0.011437416076660156,0.013453342020511627,0.005174260586500168
1716735575428519200,11.026519287109375,-0.02101421356201172,0.011039827018976212,0.009966090321540833
1716735575438519300,11.036519287109375,-0.02101421356201172,-0.005626574158668518,0.0027471110224723816
1716735575448519200,11.046519287109374,-0.030590057373046875,0.001530040055513382,-0.004470832645893097
1716735575458519000,11.05651904296875,-0.03298377990722656,-0.005610458552837372,0.002724211663007736
1716735575468519200,11.066519287109376,-0.006649017333984375,0.0016143806278705597,-0.006840206682682037
1716735575478519000,11.07651904296875,-0.03298187255859375,0.00600012019276619,-0.007087405771017075
1716735575488519200,11.086519287109375,-0.0210113525390625,0.010888509452342987,0.004885803908109665
1716735575498519000,11.09651904296875,-0.018614768981933594,-0.011149082332849503,0.004932787269353867
1716735575508519200,11.106519287109375,-0.02579498291015625,0.007804322987794876,0.002195611596107483
1716735575518519000,11.11651904296875,-0.03297710418701172,0.0029864050447940826,-0.002647336572408676
1716735575528519200,11.126519287109375,-0.02100658416748047,-0.03527551516890526,0.00935560092329979
1716735575538519000,11.13651904296875,-0.011430740356445312,-0.013204388320446014,0.009163346141576767
1716735575548519200,11.146519287109374,-0.023401260375976562,0.008744761347770691,-0.007806792855262756
1716735575558519000,11.15651904296875,-0.01861286163330078,0.008776731789112091,-0.02221754938364029
1716735575568519200,11.166519287109375,-0.018611907958984375,0.008627891540527344,-0.022270940244197845
1716735575578519000,11.17651904296875,-0.018611907958984375,0.008611839264631271,-0.003094445914030075
1716735575588519200,11.186519287109375,-0.028188705444335938,-0.0009240806102752686,-0.007989700883626938
1716735575598519000,11.19651904296875,-0.03058338165283203,-0.005570448935031891,-0.010369237512350082
1716735575608519200,11.206519287109375,-0.032980918884277344,0.006595205515623093,-0.01712821051478386
1716735575618519000,11.21651904296875,-0.021012306213378906,0.013714462518692017,-0.007121961563825607
1716735575628519200,11.226519287109374,-0.006649971008300781,0.001539386808872223,0.002988964319229126
1716735575638519000,11.23651904296875,-0.028199195861816406,-0.00341932475566864,-0.01817002147436142
1716735575648519200,11.246519287109376,-0.009045600891113281,0.0037441886961460114,-0.008589968085289001
1716735575658519300,11.256519287109375,-0.02101898193359375,-0.013129636645317078,0.0014652498066425323
1716735575668519200,11.266519287109375,-0.01862812042236328,0.0013733170926570892,-0.012346692383289337
1716735575678519300,11.276519287109375,-0.023416519165039062,-0.010555796325206757,0.011607930064201355
1716735575688519200,11.286519287109375,-0.023416519165039062,0.00622640922665596,-0.01710662618279457
1716735575698519300,11.296519287109374,-0.032998085021972656,-0.005566909909248352,0.007500994950532913
1716735575708519200,11.306519287109374,-0.025815963745117188,0.004052001982927322,0.009907633066177368
1716735575718519000,11.31651904296875,-0.021027565002441406,-0.007887044921517372,0.01704469323158264
1716735575728519200,11.326519287109376,-0.016239166259765625,0.004177164286375046,0.007431436330080032
1716735575738519000,11.33651904296875,-0.018632888793945312,0.0018337182700634003,-0.00698244571685791
1716735575748519200,11.346519287109375,-0.02820873260498047,-0.017345838248729706,-0.002229411154985428
1716735575758519000,11.35651904296875,-0.025815963745117188,-0.010131631046533585,0.007302004843950272
1716735575768519200,11.366519287109375,-0.028209686279296875,0.007041223347187042,0.0022610537707805634
1716735575778519000,11.37651904296875,-0.018632888793945312,0.002294771373271942,-0.0025147683918476105
1716735575788519200,11.386519287109374,-0.018631935119628906,0.0046523697674274445,-0.014578837901353836
1716735575798519000,11.39651904296875,-0.021026611328125,-0.00008504092693328857,0.011708606034517288
1716735575808519200,11.406519287109376,-0.021026611328125,-0.004908334463834763,-0.019390147179365158
1716735575818519000,11.41651904296875,-0.011449813842773438,0.01669081673026085,-0.0026797205209732056
1716735575828519200,11.426519287109375,-0.0018720626831054688,-0.043132781982421875,-0.024272792041301727
1716735575838519000,11.43651904296875,0.18487071990966797,0.019538607448339462,-0.014113593846559525
1716735575848519200,11.446519287109375,-0.042578697204589844,-0.012094918638467789,0.005429022014141083
1716735575858519000,11.45651904296875,-0.035401344299316406,-0.004426915198564529,0.0011323392391204834
1716735575868519200,11.466519287109374,-0.018645286560058594,-0.004006203263998032,0.013566605746746063
1716735575878519000,11.47651904296875,0.005293846130371094,0.006251215934753418,-0.000779859721660614
1716735575888519200,11.486519287109376,0.012475013732910156,-0.005746698006987572,0.004192516207695007
1716735575898519000,11.49651904296875,-0.09765815734863281,0.027875356376171112,0.011396702378988266
1716735575908519200,11.506519287109375,-0.071319580078125,0.010890703648328781,-0.015198282897472382
1716735575918519000,11.51651904296875,0.07233428955078125,-0.001522459089756012,0.020693551748991013
1716735575928519200,11.526519287109375,0.04121208190917969,-0.0017873942852020264,-0.0012256242334842682
1716735575938519000,11.53651904296875,-0.08089160919189453,-0.01856284774839878,-0.0035969577729701996
1716735575948519200,11.546519287109374,-0.0904693603515625,-0.0017091929912567139,-0.013090837746858597
1716735575958519000,11.55651904296875,0.055576324462890625,-0.0065275076776742935,-0.010750941932201385
1716735575968519200,11.566519287109376,0.031632423400878906,0.010509252548217773,0.003943596035242081
1716735575978519000,11.57651904296875,-0.059348106384277344,-0.003949098289012909,0.02313363552093506
1716735575988519200,11.586519287109375,-0.06413650512695312,-0.006134228780865669,-0.0056537725031375885
1716735575998519000,11.59651904296875,0.012477874755859375,0.013013757765293121,-0.015149902552366257
1716735576008519200,11.606519287109375,0.01966094970703125,0.017647724598646164,-0.00793994590640068
1716735576018519000,11.61651904296875,-0.05695343017578125,0.0031961053609848022,-0.005470640957355499
1716735576028519200,11.626519287109375,-0.056954383850097656,-0.001927349716424942,-0.007506571710109711
1716735576038519000,11.63651904296875,0.005295753479003906,-0.0019535087049007416,-0.002753373235464096
1716735576048519200,11.646519287109374,0.02684307098388672,-0.01155984029173851,0.0019804872572422028
1716735576058519000,11.65651904296875,-0.04737663269042969,0.007577762007713318,-0.012361932545900345
1716735576068519200,11.666519287109375,-0.056954383850097656,-0.0019046775996685028,-0.01706746593117714
1716735576078519000,11.67651904296875,0.0005044937133789062,-0.016273830085992813,0.012201335281133652
1716735576088519200,11.686519287109375,0.02683544158935547,-0.027939993888139725,0.010290924459695816
1716735576098519000,11.69651904296875,-0.04020404815673828,-0.015526801347732544,0.02228303626179695
1716735576108519200,11.706519287109375,-0.04978179931640625,-0.024323442950844765,0.024359814822673798
1716735576118519000,11.71651904296875,-0.0066852569580078125,0.01005600020289421,-0.019386284053325653
1716735576128519200,11.726519287109374,0.0076808929443359375,0.01954535022377968,-0.0026711374521255493
1716735576138519000,11.73651904296875,-0.044991493225097656,0.00804208219051361,0.009017884731292725
1716735576148519200,11.746519287109376,-0.03780937194824219,0.017771072685718536,-0.0028804726898670197
1716735576158519000,11.75651904296875,-0.0018939971923828125,0.0053397417068481445,-0.0007233954966068268
1716735576168519200,11.766519287109375,0.017259597778320312,-0.011377563700079918,-0.010287761688232422
1716735576178519000,11.77651904296875,-0.03541374206542969,-0.0017585568130016327,0.001695588231086731
1716735576188519200,11.786519287109375,-0.04020214080810547,0.012642089277505875,-0.02706107869744301
1716735576198519000,11.79651904296875,-0.018655776977539062,0.01723197102546692,-0.009848244488239288
1716735576208519200,11.806519287109374,0.014862060546875,0.00006063282489776611,-0.002293914556503296
