time,seconds_elapsed,z,y,x
1717857795838487300,0.0404873046875,0.0036218990571796894,0.008525843732059002,-0.006701312027871609
1717857795848528400,0.0505283203125,0.004674380179494619,0.009640909731388092,-0.005113002844154835
1717857795858569500,0.060569580078125,0.002956907730549574,0.008640360087156296,-0.005646966863423586
1717857795868609500,0.070609619140625,0.0041121868416666985,0.009342635050415993,-0.005095159634947777
1717857795878650400,0.080650390625,0.0031822111923247576,0.010061688721179962,-0.005747634451836348
1717857795888691500,0.09069140625,0.0027153589762747288,0.008503473363816738,-0.00564030883833766
1717857795898732500,0.100732666015625,0.0015488944482058287,0.009303486905992031,-0.00675297761335969
1717857795908773400,0.1107734375,0.0037579864729195833,0.010514426045119762,-0.005140966270118952
1717857795918813400,0.1208134765625,0.00421471893787384,0.008410262875258923,-0.006850183010101318
1717857795928854500,0.1308544921875,0.0031433289404958487,0.009373261593282223,-0.00598545465618372
1717857795938895400,0.140895263671875,0.0033161682076752186,0.008481102995574474,-0.005560147576034069
1717857795948936400,0.1509365234375,0.0030503845773637295,0.009124788455665112,-0.006514891050755978
1717857795958977500,0.1609775390625,0.004959871061146259,0.009152752347290516,-0.006419816054403782
1717857795969017600,0.171017578125,0.0037081853952258825,0.00965795386582613,-0.005914880894124508
1717857795979058400,0.181058349609375,0.0027425233274698257,0.008548480458557606,-0.006547914352267981
1717857795989099500,0.191099609375,0.004798483569175005,0.007139668334275484,-0.0054754591546952724
1717857795999140600,0.201140625,0.002788063371554017,0.008701612241566181,-0.005864280741661787
1717857796009181400,0.211181396484375,0.003841609926894307,0.008834504522383213,-0.004692223388701677
1717857796019221500,0.221221435546875,0.004496214911341667,0.01008086372166872,-0.006958573590964079
1717857796029262600,0.2312626953125,0.003373159794136882,0.008827846497297287,-0.006460828706622124
1717857796039303400,0.241303466796875,0.004259726032614708,0.008970857597887516,-0.005085306242108345
1717857796049344500,0.251344482421875,0.0038312235847115517,0.008450742810964584,-0.006461361423134804
1717857796059385600,0.261385498046875,0.005378786474466324,0.009065666235983372,-0.005496231839060783
1717857796069425700,0.27142578125,0.003215500619262457,0.008697351440787315,-0.0055004931055009365
1717857796079466500,0.281466552734375,0.00498011102899909,0.008011055178940296,-0.006076534744352102
1717857796089507600,0.291507568359375,0.0036370791494846344,0.00872078724205494,-0.00555269094184041
1717857796099548700,0.301548583984375,0.00421285443007946,0.008256598375737667,-0.006789462640881538
1717857796109589500,0.311589599609375,0.003850398352369666,0.008926649577915668,-0.004877579398453236
1717857796119629300,0.32162939453125,0.003300189273431897,0.009335710667073727,-0.005035238806158304
1717857796129670400,0.33167041015625,0.005020857788622379,0.010093114338815212,-0.005131112411618233
1717857796139711500,0.34171142578125,0.004679706413298845,0.008080297149717808,-0.005253085400909185
1717857796149752300,0.35175244140625,0.004070109222084284,0.007426224648952484,-0.0063210129737854
1717857796159793400,0.36179345703125,0.005110872443765402,0.008392419666051865,-0.005577458068728447
1717857796169833500,0.37183349609375,0.003922570031136274,0.01040656864643097,-0.005817142780870199
1717857796179874300,0.381874267578125,0.005208876915276051,0.009155414998531342,-0.00547386147081852
1717857796189915400,0.391915283203125,0.0035489285364747047,0.00905900914222002,-0.00634977500885725
1717857796199956500,0.40195654296875,0.004572114907205105,0.009602027013897896,-0.0057681407779455185
1717857796209997300,0.411997314453125,0.0033132387325167656,0.008742092177271843,-0.005683451890945435
1717857796220038400,0.422038330078125,0.005477323196828365,0.008734369650483131,-0.006659766659140587
1717857796230078500,0.432078369140625,0.002700445242226124,0.009356750175356865,-0.005489573813974857
1717857796240119600,0.44211962890625,0.0026791400741785765,0.009198824875056744,-0.004649080336093903
1717857796250160400,0.452160400390625,0.003365170443430543,0.007671768311411142,-0.007681088987737894
1717857796260201500,0.462201416015625,0.0027377295773476362,0.009313073940575123,-0.006194512825459242
1717857796270242600,0.47224267578125,0.0041585261933505535,0.008532235398888588,-0.00640729907900095
1717857796280282600,0.48228271484375,0.0041492050513625145,0.00869149249047041,-0.006399309728294611
1717857796290323500,0.492323486328125,0.0051683965139091015,0.0083700492978096,-0.00469462014734745
1717857796300364500,0.502364501953125,0.003257312346249819,0.00836978293955326,-0.006332464516162872
1717857796310405400,0.5124052734375,0.004751878324896097,0.008864065632224083,-0.006015548016875982
1717857796320446500,0.522446533203125,0.0037119139451533556,0.009216401726007462,-0.005452822428196669
1717857796330486500,0.532486572265625,0.005374525208026171,0.007337008602917194,-0.006047239992767572
1717857796340527600,0.542527587890625,0.004232295788824558,0.008468852378427982,-0.0052027516067028046
1717857796350568400,0.552568359375,0.0035236284602433443,0.009885653853416443,-0.007245662156492472
1717857796360609500,0.562609619140625,0.003913781605660915,0.008489091880619526,-0.005629922728985548
1717857796370650600,0.572650634765625,0.002861566608771682,0.007397462613880634,-0.0062858592718839645
1717857796380690700,0.582690673828125,0.002065015025436878,0.0082115912809968,-0.005385976750403643
1717857796390731500,0.5927314453125,0.0031755531672388315,0.00845313910394907,-0.006178533658385277
1717857796400772600,0.602772705078125,0.003323625074699521,0.007665110286325216,-0.006909038871526718
1717857796410813700,0.612813720703125,0.003620833856984973,0.008854744024574757,-0.004731105640530586
1717857796420854500,0.6228544921875,0.0028035095892846584,0.009273126721382141,-0.004819256253540516
1717857796430895600,0.6328955078125,0.0034258903469890356,0.008494418114423752,-0.00564004248008132
1717857796440935400,0.642935302734375,0.005665076430886984,0.009423862211406231,-0.006622482556849718
1717857796450976300,0.652976318359375,0.003576092654839158,0.008625712245702744,-0.005327120888978243
1717857796461017600,0.663017578125,0.003877029987052083,0.01079538930207491,-0.004710332956165075
1717857796471058700,0.67305859375,0.004378769546747208,0.008739429526031017,-0.006690393202006817
1717857796481099500,0.683099609375,0.003226952161639929,0.009270730428397655,-0.00592606607824564
1717857796491139300,0.693139404296875,0.005869340617209673,0.008150071837008,-0.004944690968841314
1717857796501180400,0.703180419921875,0.004363323096185923,0.008889365009963512,-0.006355633959174156
1717857796511221500,0.713221435546875,0.003689010627567768,0.008504272438585758,-0.007002249360084534
1717857796521262300,0.723262451171875,0.0024836640805006027,0.008724781684577465,-0.006431533955037594
1717857796531303400,0.733303466796875,0.005624596029520035,0.009217467159032822,-0.006235791835933924
1717857796541343500,0.743343505859375,0.005089567042887211,0.008159658871591091,-0.0065010422840714455
1717857796551384600,0.753384521484375,0.0038397456519305706,0.009399360977113247,-0.00512791657820344
1717857796561425400,0.76342529296875,0.004252003040164709,0.0096848513931036,-0.00612367270514369
1717857796571466500,0.773466552734375,0.004515655804425478,0.0088776471093297,-0.006126868538558483
1717857796581507300,0.78350732421875,0.004571582190692425,0.008311459794640541,-0.006718090269714594
1717857796591547400,0.79354736328125,0.00253399764187634,0.008815862238407135,-0.004743888974189758
1717857796601588500,0.80358837890625,0.003463441040366888,0.008610532619059086,-0.006475476082414389
1717857796611629600,0.813629638671875,0.005225388333201408,0.008442486636340618,-0.005550027824938297
1717857796621670400,0.82367041015625,0.003313771216198802,0.008294947445392609,-0.005376123357564211
1717857796631711500,0.83371142578125,0.004114584065973759,0.008525311015546322,-0.004947354551404715
1717857796641752600,0.843752685546875,0.0033603766933083534,0.007808920927345753,-0.00621208967640996
1717857796651792600,0.853792724609375,0.002007757080718875,0.009093630127608776,-0.005560680292546749
1717857796661833500,0.86383349609375,0.002984072081744671,0.010353039018809795,-0.006044842768460512
1717857796671874600,0.87387451171875,0.003893541404977441,0.008555404841899872,-0.00574896577745676
1717857796681915600,0.88391552734375,0.0032431974541395903,0.00869415607303381,-0.007312774192541838
1717857796691956500,0.89395654296875,0.003852528752759099,0.008904012851417065,-0.004591023549437523
1717857796701996500,0.90399658203125,0.004048004746437073,0.010423080064356327,-0.0057228668592870235
1717857796712037600,0.91403759765625,0.0034738273825496435,0.008842759765684605,-0.005937783978879452
1717857796722078500,0.924078369140625,0.004710865672677755,0.008717325516045094,-0.00407570181414485
1717857796732119600,0.93411962890625,0.0029403960797935724,0.009396697394549847,-0.005417935084551573
1717857796742160600,0.94416064453125,0.003861317178234458,0.008896555751562119,-0.005000350996851921
1717857796752200700,0.95420068359375,0.003950532991439104,0.009551693685352802,-0.003993143793195486
1717857796762241500,0.964241455078125,0.00321896281093359,0.00836765207350254,-0.005071191117167473
1717857796772282600,0.97428271484375,0.004089283756911755,0.009125587530434132,-0.005887450184673071
1717857796782323700,0.98432373046875,0.004317250568419695,0.008053665049374104,-0.005573996342718601
1717857796792364500,0.994364501953125,0.00458596320822835,0.008993761613965034,-0.0057135457172989845
1717857796802404400,1.004404296875,0.0027332021854817867,0.008303736336529255,-0.006084257736802101
1717857796812445400,1.014445556640625,0.004200071096420288,0.007641674485057592,-0.005961752496659756
1717857796822486500,1.024486572265625,0.004978513345122337,0.00962413102388382,-0.0065567027777433395
1717857796832527400,1.03452734375,0.003151052165776491,0.007443801499903202,-0.005558549892157316
1717857796842568400,1.044568359375,0.0043870252557098866,0.008342884480953217,-0.0057103498838841915
1717857796852609300,1.054609375,0.0028069717809557915,0.00944969430565834,-0.004993427079170942
1717857796862649300,1.0646494140625,0.0065140919759869576,0.008258994668722153,-0.003989148885011673
1717857796872690400,1.0746904296875,0.0019137475173920393,0.008503739722073078,-0.006365487817674875
1717857796882731500,1.0847314453125,0.004559597931802273,0.009467537514865398,-0.004805674310773611
1717857796892772400,1.0947724609375,0.0034519892651587725,0.008775915019214153,-0.005564941558986902
1717857796902813400,1.1048134765625,0.002834135899320245,0.009725331328809261,-0.007075486239045858
1717857796912853500,1.114853515625,0.0035694348625838757,0.008260859176516533,-0.005780923645943403
1717857796922894600,1.12489453125,0.004093278665095568,0.008187090046703815,-0.004311657976359129
1717857796932935400,1.134935302734375,0.002383262850344181,0.009219064377248287,-0.0062272693030536175
1717857796942976500,1.1449765625,0.0034730283077806234,0.008754875510931015,-0.006626211106777191
1717857796953017600,1.155017578125,0.004822984803467989,0.009447298012673855,-0.006237655878067017
1717857796963058400,1.165058349609375,0.002243979601189494,0.007801996544003487,-0.004254133440554142
1717857796973098500,1.175098388671875,0.0060120862908661366,0.012752014212310314,-0.003763312939554453
1717857796983139600,1.1851396484375,0.004332430195063353,0.008623582310974598,-0.0054299188777804375
1717857796993180400,1.195180419921875,0.0034344124142080545,0.011041199788451195,-0.005131112411618233
1717857797003221500,1.205221435546875,0.003939347807317972,0.008873386308550835,-0.006963100749999285
1717857797013262600,1.2152626953125,0.004217382054775953,0.008156729862093925,-0.006102633662521839
1717857797023302700,1.225302734375,0.003489007242023945,0.008505870588123798,-0.005389438942074776
1717857797033343500,1.235343505859375,0.0051593417301774025,0.009701629169285297,-0.0043619913049042225
1717857797043384600,1.245384521484375,0.004786232952028513,0.009135441854596138,-0.004890096373856068
1717857797053425700,1.25542578125,0.003768372815102339,0.00896686315536499,-0.005575860384851694
1717857797063466500,1.265466552734375,0.004450674634426832,0.009164736606180668,-0.006898918654769659
1717857797073506600,1.275506591796875,0.004744953941553831,0.008588960394263268,-0.006593187805265188
1717857797083547600,1.285547607421875,0.004054130055010319,0.009252620860934258,-0.007439540233463049
1717857797093588500,1.29558837890625,0.004428570624440908,0.009066465310752392,-0.006337258033454418
1717857797103629600,1.305629638671875,0.003622964257374406,0.008213454857468605,-0.005309011787176132
1717857797113670700,1.315670654296875,0.004830175079405308,0.00809361319988966,-0.00634870957583189
1717857797123710500,1.32571044921875,0.004600344225764275,0.00824061967432499,-0.004838963504880667
1717857797133751300,1.335751220703125,0.0040946099907159805,0.009400691837072372,-0.005907423794269562
1717857797143792400,1.34579248046875,0.0036828855518251657,0.007562845014035702,-0.006048571318387985
1717857797153833500,1.35583349609375,0.0036647759843617678,0.009786584414541721,-0.005166798830032349
1717857797163874300,1.365874267578125,0.00424161646515131,0.008626511320471764,-0.005505286622792482
1717857797173915400,1.375915283203125,0.0034850125666707754,0.007993211969733238,-0.0062578958459198475
1717857797183955200,1.385955078125,0.004829110112041235,0.008782838471233845,-0.005932191386818886
1717857797193996300,1.395996337890625,0.0023379891645163298,0.008918926119804382,-0.005194229539483786
1717857797204037000,1.406037109375,0.004471713677048683,0.008380435407161713,-0.005289836786687374
1717857797214078200,1.416078125,0.00307621737010777,0.009653426706790924,-0.006089583970606327
1717857797224119300,1.426119384765625,0.004640824627131224,0.009576194919645786,-0.005511411931365728
1717857797234159000,1.4361591796875,0.003606186481192708,0.009674198925495148,-0.005346562247723341
1717857797244200200,1.4462001953125,0.004890895448625088,0.010512562468647957,-0.006980677600950003
1717857797254241300,1.4562412109375,0.002930276095867157,0.009221461601555347,-0.006397445686161518
1717857797264282000,1.4662822265625,0.003540938952937722,0.009051552042365074,-0.005811550188809633
1717857797274323200,1.4763232421875,0.002552906284108758,0.007902131415903568,-0.005635781679302454
1717857797284363300,1.48636328125,0.004245877731591463,0.00842384435236454,-0.005474127363413572
1717857797294404400,1.496404296875,0.00535561703145504,0.010665693320333958,-0.007397728972136974
1717857797304445200,1.506445068359375,0.0026085663121193647,0.008587629534304142,-0.0054272557608783245
1717857797314486300,1.516486328125,0.005575061310082674,0.007757521700114012,-0.0060267336666584015
1717857797324527400,1.52652734375,0.004482898861169815,0.009826797991991043,-0.004211789462715387
1717857797334567400,1.5365673828125,0.0049369679763913155,0.009356217458844185,-0.0063095614314079285
1717857797344608300,1.546608154296875,0.003924966789782047,0.008672850206494331,-0.0054509579204022884
1717857797354649300,1.5566494140625,0.004096208140254021,0.008255532942712307,-0.006538859568536282
1717857797364690200,1.566690185546875,0.004327636677771807,0.010343717411160469,-0.005046157632023096
1717857797374731300,1.576731201171875,0.0022514364682137966,0.008462727069854736,-0.005632319487631321
1717857797384772400,1.5867724609375,0.004705273080617189,0.009682188741862774,-0.004536694847047329
1717857797394812400,1.5968125,0.005315136630088091,0.008490157313644886,-0.006125803105533123
1717857797404853200,1.606853271484375,0.002103630919009447,0.010927748866379261,-0.006136721931397915
1717857797414894300,1.616894287109375,0.0037590519059449434,0.008606803603470325,-0.006898652296513319
1717857797424935400,1.626935302734375,0.00398568669334054,0.008568987250328064,-0.006235791835933924
1717857797434976300,1.636976318359375,0.0049071405082941055,0.008324774913489819,-0.005599029827862978
1717857797445016300,1.647016357421875,0.004653341136872768,0.008889098651707172,-0.007054180838167667
1717857797455057400,1.657057373046875,0.005023254547268152,0.007831824012100697,-0.005687713157385588
1717857797465098500,1.667098388671875,0.004336957819759846,0.009843309409916401,-0.007119162008166313
1717857797475139300,1.677139404296875,0.0025715483352541924,0.009269398637115955,-0.005949768237769604
1717857797485180400,1.687180419921875,0.004303934518247843,0.010951983742415905,-0.007215834688395262
1717857797495220200,1.69722021484375,0.005315402988344431,0.009850500151515007,-0.007521831896156073
1717857797505261000,1.707260986328125,0.006000102031975985,0.009067264385521412,-0.006109291687607765
1717857797515302100,1.71730224609375,0.002766491612419486,0.009097890928387642,-0.00621182331815362
1717857797525343200,1.72734326171875,0.005018194206058979,0.008231298066675663,-0.00437956815585494
1717857797535384000,1.737384033203125,0.003457049373537302,0.00908777117729187,-0.006638461723923683
1717857797545425200,1.747425048828125,0.003634948516264558,0.008672317489981651,-0.006020075641572475
1717857797555465200,1.75746533203125,0.002267681760713458,0.009186574257910252,-0.005783853121101856
1717857797565506300,1.76750634765625,0.002624811604619026,0.008843825198709965,-0.0049308426678180695
1717857797575547100,1.777547119140625,0.004606203176081181,0.009980728849768639,-0.005532717332243919
1717857797585588200,1.787588134765625,0.002412024885416031,0.010717359371483326,-0.006207295693457127
1717857797595629300,1.79762939453125,0.0031092404387891293,0.009366869926452637,-0.006346845533698797
1717857797605669400,1.80766943359375,0.0049500176683068275,0.008168181404471397,-0.005116997752338648
1717857797615710200,1.817710205078125,0.003284742822870612,0.008694954216480255,-0.006189452484250069
1717857797625751300,1.827751220703125,0.004773450084030628,0.009852897375822067,-0.006054962985217571
1717857797635792100,1.837792236328125,0.0023758059833198786,0.008868592791259289,-0.0052024852484464645
1717857797645833200,1.847833251953125,0.001919340225867927,0.010118680074810982,-0.005820604972541332
1717857797655873300,1.857873291015625,0.004107926040887833,0.009357282891869545,-0.0052381716668605804
1717857797665914400,1.867914306640625,0.0034202977549284697,0.008431567810475826,-0.006310360040515661
1717857797675955200,1.877955078125,0.003344397759065032,0.007779093459248543,-0.005844307132065296
1717857797685996300,1.887996337890625,0.004551075864583254,0.008217183873057365,-0.004689027555286884
1717857797696037400,1.898037353515625,0.003907123580574989,0.009614011272788048,-0.005573197267949581
1717857797706078200,1.908078125,0.004656004719436169,0.009257148019969463,-0.0052112736739218235
1717857797716118300,1.9181181640625,0.0037979339249432087,0.009382583200931549,-0.004709267523139715
1717857797726159400,1.928159423828125,0.003941478207707405,0.011040134355425835,-0.004994226153939962
1717857797736200400,1.938200439453125,0.004041080828756094,0.008342618122696877,-0.005679191090166569
1717857797746241300,1.9482412109375,0.004418450407683849,0.00908617302775383,-0.005590774118900299
1717857797756282400,1.958282470703125,0.003962250892072916,0.008206530474126339,-0.005037635564804077
1717857797766322400,1.968322509765625,0.0028722193092107773,0.01118953712284565,-0.005888781975954771
1717857797776363300,1.97836328125,0.0043295007199049,0.00908830389380455,-0.005621133837848902
1717857797786404400,1.988404296875,0.0037433390971273184,0.008757006376981735,-0.00532578956335783
1717857797796445400,1.998445556640625,0.0038930089212954044,0.010871023871004581,-0.006475209724158049
1717857797806486300,2.008486328125,0.004534298088401556,0.009663546457886696,-0.005517803598195314
1717857797816526000,2.018526123046875,0.0043657198548316956,0.009121859446167946,-0.006088785361498594
1717857797826567200,2.028567138671875,0.00475374236702919,0.010723218321800232,-0.005121791269630194
1717857797836608300,2.038608154296875,0.0037609159480780363,0.009740245528519154,-0.004393683280795813
1717857797846649000,2.048649169921875,0.004283960908651352,0.008459264412522316,-0.006132461130619049
1717857797856690200,2.058690185546875,0.004548679105937481,0.009351157583296299,-0.0067902617156505585
1717857797866731300,2.068731201171875,0.003537476761266589,0.009529056958854198,-0.006332730874419212
1717857797876771300,2.078771240234375,0.00412390474230051,0.00836711935698986,-0.005167864263057709
1717857797886812200,2.088812255859375,0.003597131697461009,0.010013218969106674,-0.006197175942361355
1717857797896853200,2.098853271484375,0.004099936690181494,0.009062204509973526,-0.006370014976710081
1717857797906894000,2.10889404296875,0.004852013196796179,0.00935994554311037,-0.005556419026106596
1717857797916935200,2.11893505859375,0.0028959212359040976,0.00860041193664074,-0.0033220271579921246
1717857797926975200,2.128975341796875,0.0024383901618421078,0.009214270859956741,-0.0051534827798604965
1717857797937016300,2.139016357421875,0.003832022426649928,0.010277139022946358,-0.0049462891183793545
1717857797947057200,2.14905712890625,0.004289287142455578,0.008316519670188427,-0.004750546533614397
1717857797957098200,2.15909814453125,0.00490287970751524,0.00987287051975727,-0.007751396391540766
1717857797967139300,2.169139404296875,0.004731638357043266,0.0093317162245512,-0.005314604379236698
1717857797977179400,2.179179443359375,0.004521248396486044,0.00914582796394825,-0.005555354058742523
1717857797987220200,2.18922021484375,0.003227751236408949,0.008836101740598679,-0.004794755019247532
1717857797997261300,2.19926123046875,0.0022927154786884785,0.009640110656619072,-0.004825381562113762
1717857798007302400,2.209302490234375,0.004203266929835081,0.010467554442584515,-0.007165767718106508
1717857798017343200,2.21934326171875,0.0025220136158168316,0.009326656349003315,-0.006409695837646723
1717857798027383300,2.22938330078125,0.0037052559200674295,0.008582568727433681,-0.006130064371973276
1717857798037424400,2.23942431640625,0.003975833300501108,0.00788668543100357,-0.004605670925229788
1717857798047465200,2.24946533203125,0.003644269658252597,0.009565009735524654,-0.005742840468883514
1717857798057506300,2.25950634765625,0.004008590243756771,0.00905474741011858,-0.005176652688533068
1717857798067547400,2.26954736328125,0.003900199430063367,0.00926433876156807,-0.005263205152004957
1717857798077588200,2.279588134765625,0.00421232171356678,0.008301871828734875,-0.005676527973264456
1717857798087628300,2.289628173828125,0.004768123384565115,0.008505337871611118,-0.006215019151568413
1717857798097669400,2.29966943359375,0.0043958136811852455,0.00962546281516552,-0.003225354477763176
1717857798107710500,2.30971044921875,0.004973985720425844,0.01095571182668209,-0.005277053453028202
1717857798117751300,2.319751220703125,0.003995274193584919,0.011450527235865593,-0.003698331769555807
1717857798127792400,2.32979248046875,0.0029798108153045177,0.009561547078192234,-0.0063066319562494755
1717857798137832200,2.339832275390625,0.004175303969532251,0.007834221236407757,-0.008439823985099792
1717857798147873300,2.349873291015625,0.0023696806747466326,0.00845393817871809,-0.007643272168934345
1717857798157914400,2.359914306640625,0.005390504375100136,0.009443036280572414,-0.0065465825609862804
1717857798167955500,2.36995556640625,0.004418184049427509,0.009563411585986614,-0.005857356358319521
1717857798177996500,2.37999658203125,0.005025917664170265,0.009352223016321659,-0.005856291390955448
1717857798188037600,2.39003759765625,0.0028543761000037193,0.0073441993445158005,-0.007531153038144112
1717857798198077700,2.40007763671875,0.003493002150207758,0.008067780174314976,-0.005988916382193565
1717857798208118800,2.410118896484375,0.0028242822736501694,0.009127984754741192,-0.005637379363179207
1717857798218159600,2.42015966796875,0.004602741450071335,0.010972489602863789,-0.005278385244309902
1717857798228200700,2.43020068359375,0.004926315508782864,0.008993228897452354,-0.006581469904631376
1717857798238241800,2.44024169921875,0.00427171029150486,0.007845406420528889,-0.004712196998298168
1717857798248281600,2.450281494140625,0.0054245926439762115,0.009223592467606068,-0.005781456362456083
1717857798258322700,2.46032275390625,0.0019017633749172091,0.009170595556497574,-0.005763879511505365
1717857798268363800,2.47036376953125,0.004208327271044254,0.009398295544087887,-0.006226737052202225
1717857798278404600,2.480404541015625,0.0036312201991677284,0.00884968414902687,-0.005760150961577892
1717857798288445700,2.49044580078125,0.0052136704325675964,0.009012669324874878,-0.007492537144571543
1717857798298485800,2.50048583984375,0.0046269758604466915,0.008255799300968647,-0.006325540132820606
1717857798308526800,2.51052685546875,0.004634965676814318,0.009062737226486206,-0.00512951472774148
1717857798318567700,2.520567626953125,0.004448810592293739,0.009168464690446854,-0.005790244787931442
1717857798328608800,2.53060888671875,0.004491420928388834,0.00845313910394907,-0.004840828012675047
1717857798338649900,2.54064990234375,0.0038104509003460407,0.008388424292206764,-0.006713296286761761
1717857798348689700,2.550689697265625,0.003953995183110237,0.008579639717936516,-0.006274673622101545
1717857798358730500,2.56073046875,0.004086354281753302,0.009425459429621696,-0.004063717555254698
1717857798368771600,2.570771484375,0.0044346959330141544,0.00908590666949749,-0.0054730623960494995
1717857798378812700,2.580812744140625,0.002627208363264799,0.008069644682109356,-0.004869057331234217
1717857798388853500,2.590853515625,0.0037465349305421114,0.00872025452554226,-0.007546066772192717
1717857798398894600,2.60089453125,0.0046791741624474525,0.009720804169774055,-0.00455746753141284
1717857798408934700,2.6109345703125,0.003347327234223485,0.009771670214831829,-0.006096241995692253
1717857798418975500,2.6209755859375,0.0036935380194336176,0.007789480034261942,-0.005658418405801058
1717857798429016600,2.6310166015625,0.004126035608351231,0.009078449569642544,-0.005495699122548103
1717857798439057700,2.6410576171875,0.003216033335775137,0.010517888702452183,-0.005783054046332836
1717857798449098500,2.651098388671875,0.003370763035491109,0.008891762234270573,-0.0065713501535356045
1717857798459138600,2.661138671875,0.003391801845282316,0.007848335430026054,-0.005301821045577526
1717857798469179600,2.6711796875,0.00355904852040112,0.008481902070343494,-0.006672816351056099
1717857798479220700,2.681220703125,0.0037441381718963385,0.009150621481239796,-0.00615243474021554
1717857798489261600,2.691261474609375,0.004216316621750593,0.008468319661915302,-0.005562012083828449
1717857798499302700,2.701302734375,0.003772101365029812,0.008437959477305412,-0.006238188594579697
1717857798509343700,2.71134375,0.0034075146540999413,0.009418003261089325,-0.007411843631416559
1717857798519383600,2.721383544921875,0.004462126176804304,0.0094480961561203,-0.006169478874653578
1717857798529424600,2.731424560546875,0.004461860284209251,0.008757539093494415,-0.007394000422209501
1717857798539465700,2.7414658203125,0.004858671221882105,0.008435828611254692,-0.006661364808678627
1717857798549506600,2.751506591796875,0.00210709311068058,0.00884781964123249,-0.0065681543201208115
1717857798559547600,2.761547607421875,0.0043870252557098866,0.008977515622973442,-0.006366020068526268
1717857798569587700,2.771587646484375,0.0033806166611611843,0.010091782547533512,-0.005483182147145271
1717857798579628800,2.78162890625,0.003997670952230692,0.008803877979516983,-0.005215268116444349
1717857798589669600,2.791669677734375,0.004364122170954943,0.009417204186320305,-0.0070832096971571445
1717857798599710700,2.801710693359375,0.0037180392537266016,0.009558351710438728,-0.005629922728985548
1717857798609751800,2.811751708984375,0.0050099384970963,0.008223574608564377,-0.0062309978529810905
1717857798619792000,2.8217919921875,0.004159591160714626,0.008708802983164787,-0.007267500273883343
1717857798629832700,2.831832763671875,0.0032538501545786858,0.008677910082042217,-0.00427277572453022
1717857798639873800,2.841873779296875,0.0030985879711806774,0.009639577940106392,-0.005606220569461584
1717857798649914600,2.85191455078125,0.0034107104875147343,0.008668855763971806,-0.005822202656418085
1717857798659955700,2.861955810546875,0.0035217641852796078,0.009892578236758709,-0.005622998345643282
1717857798669996800,2.871996826171875,0.004268780816346407,0.008401207625865936,-0.005245628301054239
1717857798680036600,2.88203662109375,0.005875199567526579,0.009665942750871181,-0.005402754992246628
1717857798690077400,2.892077392578125,0.004403803031891584,0.0091130705550313,-0.00481366366147995
1717857798700118500,2.902118408203125,0.0031369375064969063,0.009217733517289162,-0.0075820195488631725
1717857798710159600,2.91215966796875,0.004244545940309763,0.00887791346758604,-0.007305583450943232
1717857798720200400,2.922200439453125,0.0037491980474442244,0.008956477046012878,-0.005647499579936266
1717857798730240500,2.932240478515625,0.004066380672156811,0.009159144014120102,-0.004847219679504633
1717857798740281600,2.942281494140625,0.0037859496660530567,0.008020375855267048,-0.006066680885851383
1717857798750322700,2.95232275390625,0.005517270881682634,0.008737831376492977,-0.005816343706101179
1717857798760363500,2.962363525390625,0.005230714567005634,0.00782703049480915,-0.006037119776010513
1717857798770404600,2.972404541015625,0.003013632958754897,0.009119195863604546,-0.005742041394114494
1717857798780445700,2.98244580078125,0.004537493921816349,0.008140218444168568,-0.005496231839060783
1717857798790485500,2.992485595703125,0.002624811604619026,0.009431052021682262,-0.00564004248008132
1717857798800526600,3.002526611328125,0.0049468218348920345,0.00890960544347763,-0.005608617328107357
1717857798810567700,3.012567626953125,0.00410552928224206,0.009438775479793549,-0.0065170214511454105
1717857798820608500,3.0226083984375,0.00421285443007946,0.009153816848993301,-0.006337524391710758
1717857798830649600,3.032649658203125,0.004066913388669491,0.00896979309618473,-0.0049561429768800735
1717857798840689700,3.042689697265625,0.003581951605156064,0.009887518361210823,-0.005982791539281607
1717857798850730800,3.052730712890625,0.0049462891183793545,0.009021191857755184,-0.0068182251416146755
1717857798860771600,3.062771484375,0.002900448627769947,0.009965282864868641,-0.006864297669380903
1717857798870812700,3.072812744140625,0.0033305492252111435,0.008648348972201347,-0.005164135713130236
1717857798880853800,3.082853759765625,0.002993126632645726,0.009106147103011608,-0.005241101142019033
1717857798890893800,3.092893798828125,0.004464523401111364,0.00893623661249876,-0.0051289820112288
1717857798900934700,3.1029345703125,0.003599794814363122,0.00933011807501316,-0.006852313410490751
1717857798910975700,3.112975830078125,0.0057412427850067616,0.008798551745712757,-0.0054847802966833115
1717857798921016600,3.1230166015625,0.0057558901607990265,0.010146377608180046,-0.005691441707313061
1717857798931057700,3.1330576171875,0.0029374666046351194,0.009643039666116238,-0.005774798337370157
1717857798941098800,3.1430986328125,0.0052086105570197105,0.008079498074948788,-0.005507417023181915
1717857798951138800,3.153138916015625,0.0037087181117385626,0.007383081596344709,-0.0057103498838841915
1717857798961179600,3.1631796875,0.005297826137393713,0.009701362811028957,-0.005093029234558344
1717857798971220700,3.173220703125,0.004573446698486805,0.008786034770309925,-0.0067841364070773125
1717857798981261800,3.18326171875,0.002251702593639493,0.008836900815367699,-0.00615190202370286
1717857798991302700,3.193302734375,0.004598480183631182,0.00902891531586647,-0.005970008205622435
1717857799001342700,3.2033427734375,0.0038253646343946457,0.008538893423974514,-0.005303951445966959
1717857799011383800,3.2133837890625,0.003713778220117092,0.007817443460226059,-0.005620335228741169
1717857799021425000,3.2234248046875,0.004064782522618771,0.008225705474615097,-0.006165218073874712
1717857799031465700,3.2334658203125,0.002814961364492774,0.009399893693625927,-0.007291468791663647
1717857799041506800,3.2435068359375,0.0025837989524006844,0.008852081373333931,-0.004819256253540516
1717857799051547600,3.253547607421875,0.0036064526066184044,0.009458749555051327,-0.0057401773519814014
1717857799061587500,3.26358740234375,0.005475192796438932,0.010296579450368881,-0.005703159607946873
1717857799071628500,3.273628662109375,0.003285275539383292,0.008133560419082642,-0.004232295788824558
1717857799081669600,3.283669677734375,0.003852262394502759,0.008738364093005657,-0.006593720521777868
1717857799091710500,3.29371044921875,0.002846386516466737,0.008490157313644886,-0.007424360606819391
1717857799101751600,3.30375146484375,0.004998486954718828,0.009405752643942833,-0.005275455769151449
1717857799111791600,3.31379150390625,0.0037651772145181894,0.01008086372166872,-0.005595567636191845
1717857799121832700,3.323832763671875,0.0029582392890006304,0.008146077394485474,-0.005275988485664129
1717857799131873500,3.33387353515625,0.0036842171102762222,0.007835552096366882,-0.0057164751924574375
1717857799141914600,3.34391455078125,0.0040943436324596405,0.00851412583142519,-0.005057609174400568
1717857799151955700,3.353955810546875,0.004132160916924477,0.009362609125673771,-0.005642439238727093
1717857799161995800,3.363995849609375,0.002168612089008093,0.01004810631275177,-0.005631254054605961
1717857799172036600,3.37403662109375,0.005562278442084789,0.008267783559858799,-0.005653358530253172
1717857799182077200,3.3840771484375,0.005181446205824614,0.011740279383957386,-0.0029108349699527025
1717857799192118300,3.3941181640625,0.004035487771034241,0.009484581649303436,-0.003641073824837804
1717857799202159000,3.4041591796875,0.003454119898378849,0.01073653344064951,-0.005330316722393036
1717857799212200200,3.4142001953125,0.003787015099078417,0.008976184763014317,-0.00538384635001421
1717857799222240300,3.424240234375,0.004246943164616823,0.0072840116918087006,-0.008300273679196835
1717857799232281000,3.434281005859375,0.0037169738207012415,0.007784686051309109,-0.00649678148329258
1717857799242322200,3.444322265625,0.004341751337051392,0.00866006687283516,-0.0052147358655929565
1717857799252363300,3.45436328125,0.003139067906886339,0.009357549250125885,-0.005812615156173706
1717857799262404000,3.464404052734375,0.0038072550669312477,0.008701612241566181,-0.005678125657141209
1717857799272444200,3.474444091796875,0.00538437906652689,0.008376174606382847,-0.006131129339337349
1717857799282485200,3.4844853515625,0.004560663364827633,0.009500826708972454,-0.005854160524904728
1717857799292526300,3.4945263671875,0.0037230991292744875,0.00939137116074562,-0.005823800805956125
1717857799302567200,3.504567138671875,0.003525492735207081,0.010171943344175816,-0.005103149451315403
1717857799312608300,3.514608154296875,0.004080761689692736,0.008587096817791462,-0.0064954496920108795
1717857799322649300,3.5246494140625,0.002936934120953083,0.008771653287112713,-0.007286142557859421
1717857799332689400,3.534689453125,0.003750795964151621,0.009346896782517433,-0.006406500469893217
1717857799342730200,3.544730224609375,0.002892725635319948,0.00830639898777008,-0.005828860681504011
1717857799352771300,3.554771240234375,0.005456550512462854,0.008827047422528267,-0.005952164996415377
1717857799362812200,3.564812255859375,0.004357730504125357,0.009315737523138523,-0.004899417515844107
1717857799372853200,3.574853271484375,0.004818457178771496,0.008986038155853748,-0.006073605269193649
1717857799382893300,3.584893310546875,0.002889796160161495,0.008567389100790024,-0.006865895353257656
1717857799392934400,3.594934326171875,0.00358781055547297,0.007923436351120472,-0.005988384131342173
1717857799402975200,3.604975341796875,0.0030389330349862576,0.009258746169507504,-0.007282414007931948
1717857799413016300,3.615016357421875,0.00285011506639421,0.008184160105884075,-0.0060112872160971165
1717857799423057400,3.625057373046875,0.004787831101566553,0.008708003908395767,-0.007389206904917955
1717857799433098200,3.63509814453125,0.0031846079509705305,0.009118396788835526,-0.004547880031168461
1717857799443138300,3.64513818359375,0.003510312642902136,0.00908430851995945,-0.005832322873175144
1717857799453179400,3.655179443359375,0.004321245010942221,0.008394017815589905,-0.005705023650079966
1717857799463220500,3.665220458984375,0.004351605195552111,0.008056594990193844,-0.005810218397527933
1717857799473261300,3.67526123046875,0.004214984830468893,0.008078166283667088,-0.005347627215087414
1717857799483302400,3.685302490234375,0.004738828632980585,0.007639011368155479,-0.006091182120144367
1717857799493342500,3.695342529296875,0.003498594742268324,0.00869335699826479,-0.0070283482782542706
1717857799503383300,3.70538330078125,0.0031931300181895494,0.009228652343153954,-0.006661098450422287
1717857799513424400,3.71542431640625,0.0036389431916177273,0.008481369353830814,-0.005813414230942726
1717857799523465500,3.725465576171875,0.0043984767980873585,0.010239055380225182,-0.006299441214650869
1717857799533506300,3.73550634765625,0.0035292210523039103,0.010105364955961704,-0.005087969359010458
1717857799543547400,3.74554736328125,0.003686613868921995,0.008952482603490353,-0.005643504671752453
1717857799553587200,3.755587158203125,0.003870638320222497,0.008080829866230488,-0.006360960192978382
1717857799563628300,3.765628173828125,0.0035577169619500637,0.009063536301255226,-0.0068176924251019955
1717857799573669000,3.775669189453125,0.0037497307639569044,0.008591890335083008,-0.00498144282028079
1717857799583710200,3.785710205078125,0.004686630796641111,0.009090966545045376,-0.006866694428026676
1717857799593751300,3.795751220703125,0.003736947663128376,0.00851625669747591,-0.00526640098541975
1717857799603791400,3.805791259765625,0.003978762775659561,0.009591907262802124,-0.006142847239971161
1717857799613832200,3.815832275390625,0.004427238833159208,0.010105631314218044,-0.006404369603842497
1717857799623873300,3.825873291015625,0.0034818167332559824,0.008342351764440536,-0.004874383565038443
1717857799633914000,3.8359140625,0.0024530377704650164,0.009518936276435852,-0.006812898442149162
1717857799643955200,3.845955078125,0.0036005936563014984,0.009973538108170033,-0.005438707303255796
1717857799653996300,3.855996337890625,0.0028631645254790783,0.01067847665399313,-0.007035006303340197
1717857799664036400,3.866036376953125,0.004516454879194498,0.008463259786367416,-0.005356948357075453
1717857799674077200,3.8760771484375,0.004308994393795729,0.008348210714757442,-0.005773200653493404
1717857799684118300,3.8861181640625,0.004206995479762554,0.008105064742267132,-0.0051681301556527615
1717857799694159400,3.896159423828125,0.0037915424909442663,0.007742607966065407,-0.0038045919500291348
1717857799704200200,3.9062001953125,0.004036286845803261,0.00999431125819683,-0.004667722620069981
1717857799714240300,3.916240234375,0.0035444011446088552,0.00923371221870184,-0.005560147576034069
1717857799724281300,3.92628125,0.0025592977181077003,0.009094694629311562,-0.00654525076970458
1717857799734322400,3.936322509765625,0.004519384354352951,0.009576461277902126,-0.0057162088342010975
1717857799744363300,3.94636328125,0.004322044085711241,0.009707488119602203,-0.005786249879747629
1717857799754404400,3.956404296875,0.003510046284645796,0.009382848627865314,-0.006403304636478424
1717857799764445200,3.966445068359375,0.004043211229145527,0.008901615627110004,-0.005706089083105326
1717857799774485200,3.9764853515625,0.003867708845064044,0.008982310071587563,-0.006128466222435236
1717857799784526300,3.9865263671875,0.0036479979753494263,0.00929176900535822,-0.006089317612349987
1717857799794567400,3.9965673828125,0.0028370653744786978,0.008900816552340984,-0.005930060520768166
1717857799804608300,4.006608154296875,0.004034955520182848,0.008694687858223915,-0.0049063414335250854
1717857799814649300,4.0166494140625,0.003922570031136274,0.008930644020438194,-0.004560130648314953
1717857799824689400,4.026689453125,0.004835767671465874,0.00905394833534956,-0.007125287316739559
1717857799834730500,4.03673046875,0.0033276197500526905,0.008171110413968563,-0.004658667836338282
1717857799844771300,4.046771240234375,0.003876763628795743,0.008889365009963512,-0.0054762582294642925
1717857799854812400,4.0568125,0.00333214714191854,0.010239588096737862,-0.007643804885447025
1717857799864853500,4.066853515625,0.003934820648282766,0.008618255145847797,-0.006330600008368492
1717857799874894300,4.076894287109375,0.003359045134857297,0.009353553876280785,-0.004890362732112408
1717857799884934100,4.08693408203125,0.004608600400388241,0.010907242074608803,-0.006310093682259321
1717857799894975200,4.096975341796875,0.005550294183194637,0.008808405138552189,-0.003972903825342655
1717857799905016000,4.10701611328125,0.00250523560680449,0.009788715280592442,-0.006118878722190857
1717857799915057200,4.11705712890625,0.004058391321450472,0.00887817982584238,-0.0055004931055009365
1717857799925098200,4.12709814453125,0.0038005972746759653,0.008219846524298191,-0.004219246096909046
1717857799935138300,4.13713818359375,0.003631486324593425,0.00875114742666483,-0.005488774739205837
1717857799945179100,4.14717919921875,0.003916178364306688,0.008764197118580341,-0.005141232628375292
1717857799955220200,4.15722021484375,0.00321949552744627,0.00896819494664669,-0.00555322365835309
1717857799965261300,4.16726123046875,0.004480502102524042,0.009935721755027771,-0.005391569808125496
1717857799975302100,4.17730224609375,0.0034000577870756388,0.008006260730326176,-0.004165450111031532
1717857799985342200,4.18734228515625,0.005799299571663141,0.009126652963459492,-0.006399309728294611
1717857799995383300,4.19738330078125,0.004169178660959005,0.009412942454218864,-0.005844040773808956
1717857800005424400,4.20742431640625,0.0036336169578135014,0.008872853592038155,-0.005843774415552616
1717857800015465200,4.21746533203125,0.003930026665329933,0.0076123797334730625,-0.006013417616486549
1717857800025506300,4.22750634765625,0.0028485171496868134,0.00888057705014944,-0.005931925028562546
1717857800035547100,4.237547119140625,0.0037763623986393213,0.010070477612316608,-0.006278402172029018
1717857800045587200,4.247587158203125,0.004035754129290581,0.00914502888917923,-0.00484189298003912
1717857800055628300,4.257628173828125,0.004230431281030178,0.008305334486067295,-0.00632021389901638
1717857800065669400,4.26766943359375,0.0026639599818736315,0.008780175819993019,-0.006164685357362032
1717857800075710200,4.277710205078125,0.004194744862616062,0.009513610042631626,-0.00782436691224575
1717857800085751300,4.287751220703125,0.004497013986110687,0.00869309064000845,-0.006179865449666977
1717857800095791400,4.297791259765625,0.0036850159522145987,0.00968431867659092,-0.005085039883852005
1717857800105832400,4.30783251953125,0.0046967510133981705,0.008280566893517971,-0.006870955694466829
1717857800115873300,4.317873291015625,0.003242398612201214,0.00771704176440835,-0.006325273774564266
1717857800125914400,4.327914306640625,0.0046847667545080185,0.007228884380310774,-0.005193696822971106
1717857800135955500,4.33795556640625,0.0038951393216848373,0.009228652343153954,-0.006686132401227951
1717857800145996300,4.347996337890625,0.003719637170433998,0.00726377172395587,-0.004625644534826279
1717857800156036400,4.358036376953125,0.0023196132387965918,0.00785739067941904,-0.00583738274872303
1717857800166077400,4.368077392578125,0.003486344125121832,0.008434764109551907,-0.005328452680259943
1717857800176118300,4.3781181640625,0.003293531248345971,0.008485097438097,-0.006231796927750111
1717857800186159400,4.388159423828125,0.0046842340379953384,0.008296545594930649,-0.006070409435778856
1717857800196200400,4.398200439453125,0.0030575753189623356,0.008273109793663025,-0.004464789759367704
1717857800206241300,4.4082412109375,0.004323641769587994,0.007727694697678089,-0.003917776048183441
1717857800216281300,4.41828125,0.002817358123138547,0.009225722402334213,-0.006250439211726189
1717857800226322400,4.428322509765625,0.005030178464949131,0.008753543719649315,-0.006110623013228178
1717857800236363500,4.438363525390625,0.003906857222318649,0.009195894934237003,-0.006304234731942415
1717857800246404400,4.448404296875,0.0030567762441933155,0.00971601065248251,-0.005842975340783596
1717857800256445400,4.458445556640625,0.0031441280152648687,0.013042565435171127,-0.003692472819238901
1717857800266485500,4.468485595703125,0.00398728484287858,0.009413741528987885,-0.0046823699958622456
1717857800276526300,4.4785263671875,0.004815794061869383,0.009217200800776482,-0.005839513149112463
1717857800286567400,4.4885673828125,0.003766775131225586,0.008384429849684238,-0.006178533658385277
1717857800296608500,4.4986083984375,0.0062757390551269054,0.0073508573696017265,-0.006914098747074604
1717857800306649300,4.5086494140625,0.003689010627567768,0.008815595880150795,-0.005194495897740126
1717857800316690400,4.5186904296875,0.0040975394658744335,0.0107093695551157,-0.00580728892236948
1717857800326730500,4.52873046875,0.0044080642983317375,0.010102168656885624,-0.004265318624675274
1717857800336771600,4.538771484375,0.0036360137164592743,0.00875274557620287,-0.005766542628407478
1717857800346812400,4.5488125,0.004815794061869383,0.007334345486015081,-0.006461894139647484
1717857800356853500,4.558853515625,0.003841609926894307,0.009807889349758625,-0.006444850005209446
1717857800366894600,4.56889453125,0.004580104257911444,0.01050483901053667,-0.006585198454558849
1717857800376934400,4.578934326171875,0.00424135010689497,0.009711483493447304,-0.005370264407247305
1717857800386975200,4.588975341796875,0.004066647030413151,0.007613444700837135,-0.00589757040143013
1717857800397016600,4.5990166015625,0.003867442486807704,0.008225439116358757,-0.005653624422848225
1717857800407057400,4.609057373046875,0.0036131106317043304,0.008328237570822239,-0.006599579472094774
1717857800417098500,4.619098388671875,0.0033182986080646515,0.009532518684864044,-0.005062136333435774
1717857800427139600,4.6291396484375,0.002891660202294588,0.009701895527541637,-0.004315652418881655
1717857800437179400,4.639179443359375,0.0032772859558463097,0.008859537541866302,-0.007706922013312578
1717857800447220200,4.64922021484375,0.006410228554159403,0.008741027675569057,-0.006295979022979736
1717857800457261300,4.65926123046875,0.004792091902345419,0.009821471758186817,-0.004885036498308182
1717857800467302400,4.669302490234375,0.0054360441863536835,0.008979912847280502,-0.00538464542478323
1717857800477343200,4.67934326171875,0.0033750240691006184,0.007933557033538818,-0.007645935285836458
1717857800487383300,4.68938330078125,0.0036341496743261814,0.0095671396702528,-0.004667456261813641
1717857800497424400,4.69942431640625,0.004299407359212637,0.0079173119738698,-0.00472391489893198
1717857800507465500,4.709465576171875,0.004766259342432022,0.009047291241586208,-0.005951632279902697
1717857800517506300,4.71950634765625,0.0035574506036937237,0.008895756676793098,-0.006463225465267897
1717857800527547400,4.72954736328125,0.004780640359967947,0.008867260999977589,-0.006162288598716259
1717857800537588500,4.73958837890625,0.003771568648517132,0.009209477342665195,-0.005172657780349255
1717857800547628300,4.749628173828125,0.003817641409114003,0.00881985668092966,-0.005987851414829493
1717857800557669400,4.75966943359375,0.00392816262319684,0.009188172407448292,-0.005498628597706556
1717857800567710500,4.76971044921875,0.0024319987278431654,0.008892294950783253,-0.005584648810327053
1717857800577751300,4.779751220703125,0.0036554548423737288,0.010015349835157394,-0.006068279035389423
1717857800587792400,4.78979248046875,0.004236023873090744,0.007896006107330322,-0.005500758998095989
1717857800597832400,4.79983251953125,0.0037558560725301504,0.008068312890827656,-0.005322327371686697
1717857800607873500,4.80987353515625,0.0033960631117224693,0.0088803106918931,-0.005065598525106907
1717857800617914400,4.819914306640625,0.0036389431916177273,0.007227553054690361,-0.006359362509101629
1717857800627955500,4.82995556640625,0.004809668753296137,0.008817194029688835,-0.005558549892157316
1717857800637996500,4.83999658203125,0.0057343184016644955,0.00899455975741148,-0.005210474599152803
1717857800648037400,4.850037353515625,0.0034147051628679037,0.008379369974136353,-0.004799016285687685
1717857800658077400,4.860077392578125,0.0035835495218634605,0.009526127018034458,-0.0051446943543851376
1717857800668118500,4.870118408203125,0.004486893769353628,0.009315471164882183,-0.003832555143162608
1717857800678159400,4.880159423828125,0.003922570031136274,0.009629989974200726,-0.005877064075320959
1717857800688200400,4.890200439453125,0.00624111806973815,0.00962812639772892,-0.0049164616502821445
1717857800698241500,4.900241455078125,0.0038088529836386442,0.008110124617815018,-0.004589159041643143
1717857800708281600,4.910281494140625,0.0028367992490530014,0.008851815015077591,-0.004565989598631859
1717857800718322400,4.920322509765625,0.005107410252094269,0.010142914950847626,-0.005789978429675102
1717857800728363500,4.930363525390625,0.004447212442755699,0.009808954782783985,-0.005934055428951979
1717857800738404600,4.940404541015625,0.004225637763738632,0.009736516512930393,-0.005330316722393036
1717857800748445400,4.950445556640625,0.0032631712965667248,0.008959406055510044,-0.0065409899689257145
1717857800758486500,4.960486572265625,0.003967044875025749,0.00908404216170311,-0.0059662796556949615
1717857800768526300,4.9705263671875,0.003141731023788452,0.00857085082679987,-0.006331132724881172
1717857800778567400,4.9805673828125,0.0032557144295424223,0.008947954513132572,-0.005893575493246317
1717857800788608300,4.990608154296875,0.004917793441563845,0.008373777382075787,-0.005691175349056721
1717857800798649300,5.0006494140625,0.004953479394316673,0.008221178315579891,-0.00788322277367115
1717857800808690400,5.0106904296875,0.003073287894949317,0.008949286304414272,-0.004996622912585735
1717857800818730200,5.020730224609375,0.003546531544998288,0.00926460511982441,-0.00443869037553668
1717857800828771300,5.030771240234375,0.005231247283518314,0.00908723846077919,-0.00771730812266469
1717857800838812400,5.0408125,0.003665574826300144,0.009111473336815834,-0.006489857099950314
1717857800848853200,5.050853271484375,0.005086371209472418,0.00774820102378726,-0.006409962195903063
1717857800858894300,5.060894287109375,0.003506850451231003,0.008324242196977139,-0.0052293832413852215
1717857800868935400,5.070935302734375,0.003980360459536314,0.008125836960971355,-0.005802495405077934
1717857800878975500,5.0809755859375,0.004070907831192017,0.008235558867454529,-0.006095709279179573
1717857800889016300,5.091016357421875,0.004351605195552111,0.009352223016321659,-0.005849899724125862
1717857800899057400,5.101057373046875,0.0038693067617714405,0.008732505142688751,-0.005572664551436901
1717857800909098500,5.111098388671875,0.0030008498579263687,0.010282997973263264,-0.005683984607458115
1717857800919139300,5.121139404296875,0.004979312419891357,0.006982009392231703,-0.006630471907556057
1717857800929179400,5.131179443359375,0.005351355765014887,0.00868962798267603,-0.006078931502997875
1717857800939220500,5.141220458984375,0.005595567636191845,0.008919725194573402,-0.006822219584137201
1717857800949261300,5.15126123046875,0.005308212712407112,0.00993172638118267,-0.005607285536825657
1717857800959302400,5.161302490234375,0.0040884846821427345,0.008311459794640541,-0.004683434963226318
1717857800969343500,5.171343505859375,0.0043990095146000385,0.008580438792705536,-0.006250705569982529
1717857800979384300,5.18138427734375,0.0032080437522381544,0.008382831700146198,-0.006975351367145777
1717857800989424400,5.19142431640625,0.0021640846971422434,0.00914369709789753,-0.005585714243352413
1717857800999465500,5.201465576171875,0.003802727675065398,0.009357016533613205,-0.006013151258230209
1717857801009506600,5.211506591796875,0.004024302586913109,0.008896023035049438,-0.005960953421890736
1717857801019547400,5.22154736328125,0.005282646510750055,0.00965608935803175,-0.004450408276170492
1717857801029588500,5.23158837890625,0.004139351192861795,0.009526926092803478,-0.006086121778935194
1717857801039629600,5.241629638671875,0.003683950752019882,0.008854211308062077,-0.005141232628375292
1717857801049669600,5.251669677734375,0.004844556096941233,0.009672600775957108,-0.006280798930674791
1717857801059710500,5.26171044921875,0.0030192257836461067,0.009731989353895187,-0.006661631166934967
1717857801069751600,5.27175146484375,0.004772917367517948,0.00947792362421751,-0.004953479394316673
1717857801079792400,5.28179248046875,0.004092213232070208,0.009067530743777752,-0.005338572897017002
1717857801089833500,5.29183349609375,0.0038282941095530987,0.00811971165239811,-0.00749040674418211
1717857801099873300,5.301873291015625,0.0041068606078624725,0.01004970446228981,-0.004747883416712284
1717857801109914400,5.311914306640625,0.004248274490237236,0.0087807085365057,-0.004260791465640068
1717857801119955200,5.321955078125,0.004565190523862839,0.008270712569355965,-0.005381982307881117
1717857801129996300,5.331996337890625,0.00407623453065753,0.007936752401292324,-0.006124471314251423
1717857801140037400,5.342037353515625,0.005081577692180872,0.009665942750871181,-0.006234460044652224
1717857801150078200,5.352078125,0.004496481269598007,0.010204434394836426,-0.006746852304786444
1717857801160118300,5.3621181640625,0.004462126176804304,0.00833675917237997,-0.004884503781795502
1717857801170159400,5.372159423828125,0.0031502533238381147,0.008481102995574474,-0.005507417023181915
1717857801180200700,5.38220068359375,0.003451723139733076,0.010086989030241966,-0.0054664043709635735
1717857801190241800,5.39224169921875,0.0036578518338501453,0.007863249629735947,-0.006655505858361721
1717857801200283000,5.402282958984375,0.003072755178436637,0.010004963725805283,-0.005335643421858549
1717857801210323000,5.412322998046875,0.004531901329755783,0.009365804493427277,-0.006461361423134804
1717857801220363800,5.42236376953125,0.002811232814565301,0.00948191899806261,-0.005486377980560064
1717857801230404900,5.43240478515625,0.004548412747681141,0.009730391204357147,-0.00600383011624217
1717857801240446000,5.442446044921875,0.005717806983739138,0.008856075815856457,-0.005621400196105242
1717857801250486800,5.45248681640625,0.003866909770295024,0.009329586289823055,-0.005823534447699785
1717857801260527900,5.46252783203125,0.0026019082870334387,0.008616657927632332,-0.006168679799884558
1717857801270568000,5.47256787109375,0.0029800771735608578,0.009966613724827766,-0.0059907808899879456
1717857801280608800,5.48260888671875,0.0034882084000855684,0.007641408126801252,-0.004491687286645174
1717857801290649900,5.49264990234375,0.004388889297842979,0.009239038452506065,-0.005113801918923855
1717857801300691000,5.50269091796875,0.005185707006603479,0.010075271129608154,-0.002778209513053298
1717857801310731800,5.512731689453125,0.00418355967849493,0.009965548291802406,-0.00282002124004066
1717857801320771600,5.522771484375,0.004270112607628107,0.00842943787574768,-0.007492537144571543
1717857801330812700,5.532812744140625,0.004282629117369652,0.009191634133458138,-0.005664810072630644
1717857801340853800,5.542853759765625,0.003594468580558896,0.008912800811231136,-0.005618737079203129
1717857801350894600,5.55289453125,0.004837632179260254,0.00923184771090746,-0.007580687757581472
1717857801360935700,5.562935791015625,0.004317782819271088,0.007613977417349815,-0.006982275750488043
1717857801370976800,5.572976806640625,0.004581702407449484,0.00860334187746048,-0.007600928191095591
1717857801381016800,5.583016845703125,0.004555070772767067,0.008402805775403976,-0.006013950332999229
1717857801391057700,5.5930576171875,0.003297259798273444,0.008478705771267414,-0.005596899427473545
1717857801401098800,5.6030986328125,0.003643736941739917,0.007255516014993191,-0.0044115264900028706
1717857801411139800,5.613139892578125,0.003516437951475382,0.008953547105193138,-0.006856308318674564
1717857801421180700,5.6231806640625,0.0052413675002753735,0.00953837763518095,-0.005526325665414333
1717857801431220700,5.633220703125,0.004577973857522011,0.009875001385807991,-0.005516738165169954
1717857801441261800,5.64326171875,0.003635481232777238,0.008503739722073078,-0.004604605492204428
1717857801451302700,5.653302734375,0.0027358653023838997,0.009335445240139961,-0.006454969756305218
1717857801461343700,5.66334375,0.0046357642859220505,0.009482983499765396,-0.00532499048858881
1717857801471384800,5.673384765625,0.003964914008975029,0.00869388971477747,-0.006666957400739193
1717857801481425700,5.68342578125,0.0030306773260235786,0.009296562522649765,-0.005372128449380398
1717857801491465700,5.6934658203125,0.003120425855740905,0.008219846524298191,-0.006440322380512953
1717857801501506800,5.7035068359375,0.003930825740098953,0.009400691837072372,-0.006687996443361044
1717857801511548000,5.7135478515625,0.004147074185311794,0.007860586047172546,-0.0060296631418168545
1717857801521588700,5.723588623046875,0.004061320796608925,0.010016947984695435,-0.0043534692376852036
1717857801531629800,5.7336298828125,0.003870371961966157,0.009673399850726128,-0.005368666257709265
1717857801541671000,5.7436708984375,0.0035444011446088552,0.008665659464895725,-0.00567066902294755
1717857801551710700,5.753710693359375,0.0037638454232364893,0.009178318083286285,-0.006365221459418535
1717857801561751800,5.763751708984375,0.0024519723374396563,0.010084591805934906,-0.005662412848323584
1717857801571793000,5.77379296875,0.004452006425708532,0.00908537395298481,-0.004352137912064791
1717857801581833700,5.783833740234375,0.0038061898667365313,0.010200705379247665,-0.00555135915055871
1717857801591874800,5.793874755859375,0.0031465247739106417,0.008933307603001595,-0.006209160201251507
1717857801601915000,5.803914794921875,0.002938798163086176,0.008407865650951862,-0.005179848056286573
1717857801611956000,5.8139560546875,0.003043726785108447,0.009442237205803394,-0.006207295693457127
1717857801621996800,5.823996826171875,0.00449861166998744,0.008801747113466263,-0.004192348103970289
1717857801632038000,5.834037841796875,0.004825381562113762,0.010251838713884354,-0.005682120565325022
1717857801642079000,5.844078857421875,0.0025683525018393993,0.0070672305300831795,-0.0067785438150167465
1717857801652119800,5.854119873046875,0.003949468024075031,0.009429986588656902,-0.005822735372930765
1717857801662159600,5.86415966796875,0.005179315805435181,0.007953530177474022,-0.005750563926994801
1717857801672200700,5.87420068359375,0.004290618933737278,0.008498413488268852,-0.006563893053680658
1717857801682241800,5.88424169921875,0.0034083134960383177,0.01034611463546753,-0.004841094370931387
1717857801692282600,5.89428271484375,0.004560397006571293,0.00908723846077919,-0.004862665664404631
1717857801702323700,5.90432373046875,0.003841343568637967,0.010112821124494076,-0.006229932885617018
1717857801712363800,5.91436376953125,0.004057858604937792,0.008255266584455967,-0.005952964071184397
1717857801722404600,5.924404541015625,0.004221376497298479,0.008532235398888588,-0.004251736681908369
1717857801732445700,5.93444580078125,0.0024980450980365276,0.009695237502455711,-0.006205698009580374
1717857801742486800,5.94448681640625,0.0040975394658744335,0.01028885692358017,-0.007141532842069864
1717857801752527600,5.954527587890625,0.0031244205310940742,0.009192965924739838,-0.006125803105533123
1717857801762568700,5.964568603515625,0.004376372788101435,0.009122658520936966,-0.004924451000988483
1717857801772608800,5.97460888671875,0.003905525663867593,0.00977300200611353,-0.005637645721435547
1717857801782649900,5.98464990234375,0.0037028591614216566,0.007986021228134632,-0.005518602207303047
1717857801792690700,5.994690673828125,0.0029846045654267073,0.009167132899165154,-0.00529569573700428
1717857801802731800,6.004731689453125,0.004316451493650675,0.009789513424038887,-0.0043321643024683
1717857801812772900,6.01477294921875,0.0032751555554568768,0.008902681060135365,-0.0056829191744327545
1717857801822812700,6.024812744140625,0.0054552191868424416,0.009073123335838318,-0.0059990365989506245
1717857801832853800,6.034853759765625,0.0031095067970454693,0.008944492787122726,-0.006338323466479778
1717857801842894800,6.044894775390625,0.005446164403110743,0.0086629968136549,-0.005281314719468355
1717857801852935700,6.054935791015625,0.004821120295673609,0.008678975515067577,-0.007527424953877926
1717857801862976800,6.064976806640625,0.004947620443999767,0.01101323589682579,-0.005164135713130236
1717857801873017900,6.075017822265625,0.0030024477746337652,0.009808422066271305,-0.004850415047258139
1717857801883058000,6.085057861328125,0.004788097459822893,0.009587380103766918,-0.005673598498106003
1717857801893098800,6.0950986328125,0.003942543640732765,0.007986553944647312,-0.004535097163170576
1717857801903139800,6.105139892578125,0.004122573416680098,0.00942173134535551,-0.005389705300331116
1717857801913181000,6.115180908203125,0.002660231664776802,0.00845713447779417,-0.006508233025670052
1717857801923221800,6.1252216796875,0.004728975240141153,0.008979113772511482,-0.006105563137680292
1717857801933261800,6.13526171875,0.0033910030033439398,0.00947845634073019,-0.004988633096218109
1717857801943303000,6.145302978515625,0.004473578184843063,0.008386294357478619,-0.00498197553679347
1717857801953343700,6.15534375,0.004235757514834404,0.009590841829776764,-0.005630721338093281
1717857801963384800,6.165384765625,0.0022114890161901712,0.008569253608584404,-0.004674113821238279
1717857801973426000,6.175426025390625,0.0038895467296242714,0.009531719610095024,-0.005827528890222311
1717857801983466800,6.185466796875,0.004298075567930937,0.009770072996616364,-0.0051934304647147655
1717857801993506600,6.195506591796875,0.0038181741256266832,0.009525860659778118,-0.0062821307219564915
1717857802003547600,6.205547607421875,0.004493818152695894,0.009641974233090878,-0.007305583450943232
1717857802013588700,6.215588623046875,0.0030011162161827087,0.00945102609694004,-0.005696501582860947
1717857802023629600,6.225629638671875,0.0034815503749996424,0.009861685335636139,-0.005678125657141209
1717857802033670700,6.235670654296875,0.0027478495612740517,0.009097358211874962,-0.006872553378343582
1717857802043710700,6.245710693359375,0.0030663637444376945,0.008447014726698399,-0.0038743666373193264
1717857802053751800,6.255751708984375,0.004206462763249874,0.00863503385335207,-0.006323409732431173
1717857802063792600,6.265792724609375,0.004818190820515156,0.00893863383680582,-0.005935919936746359
1717857802073833700,6.275833740234375,0.003882622579112649,0.008439024910330772,-0.005372661165893078
1717857802083874800,6.285874755859375,0.002983805723488331,0.009313073940575123,-0.0059899818152189255
1717857802093915600,6.29591552734375,0.004358263220638037,0.008130364120006561,-0.007000385317951441
1717857802103955700,6.305955810546875,0.0036309538409113884,0.007634217385202646,-0.005868807900696993
1717857802113996800,6.315996826171875,0.0029377329628914595,0.009154615923762321,-0.006638461723923683
1717857802124037600,6.32603759765625,0.004461061209440231,0.00887738075107336,-0.005854693241417408
1717857802134078700,6.33607861328125,0.00570049649104476,0.00987127237021923,-0.0059625511057674885
1717857802144119800,6.346119873046875,0.004543086513876915,0.008931176736950874,-0.005425658077001572
1717857802154159900,6.356159912109375,0.003915912006050348,0.009219064377248287,-0.003722566645592451
1717857802164200700,6.36620068359375,0.0033337450586259365,0.008464058861136436,-0.007059241179376841
1717857802174241800,6.37624169921875,0.0035297537688165903,0.00896499864757061,-0.005845372099429369
1717857802184282600,6.38628271484375,0.003300189273431897,0.009936786256730556,-0.006552175153046846
1717857802194323500,6.396323486328125,0.004008590243756771,0.009900035336613655,-0.005262140184640884
1717857802204364500,6.406364501953125,0.0038866172544658184,0.009336509741842747,-0.00561101408675313
1717857802214404600,6.416404541015625,0.003850131994113326,0.008558068424463272,-0.0070581757463514805
1717857802224445700,6.42644580078125,0.0028511802665889263,0.008651278913021088,-0.005619003437459469
1717857802234486500,6.436486572265625,0.0022945795208215714,0.008287491276860237,-0.004751611966639757
1717857802244527600,6.446527587890625,0.003641073824837804,0.009937052614986897,-0.005281048361212015
1717857802254568700,6.456568603515625,0.0038986015133559704,0.009958624839782715,-0.006797452457249165
1717857802264609500,6.466609619140625,0.0033803503029048443,0.009573264978826046,-0.004096208140254021
1717857802274649300,6.4766494140625,0.004796086810529232,0.008311726152896881,-0.006844057701528072
1717857802284690400,6.4866904296875,0.0046509443782269955,0.009790312498807907,-0.006909305229783058
1717857802294731300,6.496731201171875,0.003641073824837804,0.010791927576065063,-0.006057093385607004
1717857802304772400,6.5067724609375,0.0051833102479577065,0.009106678888201714,-0.004924184642732143
1717857802314813400,6.5168134765625,0.0052027516067028046,0.010014550760388374,-0.008640093728899956
1717857802324853500,6.526853515625,0.0037444045301526785,0.009553557261824608,-0.007897870615124702
1717857802334894300,6.536894287109375,0.004013383761048317,0.009072856977581978,-0.005428321193903685
1717857802344935400,6.546935302734375,0.004177168011665344,0.00882038939744234,-0.005674929823726416
1717857802354976500,6.5569765625,0.004799016285687685,0.009461944922804832,-0.007360977120697498
1717857802365017300,6.567017333984375,0.00461579067632556,0.00842730700969696,-0.005048554390668869
1717857802375058400,6.577058349609375,0.002557966159656644,0.009402023628354073,-0.006834736559540033
1717857802385098500,6.587098388671875,0.0034972631838172674,0.005666940473020077,-0.004766792058944702
1717857802395139300,6.597139404296875,0.0032767534721642733,0.010625746101140976,-0.0034911378752440214
1717857802405180400,6.607180419921875,0.0038597192615270615,0.009620136581361294,-0.004479703027755022
1717857802415221500,6.617221435546875,0.0032325449865311384,0.009640643373131752,-0.007808121852576733
1717857802425262300,6.627262451171875,0.0031100395135581493,0.008212123066186905,-0.00848589651286602
1717857802435302400,6.637302490234375,0.00449914438650012,0.007888815365731716,-0.00595642626285553
1717857802445343500,6.647343505859375,0.004892759490758181,0.00968831405043602,-0.005294098053127527
1717857802455384600,6.657384521484375,0.003457315731793642,0.009458483196794987,-0.00560968229547143
1717857802465425400,6.66742529296875,0.004827511962503195,0.008378304541110992,-0.006839796435087919
1717857802475466500,6.677466552734375,0.0026373283471912146,0.008625445887446404,-0.007462976034730673
1717857802485507600,6.687507568359375,0.0032115059439092875,0.008655273355543613,-0.007237140089273453
1717857802495547600,6.697547607421875,0.003563842037692666,0.0103154880926013,-0.005072789266705513
1717857802505588500,6.70758837890625,0.004990231245756149,0.010090983472764492,-0.0049132658168673515
1717857802515629600,6.717629638671875,0.004291417542845011,0.009402289986610413,-0.005024319514632225
1717857802525670700,6.727670654296875,0.003724164329469204,0.008875250816345215,-0.006219279952347279
1717857802535711500,6.73771142578125,0.0035305526107549667,0.008345015347003937,-0.006839796435087919
1717857802545751600,6.74775146484375,0.0031316110398620367,0.008332764729857445,-0.005970008205622435
1717857802555792600,6.757792724609375,0.0031254857312887907,0.008816128596663475,-0.00500967213883996
1717857802565833500,6.76783349609375,0.0039265644736588,0.009808954782783985,-0.005636580288410187
1717857802575874600,6.77787451171875,0.004938565660268068,0.008614793419837952,-0.007210242096334696
1717857802585915600,6.78791552734375,0.004084756597876549,0.010836668312549591,-0.0063031697645783424
1717857802595956500,6.79795654296875,0.003436809405684471,0.008376440964639187,-0.004424575716257095
1717857802605996500,6.80799658203125,0.005544701125472784,0.00947765726596117,-0.006156163290143013
1717857802616037600,6.81803759765625,0.0035547874867916107,0.009441970847547054,-0.006068279035389423
1717857802626078700,6.82807861328125,0.00418276060372591,0.008256598375737667,-0.005402754992246628
1717857802636119600,6.83811962890625,0.005323659162968397,0.008340488187968731,-0.006562827620655298
1717857802646160600,6.84816064453125,0.00544403400272131,0.008917062543332577,-0.005043760873377323
1717857802656200400,6.858200439453125,0.0034029872622340918,0.01010696217417717,-0.006293049547821283
1717857802666241300,6.8682412109375,0.0028099012561142445,0.008774849586188793,-0.005834985990077257
1717857802676282400,6.878282470703125,0.005652559455484152,0.008651811629533768,-0.00666269613429904
1717857802686323500,6.888323486328125,0.0036309538409113884,0.008934373036026955,-0.005256281234323978
1717857802696364300,6.8983642578125,0.0038780951872467995,0.007918110117316246,-0.007406517397612333
1717857802706405400,6.9084052734375,0.0033241575583815575,0.009428922086954117,-0.0054877097718417645
1717857802716445400,6.918445556640625,0.003958788700401783,0.00887924525886774,-0.005629390012472868
1717857802726486500,6.928486572265625,0.004189684987068176,0.009425193071365356,-0.005066397599875927
1717857802736527400,6.93852734375,0.004280232358723879,0.00980416126549244,-0.006283462047576904
1717857802746568400,6.948568359375,0.0026346652302891016,0.00959803257137537,-0.005228584166616201
1717857802756609500,6.958609619140625,0.003418167121708393,0.009284844622015953,-0.0068360683508217335
1717857802766649600,6.968649658203125,0.0033044503070414066,0.009267267771065235,-0.005930593237280846
1717857802776690400,6.9786904296875,0.003406981937587261,0.00999404489994049,-0.005918076727539301
1717857802786731500,6.9887314453125,0.003471164032816887,0.009222793392837048,-0.004479969386011362
1717857802796772600,6.998772705078125,0.003179814200848341,0.007735950406640768,-0.0040948763489723206
1717857802806813400,7.0088134765625,0.00333134806714952,0.007835020311176777,-0.005238970275968313
1717857802816854500,7.0188544921875,0.0043742419220507145,0.010553840547800064,-0.006338057108223438
1717857802826894600,7.02889453125,0.004008590243756771,0.008888034150004387,-0.004011253360658884
1717857802836935400,7.038935302734375,0.0044011399149894714,0.007754059974104166,-0.004811000544577837
1717857802846976500,7.0489765625,0.002965163439512253,0.009748767130076885,-0.006201436743140221
1717857802857017600,7.059017578125,0.002351038623601198,0.007414506748318672,-0.007178284227848053
1717857802867058400,7.069058349609375,0.004622715059667826,0.008155398070812225,-0.006073072552680969
1717857802877098500,7.079098388671875,0.004229366313666105,0.008866728283464909,-0.005791842471808195
1717857802887139600,7.0891396484375,0.0054853130131959915,0.008315187878906727,-0.003721501212567091
1717857802897180700,7.0991806640625,0.0041281660087406635,0.008992163464426994,-0.005417136009782553
1717857802907221500,7.109221435546875,0.0027409254107624292,0.008042746223509312,-0.005741509143263102
1717857802917262600,7.1192626953125,0.0034674357157200575,0.008231564424932003,-0.005918608978390694
1717857802927303700,7.1293037109375,0.003400324145331979,0.008844357915222645,-0.006444850005209446
1717857802937343500,7.139343505859375,0.0036429380998015404,0.010395382530987263,-0.006648315116763115
1717857802947384600,7.149384521484375,0.004257329273968935,0.00917219277471304,-0.006794256623834372
1717857802957425700,7.15942578125,0.003975566942244768,0.009312807582318783,-0.0049795787781476974
1717857802967466500,7.169466552734375,0.003931358456611633,0.009266202338039875,-0.00481259822845459
1717857802977507600,7.179507568359375,0.004364388529211283,0.009207346476614475,-0.00561101408675313
1717857802987548700,7.189548583984375,0.003463707398623228,0.008859803900122643,-0.0052235242910683155
1717857802997588500,7.19958837890625,0.004206196404993534,0.008797486312687397,-0.006103432737290859
1717857803007629300,7.20962939453125,0.003209641668945551,0.00759853096678853,-0.005532450973987579
1717857803017670400,7.21967041015625,0.005616340320557356,0.009030246175825596,-0.0046304380521178246
1717857803027711500,7.22971142578125,0.004022172186523676,0.008793225511908531,-0.006139118690043688
1717857803037752300,7.23975244140625,0.005821936298161745,0.008332498371601105,-0.005904494319111109
1717857803047792400,7.24979248046875,0.004834169987589121,0.009312009438872337,-0.005380650516599417
1717857803057833500,7.25983349609375,0.004732703324407339,0.008279767818748951,-0.006205964367836714
1717857803067874300,7.269874267578125,0.003373426152393222,0.007992945611476898,-0.006111688446253538
1717857803077915400,7.279915283203125,0.004020041786134243,0.009257148019969463,-0.005535912699997425
1717857803087956500,7.28995654296875,0.003626959165558219,0.009072856977581978,-0.006274141371250153
1717857803097997300,7.299997314453125,0.004640558268874884,0.007865912280976772,-0.006731139495968819
1717857803108037400,7.310037353515625,0.004254399798810482,0.01005236804485321,-0.006786000914871693
1717857803118078500,7.320078369140625,0.004523645620793104,0.008255000226199627,-0.006223541218787432
1717857803128119600,7.33011962890625,0.004544950556010008,0.010122142732143402,-0.006315952632576227
1717857803138160400,7.340160400390625,0.004399542231112719,0.008951683528721333,-0.004917527083307505
1717857803148201500,7.350201416015625,0.004479969386011362,0.00959883164614439,-0.00669358903542161
1717857803158241500,7.360241455078125,0.001484712352976203,0.009837716817855835,-0.005873069167137146
1717857803168282600,7.37028271484375,0.005231513641774654,0.009424393996596336,-0.005082909017801285
1717857803178323700,7.38032373046875,0.003621100215241313,0.009752229787409306,-0.0049737198278307915
1717857803188364800,7.39036474609375,0.004782504867762327,0.009497897699475288,-0.0065045044757425785
1717857803198405600,7.400405517578125,0.0038575888611376286,0.00884755328297615,-0.005119394510984421
1717857803208445700,7.41044580078125,0.0034751589410007,0.008206264115869999,-0.004862132947891951
1717857803218486800,7.42048681640625,0.004086620640009642,0.009068596176803112,-0.006893326062709093
1717857803228527900,7.43052783203125,0.00484295841306448,0.0083687175065279,-0.0059865196235477924
1717857803238568700,7.440568603515625,0.003926298581063747,0.00894023198634386,-0.007221427746117115
1717857803248609800,7.45060986328125,0.0029728866647928953,0.010801514610648155,-0.00517691858112812
1717857803258651000,7.46065087890625,0.0038637141697108746,0.0104150902479887,-0.005052282940596342
1717857803268691000,7.47069091796875,0.00390259618870914,0.009221727959811687,-0.006969492416828871
1717857803278731800,7.480731689453125,0.004495948553085327,0.008946890011429787,-0.0059598879888653755
1717857803288772900,7.49077294921875,0.004568119999021292,0.008267783559858799,-0.005259742960333824
1717857803298813700,7.500813720703125,0.0035475967451930046,0.009663812816143036,-0.006199039984494448
1717857803308854800,7.510854736328125,0.003534813644364476,0.00971574429422617,-0.006081061903387308
1717857803318895900,7.520895751953125,0.004857339430600405,0.009099222719669342,-0.005785983521491289
1717857803328935700,7.530935791015625,0.004628574009984732,0.0079708406701684,-0.0060118199326097965
1717857803338976500,7.5409765625,0.0037199032958596945,0.008384962566196918,-0.007872836664319038
1717857803349017900,7.551017822265625,0.0033803503029048443,0.010704043321311474,-0.004101268015801907
1717857803359059000,7.561058837890625,0.0038211036007851362,0.008614527061581612,-0.0057620154693722725
1717857803369099800,7.571099853515625,0.0043840957805514336,0.00782436691224575,-0.0056954361498355865
1717857803379139600,7.5811396484375,0.0037673076149076223,0.009318932890892029,-0.005842176266014576
1717857803389180700,7.5911806640625,0.005804359447211027,0.00746004655957222,-0.005075718741863966
1717857803399221800,7.6012216796875,0.005121258553117514,0.008697617799043655,-0.006846188101917505
1717857803409262600,7.6112626953125,0.0026234800461679697,0.008767658844590187,-0.004994492046535015
1717857803419303700,7.6213037109375,0.005667739547789097,0.01022467389702797,-0.006741259712725878
1717857803429344800,7.6313447265625,0.005139101762324572,0.00971627701073885,-0.0046120621263980865
1717857803439384600,7.641384521484375,0.0036658411845564842,0.010218283161520958,-0.006157760974019766
1717857803449425700,7.65142578125,0.004135889001190662,0.010433199815452099,-0.005903162993490696
1717857803459466800,7.661466796875,0.00387330143712461,0.008975119329988956,-0.006840329151600599
1717857803469507600,7.671507568359375,0.0054877097718417645,0.01155811920762062,-0.0036546560004353523
1717857803479548700,7.681548583984375,0.004606203176081181,0.008333563804626465,-0.006707703694701195
1717857803489588700,7.691588623046875,0.0027329358272254467,0.00887951161712408,-0.0049460227601230145
1717857803499629800,7.7016298828125,0.002715625334531069,0.006836600601673126,-0.006474677007645369
1717857803509670700,7.711670654296875,0.00318913534283638,0.007660582661628723,-0.007416637148708105
1717857803519711700,7.721711669921875,0.003996872343122959,0.010343451052904129,-0.0060112872160971165
1717857803529752800,7.7317529296875,0.004177168011665344,0.00920468382537365,-0.005425125360488892
1717857803539793700,7.741793701171875,0.003763579297810793,0.007984955795109272,-0.006579339504241943
1717857803549833700,7.751833740234375,0.005031776614487171,0.009320531040430069,-0.006372411735355854
1717857803559874800,7.761874755859375,0.004894357640296221,0.008824117481708527,-0.005204082932323217
1717857803569915600,7.77191552734375,0.002926813904196024,0.00839854497462511,-0.006109557580202818
1717857803579956700,7.781956787109375,0.004488225560635328,0.009525061585009098,-0.005940447095781565
1717857803589997800,7.791997802734375,0.004288488067686558,0.008300806395709515,-0.005289304070174694
1717857803600038000,7.802037841796875,0.003459446132183075,0.007562578655779362,-0.006857639644294977
1717857803610078700,7.81207861328125,0.002275138394907117,0.010179666802287102,-0.006783337332308292
1717857803620119800,7.822119873046875,0.003748399205505848,0.00854368694126606,-0.005233377683907747
1717857803630161000,7.832160888671875,0.003907656297087669,0.009130913764238358,-0.00538357999175787
1717857803640201700,7.84220166015625,0.004452006425708532,0.009528257884085178,-0.005299957003444433
1717857803650242800,7.852242919921875,0.003686347510665655,0.007991613820195198,-0.005388906225562096
1717857803660283000,7.862282958984375,0.004655472002923489,0.008219047449529171,-0.005019792355597019
1717857803670324000,7.872323974609375,0.0035979305393993855,0.008598814718425274,-0.005578523501753807
1717857803680364800,7.88236474609375,0.0030397321097552776,0.00899828877300024,-0.005855758674442768
1717857803690406000,7.892406005859375,0.0020530307665467262,0.007666441611945629,-0.0063092950731515884
1717857803700446700,7.90244677734375,0.00310604483820498,0.009513343684375286,-0.0076512619853019714
1717857803710486500,7.912486572265625,0.005224056541919708,0.00788375549018383,-0.006447779480367899
1717857803720527600,7.922527587890625,0.0034562505315989256,0.008839031681418419,-0.005689843557775021
1717857803730568700,7.932568603515625,0.005057609174400568,0.009008941240608692,-0.005659483373165131
1717857803740609500,7.942609619140625,0.0036424053832888603,0.008539692498743534,-0.006341785658150911
1717857803750650600,7.952650634765625,0.004059456288814545,0.009092031978070736,-0.0064805359579622746
1717857803760691700,7.962691650390625,0.004034689161926508,0.008934639394283295,-0.005079447291791439
1717857803770731800,7.972731689453125,0.004492220003157854,0.009041964076459408,-0.006727410946041346
1717857803780772600,7.982772705078125,0.004150270018726587,0.009299226105213165,-0.006705306936055422
1717857803790813700,7.992813720703125,0.0022708773612976074,0.008319715037941933,-0.00501206936314702
1717857803800854800,8.002854736328125,0.0018034926615655422,0.009437443688511848,-0.004551075864583254
1717857803810895600,8.0128955078125,0.002522279741242528,0.007955927401781082,-0.005367068573832512
1717857803820936700,8.022936767578125,0.0026136261876672506,0.008414523676037788,-0.006434996146708727
1717857803830976800,8.032976806640624,0.0033475933596491814,0.007859786972403526,-0.005345763172954321
1717857803841017600,8.043017578125,0.004509530495852232,0.010293384082615376,-0.006201703101396561
1717857803851058700,8.05305859375,0.003008040366694331,0.009338107891380787,-0.006104231346398592
1717857803861099800,8.063099853515626,0.0038983351550996304,0.010043845511972904,-0.005256281234323978
1717857803871140600,8.073140625,0.003900199430063367,0.00945315696299076,-0.005572664551436901
1717857803881180700,8.0831806640625,0.003090864745900035,0.008637696504592896,-0.005504753906279802
1717857803891221800,8.0932216796875,0.00449754623696208,0.008925051428377628,-0.006114617921411991
1717857803901262800,8.103262939453124,0.002728142309933901,0.00785685796290636,-0.006222209427505732
1717857803911303700,8.1133037109375,0.003029612125828862,0.00797536876052618,-0.006322344299405813
1717857803921344800,8.1233447265625,0.005087436642497778,0.007355384528636932,-0.007786550559103489
1717857803931385900,8.1333857421875,0.004357996862381697,0.009166333824396133,-0.004584365524351597
1717857803941426000,8.143426025390625,0.0032264196779578924,0.0075841499492526054,-0.00577932596206665
1717857803951466800,8.153466796875,0.003995806910097599,0.00971441250294447,-0.006612096447497606
1717857803961507800,8.1635078125,0.003120425855740905,0.00971467886120081,-0.004606735892593861
1717857803971548700,8.173548583984376,0.0019651465117931366,0.009814281016588211,-0.0052083441987633705
1717857803981589800,8.18358984375,0.004261324182152748,0.009121326729655266,-0.006865096744149923
1717857803991629800,8.1936298828125,0.004633633885532618,0.009108010679483414,-0.006912501063197851
1717857804001671000,8.2036708984375,0.004403004422783852,0.009044094942510128,-0.004737497307360172
1717857804011711700,8.213711669921874,0.0036996633280068636,0.007582818623632193,-0.0060019660741090775
1717857804021752800,8.2237529296875,0.005172657780349255,0.010508567094802856,-0.005615008994936943
1717857804031794000,8.2337939453125,0.004275438841432333,0.008852081373333931,-0.0048919604159891605
1717857804041833700,8.243833740234376,0.0028269453905522823,0.009734120219945908,-0.006401440128684044
1717857804051874600,8.25387451171875,0.004867726005613804,0.009371663443744183,-0.005537510849535465
1717857804061915600,8.26391552734375,0.0037950044497847557,0.009212139993906021,-0.004821653012186289
1717857804071956700,8.273956787109375,0.00484322477132082,0.007877896539866924,-0.004044010303914547
1717857804081997600,8.28399755859375,0.00478303711861372,0.008785768412053585,-0.005671733990311623
1717857804092038700,8.29403857421875,0.004704740364104509,0.009517339058220387,-0.004881840664893389
1717857804102078700,8.30407861328125,0.0028850024100393057,0.009601494297385216,-0.0036392095498740673
1717857804112119600,8.31411962890625,0.0037172401789575815,0.009040633216500282,-0.005275455769151449
1717857804122160600,8.32416064453125,0.00430073868483305,0.00896926037967205,-0.006074137985706329
1717857804132201700,8.33420166015625,0.0046698530204594135,0.008990032598376274,-0.0049529471434652805
1717857804142242600,8.34424267578125,0.005345496814697981,0.009241701103746891,-0.005489041097462177
1717857804152283600,8.35428369140625,0.0018048242200165987,0.007513043470680714,-0.005333246197551489
1717857804162323700,8.36432373046875,0.003233343828469515,0.009030246175825596,-0.005717806983739138
1717857804172364800,8.37436474609375,0.003097256412729621,0.00885048322379589,-0.005572398193180561
1717857804182406000,8.384406005859375,0.003861849894747138,0.007663512136787176,-0.0049313753843307495
1717857804192447000,8.394447021484375,0.0034402713645249605,0.008913067169487476,-0.007448328658938408
1717857804202488000,8.404488037109376,0.004656270612031221,0.008420382626354694,-0.004474909510463476
1717857804212527900,8.41452783203125,0.005258145276457071,0.00974210910499096,-0.00458756135776639
1717857804222568700,8.424568603515626,0.004631237126886845,0.009177252650260925,-0.005903695244342089
1717857804232609800,8.43460986328125,0.0037111148703843355,0.008853678591549397,-0.005146026145666838
1717857804242650600,8.444650634765624,0.002133192028850317,0.008698150515556335,-0.005094361025840044
1717857804252691700,8.454691650390625,0.0029787456151098013,0.009702960960566998,-0.005681587848812342
1717857804262733000,8.464733154296875,0.0038035267498344183,0.00917112734168768,-0.004221909213811159
1717857804272772900,8.47477294921875,0.00384400668554008,0.008594286628067493,-0.004916994366794825
1717857804282813700,8.484813720703125,0.0035092474427074194,0.010208428837358952,-0.005621400196105242
1717857804292854800,8.494854736328126,0.0049255164340138435,0.008665393106639385,-0.007015299052000046
1717857804302895900,8.504895751953125,0.004429635591804981,0.009343966841697693,-0.006964432541280985
1717857804312936700,8.514936767578124,0.00381471193395555,0.010569820180535316,-0.005869340617209673
1717857804322976800,8.524976806640625,0.002870887517929077,0.009558085352182388,-0.004899950232356787
1717857804333017900,8.535017822265624,0.0057135457172989845,0.008739962242543697,-0.005224589258432388
1717857804343059000,8.545058837890625,0.00407463638111949,0.009723467752337456,-0.0051654670387506485
1717857804353099800,8.555099853515625,0.0035092474427074194,0.009646235965192318,-0.00697801448404789
1717857804363140900,8.565140869140626,0.005151352379471064,0.00939163751900196,-0.005730323493480682
1717857804373181700,8.575181640625,0.004851746838539839,0.009184976108372211,-0.0057708038948476315
1717857804383221800,8.5852216796875,0.004829908721148968,0.009637979790568352,-0.006104764062911272
1717857804393262800,8.595262939453125,0.0031100395135581493,0.00920042209327221,-0.0062698801048099995
1717857804403304000,8.605303955078124,0.004208060912787914,0.009754359722137451,-0.004505536053329706
1717857804413344800,8.6153447265625,0.0059660132974386215,0.007759386207908392,-0.005117264110594988
1717857804423385900,8.6253857421875,0.003014432033523917,0.009499495849013329,-0.006940996740013361
1717857804433426000,8.635426025390625,0.0028842033352702856,0.009355418384075165,-0.0057372478768229485
1717857804443467000,8.645467041015625,0.004254666157066822,0.008452607318758965,-0.004479703027755022
1717857804453507800,8.6555078125,0.003981425892561674,0.008160457946360111,-0.0049521480686962605
1717857804463549000,8.665548828125,0.0027358653023838997,0.009787649847567081,-0.006673082709312439
1717857804473590000,8.675590087890624,0.004037352278828621,0.00875061471015215,-0.005758286919444799
1717857804483630800,8.685630859375,0.003613909473642707,0.009185242466628551,-0.00552206439897418
1717857804493671000,8.6956708984375,0.003754790872335434,0.009081645868718624,-0.005852829199284315
1717857804503712000,8.7057119140625,0.004511128645390272,0.006076002027839422,-0.0049100699834525585
1717857804513752800,8.7157529296875,0.0032232238445430994,0.010790063068270683,-0.005155080929398537
1717857804523794000,8.7257939453125,0.003751328680664301,0.00865926779806614,-0.005607019178569317
1717857804533835000,8.7358349609375,0.003953196108341217,0.009543703868985176,-0.007158310618251562
1717857804543875800,8.745875732421876,0.004412857815623283,0.009306415915489197,-0.007604656275361776
1717857804553916000,8.755916015625,0.003359045134857297,0.008754076436161995,-0.0065596322529017925
1717857804563957000,8.76595703125,0.004415254574269056,0.009571134112775326,-0.006332997232675552
1717857804573998000,8.775998046875,0.0024258734192699194,0.007808121852576733,-0.006383596919476986
1717857804584039000,8.786038818359375,0.00392869533970952,0.008333830162882805,-0.006669087801128626
1717857804594080000,8.796080078125,0.0036274916492402554,0.009190835058689117,-0.007398793939501047
1717857804604119800,8.806119873046875,0.0031736891251057386,0.009100819937884808,-0.006673082709312439
1717857804614161000,8.816160888671876,0.004317516926676035,0.00871972180902958,-0.004620584659278393
1717857804624201700,8.82620166015625,0.004264785908162594,0.008817194029688835,-0.00563977612182498
1717857804634242800,8.836242919921874,0.00538544449955225,0.007976965978741646,-0.007091199047863483
1717857804644283600,8.84628369140625,0.0037172401789575815,0.008213987573981285,-0.0065385932102799416
1717857804654323700,8.85632373046875,0.00404614070430398,0.010179666802287102,-0.004463457968086004
1717857804664364800,8.86636474609375,0.0025566346012055874,0.009616408497095108,-0.004998220596462488
1717857804674406000,8.876406005859375,0.0036160401068627834,0.009198025800287724,-0.005480252671986818
1717857804684446700,8.88644677734375,0.0038008634001016617,0.008645952679216862,-0.006530071143060923
1717857804694487800,8.89648779296875,0.0041334922425448895,0.008554872125387192,-0.0070587084628641605
1717857804704529000,8.90652880859375,0.005256813485175371,0.008613195270299911,-0.004546548705548048
1717857804714569000,8.91656884765625,0.0027254789602011442,0.00953891035169363,-0.00567040266469121
1717857804724609800,8.92660986328125,0.004988899454474449,0.006912234704941511,-0.005632319487631321
1717857804734651000,8.93665087890625,0.004053863696753979,0.007754325866699219,-0.006119677796959877
1717857804744692000,8.94669189453125,0.004483697935938835,0.009677660651504993,-0.005617405753582716
1717857804754732800,8.95673291015625,0.0038980687968432903,0.009139169938862324,-0.00570023013278842
1717857804764774000,8.96677392578125,0.004486361052840948,0.009015865623950958,-0.005527923349291086
1717857804774814000,8.97681396484375,0.005057609174400568,0.009343700483441353,-0.006515423767268658
1717857804784854800,8.986854736328125,0.00532685499638319,0.007835020311176777,-0.006885603070259094
1717857804794896000,8.996895751953126,0.004014449194073677,0.008756207302212715,-0.004916994366794825
1717857804804937000,9.00693701171875,0.004087686073035002,0.007903196848928928,-0.005649896338582039
1717857804814977800,9.016977783203124,0.004391818773001432,0.008892827667295933,-0.0062706791795790195
1717857804825017900,9.027017822265625,0.004090349189937115,0.009913883171975613,-0.0051771849393844604
1717857804835059000,9.037058837890624,0.004033357370644808,0.008795888163149357,-0.005315669346600771
1717857804845100000,9.04710009765625,0.003999801818281412,0.008918393403291702,-0.0070493873208761215
1717857804855140900,9.057140869140625,0.005531119182705879,0.0088187912479043,-0.0054701329208910465
1717857804865182000,9.067181884765626,0.0035747610963881016,0.008298410102725029,-0.005893309134989977
1717857804875223000,9.07722314453125,0.003260508179664612,0.009395631961524487,-0.005653358530253172
1717857804885262800,9.087262939453124,0.0034144388046115637,0.008407332934439182,-0.006410228554159403
1717857804895304000,9.097303955078125,0.0033867419697344303,0.008223042823374271,-0.005650694947689772
1717857804905345000,9.107344970703124,0.0036338833160698414,0.008830509148538113,-0.005364938173443079
1717857804915385900,9.1173857421875,0.0032506543211638927,0.009459281340241432,-0.006648581475019455
1717857804925427000,9.127427001953125,0.0057098171673715115,0.009691243059933186,-0.006036853417754173
1717857804935466800,9.137466796875,0.003561178920790553,0.010102967731654644,-0.006068544927984476
1717857804945507800,9.1475078125,0.0035052525345236063,0.007889880798757076,-0.004305532667785883
1717857804955548700,9.157548583984376,0.005094626918435097,0.008046475239098072,-0.00595456175506115
1717857804965589800,9.16758984375,0.0037497307639569044,0.009530654177069664,-0.005792108830064535
1717857804975630800,9.177630859375,0.0020516992080956697,0.008567122742533684,-0.007796137593686581
1717857804985671700,9.187671630859375,0.0026202842127531767,0.008353270590305328,-0.005870938766747713
1717857804995711700,9.197711669921874,0.0028040423057973385,0.009782856330275536,-0.005241633392870426
1717857805005752800,9.2077529296875,0.003611779073253274,0.00875274557620287,-0.005566006526350975
1717857805015794000,9.2177939453125,0.004482632502913475,0.008440889418125153,-0.006244047544896603
1717857805025834800,9.227834716796876,0.004457066301256418,0.009124255739152431,-0.0059814597479999065
1717857805035875800,9.237875732421875,0.004997954238206148,0.008451808243989944,-0.005628324579447508
1717857805045916000,9.247916015625,0.004312456585466862,0.00944756343960762,-0.003547064261510968
1717857805055956700,9.257956787109375,0.004448810592293739,0.00785392802208662,-0.005783320404589176
1717857805065997800,9.267997802734374,0.004011519718915224,0.00869335699826479,-0.0064922538585960865
1717857805076039000,9.278038818359375,0.004986502695828676,0.008723982609808445,-0.0049161952920258045
1717857805086079700,9.288079833984375,0.005005677696317434,0.010207629762589931,-0.005057609174400568
1717857805096120800,9.298120849609376,0.004205397795885801,0.009241169318556786,-0.00697854720056057
1717857805106161000,9.308160888671875,0.0054490938782691956,0.008759935386478901,-0.005141232628375292
1717857805116202000,9.318201904296876,0.0031068436801433563,0.009131180122494698,-0.006058158818632364
1717857805126242800,9.328242919921875,0.003375822911038995,0.008992696180939674,-0.005485845264047384
1717857805136284000,9.338283935546874,0.0025507756508886814,0.009277920238673687,-0.0062453788705170155
1717857805146325000,9.348324951171875,0.0041185785084962845,0.007285343483090401,-0.006006493698805571
1717857805156365800,9.35836572265625,0.002984072081744671,0.009014267474412918,-0.005660282447934151
1717857805166406000,9.368406005859375,0.003885552054271102,0.008918127045035362,-0.007194529753178358
1717857805176447000,9.378447021484375,0.004291950259357691,0.008927981369197369,-0.005927397403866053
1717857805186487800,9.38848779296875,0.0030458574183285236,0.00848296657204628,-0.004588626325130463
1717857805196529000,9.39852880859375,0.002659166231751442,0.00923184771090746,-0.005793706979602575
1717857805206570000,9.408570068359374,0.0049313753843307495,0.009576727636158466,-0.006439523305743933
1717857805216610000,9.418610107421875,0.0037238982040435076,0.008681372739374638,-0.006734868045896292
1717857805226651000,9.42865087890625,0.003547064261510968,0.007922904565930367,-0.005744704511016607
1717857805236692000,9.43869189453125,0.0031055121216923,0.009130913764238358,-0.005062669049948454
1717857805246733000,9.448733154296875,0.0030099046416580677,0.009847038425505161,-0.005197425372898579
1717857805256774000,9.45877392578125,0.003564108395949006,0.009445433504879475,-0.006016080733388662
1717857805266813700,9.468813720703125,0.005064799915999174,0.01050617080181837,-0.006453105714172125
1717857805276854800,9.478854736328126,0.003632551757618785,0.008747684769332409,-0.005003813188523054
1717857805286895900,9.488895751953125,0.005047755315899849,0.009186041541397572,-0.005791842471808195
1717857805296936700,9.498936767578124,0.0025901903863996267,0.008841162547469139,-0.006299707572907209
1717857805306977800,9.508977783203125,0.0040943436324596405,0.009733587503433228,-0.004025101661682129
1717857805317018600,9.5190185546875,0.0033955303952097893,0.008981510996818542,-0.0043595945462584496
1717857805327058700,9.52905859375,0.004676776938140392,0.00887738075107336,-0.005119660869240761
1717857805337099800,9.539099853515625,0.005416336935013533,0.010127468965947628,-0.005006209947168827
1717857805347140900,9.549140869140626,0.004306064918637276,0.009225456044077873,-0.005923402961343527
1717857805357181700,9.559181640625,0.00392709719017148,0.007709851488471031,-0.006439789664000273
1717857805367222800,9.569222900390624,0.003952131140977144,0.00911600049585104,-0.005683451890945435
1717857805377262800,9.579262939453125,0.0046757119707763195,0.009356483817100525,-0.005750563926994801
1717857805387304000,9.589303955078124,0.005218197591602802,0.009516273625195026,-0.006140983197838068
1717857805397344800,9.5993447265625,0.004308728501200676,0.008929579518735409,-0.00694978516548872
1717857805407385900,9.6093857421875,0.004135889001190662,0.008196410723030567,-0.005583317019045353
1717857805417427000,9.619427001953126,0.004458664450794458,0.008678975515067577,-0.004930309951305389
1717857805427467800,9.6294677734375,0.00395612558349967,0.008700546808540821,-0.005343100056052208
1717857805437507800,9.6395078125,0.0033427998423576355,0.008887235075235367,-0.006957774516195059
1717857805447549000,9.649548828125,0.003765443339943886,0.008554073050618172,-0.004825115203857422
1717857805457589800,9.65958984375,0.003180080559104681,0.009808954782783985,-0.0062331282533705235
1717857805467630800,9.669630859375,0.0033981935121119022,0.009637447074055672,-0.005690642632544041
1717857805477672000,9.679671875,0.003564641112461686,0.009139969013631344,-0.005570001434534788
1717857805487712800,9.689712646484375,0.0043920851312577724,0.010906443931162357,-0.006680007092654705
1717857805497752800,9.6997529296875,0.00264824740588665,0.008678709156811237,-0.005135640036314726
1717857805507794000,9.7097939453125,0.005146825220435858,0.008565258234739304,-0.0070336745120584965
1717857805517835000,9.7198349609375,0.0032764871139079332,0.008703210391104221,-0.006776413414627314
1717857805527875800,9.729875732421876,0.004159058444201946,0.010071275755763054,-0.006056294776499271
1717857805537917000,9.7399169921875,0.0033095101825892925,0.01113494299352169,-0.003061303636059165
1717857805547957000,9.74995703125,0.003878627670928836,0.010732538998126984,-0.0041121868416666985
1717857805557997800,9.759997802734375,0.002766757970675826,0.009395099245011806,-0.0043952809646725655
1717857805568039000,9.770038818359374,0.0037414750549942255,0.0074017234146595,-0.008100803010165691
1717857805578080000,9.780080078125,0.0036477316170930862,0.006394249852746725,-0.006215019151568413
1717857805588120800,9.790120849609375,0.004311657976359129,0.009209477342665195,-0.006399842444807291
1717857805598162000,9.800161865234376,0.003487143199890852,0.010815097019076347,-0.004691957030445337
1717857805608202000,9.810201904296875,0.004884237423539162,0.009970609098672867,-0.005939381662756205
1717857805618243000,9.8202431640625,0.0033222935162484646,0.009195628575980663,-0.006888266187161207
1717857805628284000,9.830283935546875,0.0018013621447607875,0.008952482603490353,-0.00720438314601779
1717857805638325000,9.840324951171874,0.0032804817892611027,0.00914636068046093,-0.006374276243150234
1717857805648366000,9.850365966796875,0.002959304489195347,0.008617457002401352,-0.00555162550881505
1717857805658406000,9.860406005859375,0.002840261207893491,0.008876049891114235,-0.006666691042482853
1717857805668446700,9.87044677734375,0.005073055624961853,0.0075545888394117355,-0.006505836267024279
1717857805678487800,9.88048779296875,0.004238953348249197,0.008674714714288712,-0.006272543221712112
1717857805688529000,9.89052880859375,0.004824582487344742,0.009166866540908813,-0.005899168085306883
1717857805698569700,9.90056982421875,0.0038685076870024204,0.010178335011005402,-0.006172674708068371
1717857805708610800,9.91061083984375,0.0044469465501606464,0.009208411909639835,-0.00612260727211833
1717857805718651000,9.92065087890625,0.004459196701645851,0.007879494689404964,-0.006268814671784639
1717857805728691700,9.930691650390624,0.0036730316933244467,0.007952997460961342,-0.006172408349812031
1717857805738732800,9.94073291015625,0.0032551817130297422,0.008891495876014233,-0.005680522415786982
1717857805748774000,9.95077392578125,0.0037494644057005644,0.008588427677750587,-0.006073072552680969
1717857805758814700,9.960814697265626,0.003329750383272767,0.008429703302681446,-0.005829659756273031
1717857805768854800,9.970854736328125,0.004833637271076441,0.008073372766375542,-0.006154032424092293
1717857805778896000,9.980895751953126,0.004793956410139799,0.008987369947135448,-0.005429652985185385
1717857805788937000,9.99093701171875,0.003346528159454465,0.00980416126549244,-0.005928462836891413
1717857805798977800,10.000977783203124,0.0037201696541160345,0.00945155881345272,-0.004553472623229027
1717857805809019000,10.011018798828125,0.003340669209137559,0.008957009762525558,-0.006487193983048201
1717857805819060000,10.02106005859375,0.0029939257074147463,0.00920175388455391,-0.007154049351811409
1717857805829099800,10.031099853515625,0.003142263740301132,0.009500826708972454,-0.005789179354906082
1717857805839140900,10.041140869140625,0.004716191906481981,0.009321596473455429,-0.004405933897942305
1717857805849182000,10.051181884765626,0.004487160127609968,0.008079231716692448,-0.005942311137914658
1717857805859222800,10.061222900390625,0.0033867419697344303,0.009230515919625759,-0.008043545298278332
1717857805869264000,10.071263916015624,0.004627508576959372,0.009926133789122105,-0.0071005201898515224
1717857805879304000,10.081303955078125,0.0038834214210510254,0.008326373063027859,-0.006450442597270012
1717857805889345000,10.091344970703124,0.002960103563964367,0.00914689339697361,-0.005201419815421104
1717857805899385900,10.1013857421875,0.004036020487546921,0.009356750175356865,-0.0049401638098061085
1717857805909427000,10.111427001953125,0.0034261567052453756,0.009101086296141148,-0.004993427079170942
1717857805919468000,10.121468017578126,0.004511927254498005,0.009899502620100975,-0.0065561700612306595
1717857805929508900,10.1315087890625,0.002981142606586218,0.008468586020171642,-0.0072962623089551926
1717857805939549000,10.141548828125,0.004234426189213991,0.010940532200038433,-0.005216333549469709
1717857805949590000,10.151590087890625,0.002557966159656644,0.010142115876078606,-0.006455236114561558
1717857805959630800,10.161630859375,0.0036509274505078793,0.006813164800405502,-0.005375856999307871
1717857805969672000,10.171671875,0.0037729002069681883,0.009242500178515911,-0.006734335329383612
1717857805979713000,10.181713134765625,0.0023100259713828564,0.009771936573088169,-0.006043511442840099
1717857805989752800,10.1917529296875,0.004226436838507652,0.008451009169220924,-0.006146043073385954
1717857805999793700,10.201793701171875,0.004815527703613043,0.009393502026796341,-0.005110872443765402
1717857806009834800,10.211834716796876,0.003097256412729621,0.008846222423017025,-0.005898102652281523
1717857806019875800,10.221875732421875,0.002560895634815097,0.009485380724072456,-0.005505819339305162
1717857806029916700,10.231916748046874,0.003123888047412038,0.009977266192436218,-0.00475534051656723
1717857806039957800,10.241957763671875,0.004929511342197657,0.008189752697944641,-0.0062067629769444466
1717857806049997800,10.251997802734374,0.0028336034156382084,0.008359662257134914,-0.006081328261643648
1717857806060039000,10.262038818359375,0.0030336068011820316,0.009364739991724491,-0.005942843854427338
1717857806070079700,10.272079833984375,0.004244812298566103,0.009648898616433144,-0.007743673399090767
1717857806080120800,10.282120849609376,0.0052267201244831085,0.008597216568887234,-0.004524710588157177
1717857806090162000,10.292161865234375,0.004363589454442263,0.00968858040869236,-0.006191849708557129
1717857806100202800,10.30220263671875,0.004099936690181494,0.010116017423570156,-0.00672315014526248
1717857806110242800,10.312242919921875,0.005248291417956352,0.008167115971446037,-0.005948969163000584
1717857806120284000,10.322283935546874,0.003879426745697856,0.009578058496117592,-0.004993693437427282
1717857806130324700,10.33232470703125,0.004095675423741341,0.007453655358403921,-0.00580755528062582
1717857806140365800,10.34236572265625,0.005066131241619587,0.009307747706770897,-0.00538544449955225
1717857806150407000,10.352406982421876,0.00469568558037281,0.0086054727435112,-0.006012884899973869
1717857806160447000,10.362447021484375,0.003578489413484931,0.009327988140285015,-0.006432865746319294
1717857806170487800,10.37248779296875,0.005681587848812342,0.00820946041494608,-0.006339921150356531
1717857806180529000,10.38252880859375,0.0032645028550177813,0.009832390584051609,-0.007244863547384739
1717857806190569200,10.3925693359375,0.0036160401068627834,0.0075761605985462666,-0.006185990758240223
1717857806200610000,10.402610107421875,0.003941211849451065,0.007963650859892368,-0.004321777727454901
1717857806210651100,10.412651123046874,0.004327903036028147,0.009623865596950054,-0.005620867945253849
1717857806220691200,10.422691162109375,0.00446878420189023,0.009757023304700851,-0.00580915343016386
1717857806230732300,10.432732177734374,0.0038123151753097773,0.008804677054286003,-0.0062634884379804134
1717857806240773000,10.442773193359375,0.0037201696541160345,0.009215069934725761,-0.004856273997575045
1717857806250814200,10.452814208984375,0.005279982928186655,0.009612945839762688,-0.005541505757719278
1717857806260855300,10.462855224609376,0.003242664970457554,0.009611348621547222,-0.006566822528839111
1717857806270895000,10.47289501953125,0.004147074185311794,0.008921323344111443,-0.005876265000551939
1717857806280936000,10.48293603515625,0.004081028047949076,0.010215086862444878,-0.004522580187767744
1717857806290977000,10.49297705078125,0.003771835006773472,0.008233162574470043,-0.005598497111350298
1717857806301018000,10.50301806640625,0.003057841444388032,0.009237706661224365,-0.007098655682057142
1717857806311059000,10.513058837890625,0.004326571244746447,0.00851359311491251,-0.0052016861736774445
1717857806321100000,10.52310009765625,0.002944923471659422,0.008901615627110004,-0.004099936690181494
1717857806331140000,10.53314013671875,0.0051835766062140465,0.00814927276223898,-0.005154814571142197
1717857806341181000,10.543180908203125,0.0030959248542785645,0.00836578756570816,-0.007396130822598934
1717857806351222000,10.553221923828126,0.002682868391275406,0.00902625173330307,-0.00612234091386199
1717857806361263000,10.56326318359375,0.004613660275936127,0.009157812222838402,-0.006198240909725428
1717857806371304000,10.573303955078124,0.004080761689692736,0.008284827694296837,-0.006131662055850029
1717857806381344000,10.583343994140625,0.0031486554071307182,0.008580172434449196,-0.004644286818802357
1717857806391385000,10.593385009765624,0.004992095287889242,0.009771936573088169,-0.005477056838572025
1717857806401426200,10.60342626953125,0.0034208304714411497,0.009441970847547054,-0.006962302140891552
1717857806411467000,10.613467041015625,0.004777178168296814,0.008440090343356133,-0.005854693241417408
1717857806421508000,10.623508056640626,0.003346261801198125,0.009235842153429985,-0.006142314523458481
1717857806431549200,10.633549072265625,0.0039084553718566895,0.009099489077925682,-0.0060171461664140224
1717857806441589000,10.643589111328126,0.004054662771522999,0.00857617799192667,-0.005931925028562546
1717857806451630000,10.653630126953125,0.0029648973140865564,0.009307747706770897,-0.005314604379236698
1717857806461671200,10.663671142578124,0.003649862250313163,0.009327455423772335,-0.006194779183715582
1717857806471712000,10.6737119140625,0.00461632339283824,0.009236641228199005,-0.005667739547789097
1717857806481753000,10.683753173828125,0.0028807413764297962,0.008272577077150345,-0.005677592940628529
1717857806491794200,10.693794189453126,0.004791293293237686,0.008957808837294579,-0.006387059111148119
1717857806501834200,10.703834228515625,0.004283960908651352,0.0072925337590277195,-0.006251237820833921
1717857806511875000,10.713875,0.003971838392317295,0.009559416212141514,-0.005758286919444799
1717857806521916200,10.723916259765625,0.003861317178234458,0.009621202014386654,-0.004744687583297491
1717857806531957200,10.733957275390624,0.0029201561119407415,0.010150638408958912,-0.006323143374174833
1717857806541998000,10.743998046875,0.005511411931365728,0.009164203889667988,-0.005045624915510416
1717857806552038100,10.7540380859375,0.00418355967849493,0.010102701373398304,-0.006657636258751154
1717857806562079200,10.764079345703125,0.0030740867368876934,0.00836791843175888,-0.006493852008134127
1717857806572120000,10.7741201171875,0.005241633392870426,0.009528790600597858,-0.004973985720425844
1717857806582161200,10.7841611328125,0.00373135507106781,0.010734669864177704,-0.005075718741863966
1717857806592202200,10.7942021484375,0.003073021536692977,0.008522115647792816,-0.006020075641572475
1717857806602243000,10.8042431640625,0.0035534559283405542,0.008800681680440903,-0.005643771030008793
1717857806612283100,10.814283203125,0.0038069887086749077,0.010261425748467445,-0.006074670236557722
1717857806622324200,10.82432421875,0.004250404890626669,0.009042496792972088,-0.005872536450624466
1717857806632365300,10.834365234375,0.0032650355715304613,0.007992945611476898,-0.006621683482080698
1717857806642406100,10.84440625,0.004920722916722298,0.009926932863891125,-0.00695085059851408
1717857806652447200,10.854447265625,0.002621615771204233,0.008698416873812675,-0.004418184049427509
1717857806662487000,10.864487060546875,0.003677559085190296,0.0073295519687235355,-0.0024583640042692423
1717857806672528100,10.874528076171876,0.0032107068691402674,0.012083826586604118,-0.0041366880759596825
1717857806682569000,10.88456884765625,0.00487251952290535,0.008613727986812592,-0.005139900837093592
1717857806692610000,10.894610107421874,0.004560929723083973,0.008649680763483047,-0.0078571243211627
1717857806702651100,10.904651123046875,0.004444815684109926,0.0073077138513326645,-0.00833835732191801
1717857806712692000,10.91469189453125,0.004850681405514479,0.009735718369483948,-0.00689119566231966
1717857806722732000,10.92473193359375,0.003102049930021167,0.009861418977379799,-0.004147340543568134
1717857806732773000,10.934773193359375,0.004316984210163355,0.009615875780582428,-0.007510913070291281
1717857806742814000,10.94481396484375,0.0033627734519541264,0.008955411612987518,-0.006735400762408972
1717857806752855000,10.95485498046875,0.003742540255188942,0.006909305229783058,-0.007170827593654394
1717857806762896100,10.964896240234374,0.0032490564044564962,0.009847304783761501,-0.005995574407279491
1717857806772936200,10.974936279296875,0.004576908424496651,0.00820839498192072,-0.006072007119655609
1717857806782977000,10.98497705078125,0.003997404593974352,0.009049953892827034,-0.005951898638159037
1717857806793018000,10.99501806640625,0.0029968551825731993,0.009374593384563923,-0.00541473925113678
1717857806803059200,11.00505908203125,0.002365952357649803,0.008823319338262081,-0.0052235242910683155
1717857806813100000,11.01510009765625,0.004368915688246489,0.008764463476836681,-0.006081594619899988
1717857806823141000,11.02514111328125,0.0036368127912282944,0.008533034473657608,-0.0051928977482020855
1717857806833181200,11.03518115234375,0.0037673076149076223,0.008386294357478619,-0.005084773525595665
1717857806843222000,11.045221923828125,0.003132942598313093,0.009527458809316158,-0.007920507341623306
1717857806853263000,11.05526318359375,0.004006992094218731,0.009797503240406513,-0.006109823938459158
1717857806863304200,11.06530419921875,0.004249073565006256,0.00920228660106659,-0.004004595335572958
1717857806873345000,11.075344970703124,0.0037324202712625265,0.009757023304700851,-0.006572148762643337
1717857806883385000,11.085385009765625,0.004500742070376873,0.00833596009761095,-0.006331665441393852
1717857806893426200,11.09542626953125,0.0031641016248613596,0.009863283485174179,-0.006186256650835276
1717857806903467300,11.10546728515625,0.0034879420418292284,0.008833439089357853,-0.005943909287452698
1717857806913508000,11.115508056640625,0.00563950976356864,0.010492322035133839,-0.006607835181057453
1717857806923549200,11.125549072265626,0.0033904702868312597,0.009333580732345581,-0.0051774512976408005
1717857806933590300,11.13559033203125,0.005830458365380764,0.011381551623344421,-0.007081877905875444
1717857806943630300,11.14563037109375,0.0025920546613633633,0.008598015643656254,-0.006476541515439749
1717857806953671200,11.155671142578125,0.00387410051189363,0.009812416508793831,-0.005644835997372866
1717857806963712300,11.165712158203124,0.004413124173879623,0.008964733220636845,-0.007389739155769348
1717857806973753000,11.175753173828125,0.005017661955207586,0.00827737059444189,-0.0049196574836969376
1717857806983794200,11.185794189453125,0.004210457671433687,0.006970824208110571,-0.0070821442641317844
1717857806993835300,11.195835205078126,0.003640807466581464,0.008176703006029129,-0.006207828409969807
1717857807003875000,11.205875,0.005213137716054916,0.010849185287952423,-0.005961486138403416
1717857807013916000,11.215916015625,0.0043737092055380344,0.00893623661249876,-0.0073713636957108974
1717857807023957000,11.22595703125,0.004707137122750282,0.009312807582318783,-0.005365204066038132
1717857807033998000,11.235998046875,0.0025662221014499664,0.008772452361881733,-0.006321545224636793
1717857807044039000,11.246038818359375,0.0033105756156146526,0.009648898616433144,-0.006220878101885319
1717857807054079000,11.256078857421874,0.004491953644901514,0.008599880151450634,-0.006369215901941061
1717857807064120000,11.2661201171875,0.003524960018694401,0.008566323667764664,-0.0041372207924723625
1717857807074161200,11.2761611328125,0.00455773388966918,0.008960737846791744,-0.006156429648399353
1717857807084202000,11.286201904296876,0.0031971249263733625,0.008539426140487194,-0.005961486138403416
1717857807094243000,11.2962431640625,0.003032275242730975,0.009078715927898884,-0.005931392312049866
1717857807104284200,11.3062841796875,0.0047849016264081,0.009409214369952679,-0.005916478578001261
1717857807114324000,11.316323974609375,0.003990747034549713,0.008526642806828022,-0.004163053352385759
1717857807124365000,11.326364990234374,0.0035065840929746628,0.009952233172953129,-0.006417419295758009
1717857807134406100,11.33640625,0.0033715618774294853,0.009738114662468433,-0.006398510653525591
1717857807144447000,11.346447021484375,0.004050401505082846,0.008608135394752026,-0.003954527899622917
1717857807154488000,11.356488037109376,0.00336117553524673,0.008980445563793182,-0.005624862387776375
1717857807164528000,11.366528076171875,0.0038575888611376286,0.0070698936469852924,-0.006307430565357208
1717857807174569200,11.3765693359375,0.005516738165169954,0.008461128920316696,-0.006628075148910284
1717857807184610800,11.38661083984375,0.0020687435753643513,0.009065666235983372,-0.007010238710790873
1717857807194652000,11.39665185546875,0.003944674041122198,0.009826531633734703,-0.005900233518332243
1717857807204692700,11.406692626953125,0.004970257636159658,0.010488327592611313,-0.004683434963226318
1717857807214732500,11.416732666015625,0.004542021080851555,0.01047154888510704,-0.005072256550192833
1717857807224773600,11.426773681640626,0.003976898267865181,0.008831574581563473,-0.006847519893199205
1717857807234814700,11.436814697265625,0.003460777923464775,0.009375126101076603,-0.005873069167137146
1717857807244855600,11.44685546875,0.0028610338922590017,0.00957033596932888,-0.006371612660586834
1717857807254896600,11.456896728515625,0.0017606157343834639,0.00794207863509655,-0.005612345412373543
1717857807264937700,11.466937744140624,0.003748665563762188,0.00923238042742014,-0.006207295693457127
1717857807274977800,11.476977783203125,0.003878894029185176,0.009967412799596786,-0.0065202172845602036
1717857807285018600,11.4870185546875,0.004566788673400879,0.009080580435693264,-0.005163336638361216
1717857807295059700,11.497059814453126,0.0024714134633541107,0.009839581325650215,-0.00466505903750658
1717857807305100800,11.507100830078125,0.0035633095540106297,0.009603891521692276,-0.004571049474179745
1717857807315141600,11.5171416015625,0.004293015692383051,0.007978297770023346,-0.005681321490556002
1717857807325182700,11.5271826171875,0.004099137615412474,0.008157795295119286,-0.005386775825172663
1717857807335222800,11.537222900390624,0.00355878216214478,0.008537827990949154,-0.006395847536623478
1717857807345263600,11.547263671875,0.002974484581500292,0.008563661016523838,-0.005228850524872541
1717857807355304700,11.5573046875,0.003468767274171114,0.008886968716979027,-0.004204332362860441
1717857807365345800,11.567345703125,0.00421258807182312,0.009007875807583332,-0.006777478381991386
1717857807375386600,11.57738671875,0.0036450685001909733,0.009184443391859531,-0.005664010997861624
1717857807385426700,11.5874267578125,0.004739894066005945,0.00814794097095728,-0.00427091121673584
1717857807395467800,11.5974677734375,0.004608600400388241,0.00817883387207985,-0.005540440324693918
1717857807405508900,11.6075087890625,0.004342550411820412,0.009518936276435852,-0.004681038204580545
1717857807415549700,11.6175498046875,0.0036724992096424103,0.0096259955316782,-0.006042446009814739
1717857807425590800,11.6275908203125,0.0018016285030171275,0.009295230731368065,-0.006172941066324711
1717857807435631900,11.6376318359375,0.0030716899782419205,0.009177785366773605,-0.0057492321357131
1717857807445671700,11.647671630859374,0.0029763488564640284,0.008904545567929745,-0.005981726106256247
1717857807455712800,11.657712646484375,0.00498064374551177,0.010921623557806015,-0.006608634255826473
1717857807465753900,11.66775390625,0.0034237599465996027,0.00962626188993454,-0.005029646214097738
1717857807475794700,11.677794677734376,0.004477039910852909,0.009252088144421577,-0.006205431651324034
1717857807485835800,11.687835693359375,0.0034730283077806234,0.009063003584742546,-0.004827778320759535
1717857807495875800,11.697875732421876,0.002670884132385254,0.009948237799108028,-0.0048767803236842155
1717857807505917000,11.7079169921875,0.004188087303191423,0.009582320228219032,-0.006402771919965744
1717857807515957800,11.717957763671874,0.003231213428080082,0.00860201008617878,-0.004986769054085016
1717857807525998800,11.727998779296875,0.004256796557456255,0.00863263662904501,-0.0067788101732730865
1717857807536040000,11.7380400390625,0.004507666453719139,0.009269132278859615,-0.005572930909693241
1717857807546080800,11.748080810546876,0.0036104475148022175,0.010145312175154686,-0.00669465446844697
1717857807556120600,11.75812060546875,0.004343882203102112,0.009526393376290798,-0.005812349263578653
1717857807566161700,11.76816162109375,0.003216299694031477,0.008889897726476192,-0.0064834654331207275
1717857807576202800,11.77820263671875,0.004611529875546694,0.009214004501700401,-0.006057359743863344
1717857807586243600,11.78824365234375,0.004555070772767067,0.00908777117729187,-0.005977198481559753
1717857807596284700,11.79828466796875,0.0032237565610557795,0.00857617799192667,-0.0064962487667799
1717857807606324700,11.80832470703125,0.0037822213489562273,0.010806309059262276,-0.004747883416712284
1717857807616365600,11.818365478515625,0.0034232272300869226,0.010745588690042496,-0.00708693778142333
1717857807626406700,11.82840673828125,0.0054552191868424416,0.009580988436937332,-0.007473096251487732
1717857807636447700,11.83844775390625,0.004244545940309763,0.009785252623260021,-0.0070648337714374065
1717857807646488600,11.848488525390625,0.004263188224285841,0.00942093227058649,-0.006505303550511599
1717857807656529700,11.85852978515625,0.003198190126568079,0.009185242466628551,-0.005825664848089218
1717857807666569700,11.86856982421875,0.003495665267109871,0.008371646516025066,-0.006738063879311085
1717857807676610800,11.87861083984375,0.0033955303952097893,0.010833739303052425,-0.0026168220210820436
1717857807686651600,11.888651611328125,0.0046751792542636395,0.009212406352162361,-0.0056802560575306416
1717857807696692700,11.898692626953125,0.0037289580795913935,0.009208678267896175,-0.004908738657832146
1717857807706733800,11.90873388671875,0.0041191112250089645,0.007558317389339209,-0.007756190374493599
1717857807716774700,11.918774658203125,0.0032722260802984238,0.007112238090485334,-0.00634817685931921
