time,seconds_elapsed,z,y,x
1717857795851038500,0.05303857421875,-0.0003997276071459055,0.00009633786976337433,0.000759003683924675
1717857795861079600,0.06307958984375,-0.00012092827819287777,0.0013728765770792961,0.0003360253758728504
1717857795871119600,0.07311962890625,-0.0004945697728544474,-0.00025271717458963394,0.0005219141021370888
1717857795881160400,0.083160400390625,0.00008253753185272217,-0.0011275671422481537,0.000828819815069437
1717857795891201500,0.093201416015625,-0.0009534324053674936,-0.0003113085404038429,0.0003683594986796379
1717857795901242400,0.103242431640625,-0.0018030472565442324,0.0002095140516757965,-0.0007327706553041935
1717857795911283500,0.113283447265625,-0.0006400449201464653,0.000016967765986919403,-0.0005575348623096943
1717857795921323500,0.123323486328125,0.0008170036599040031,-0.0006319312378764153,-0.0012932047247886658
1717857795931364600,0.133364501953125,-0.0009215078316628933,0.0006988495588302612,0.0003326553851366043
1717857795941405400,0.143405517578125,0.00038600433617830276,-0.00014755316078662872,-0.00020586838945746422
1717857795951446500,0.153446533203125,-0.001754377968609333,0.000753660686314106,0.0012498153373599052
1717857795961487600,0.163487548828125,0.0010071201249957085,-0.0008402317762374878,0.00009804405272006989
1717857795971527700,0.173527587890625,0.001140544656664133,0.0002279616892337799,-0.0009347298182547092
1717857795981568500,0.183568603515625,-0.0005113796796649694,0.00021286867558956146,-0.0004895329475402832
1717857795991609600,0.193609619140625,-0.000498596578836441,-0.00038980506360530853,0.001052703708410263
1717857796001650700,0.203650634765625,-0.0007908463012427092,-0.0013121534138917923,0.001207049936056137
1717857796011691500,0.21369140625,0.00010743783786892891,-0.0001158611848950386,0.0008435281924903393
1717857796021731300,0.2237314453125,-0.0004649090114980936,-0.0004583969712257385,-0.00077029038220644
1717857796031772400,0.2337724609375,-0.0006449385546147823,-0.0003806324675679207,0.0006355922669172287
1717857796041813200,0.243813232421875,0.00009888317435979843,0.0005982182919979095,-0.000636084470897913
1717857796051854300,0.253854248046875,0.00016945693641901016,-0.0006374884396791458,0.0013040285557508469
1717857796061895700,0.263895751953125,-0.00010255142115056515,-5.485489964485168e-7,0.0006148782558739185
1717857796071935500,0.273935546875,0.0016617928631603718,0.0003653690218925476,0.0016987845301628113
1717857796081976300,0.283976318359375,0.0010614832863211632,-0.0005326364189386368,0.0007588895969092846
1717857796092017400,0.294017333984375,-0.001188088906928897,-0.00012437347322702408,0.0000747237354516983
1717857796102058500,0.30405859375,0.0010833530686795712,0.0001169862225651741,0.001437668688595295
1717857796112099300,0.314099365234375,-0.0000876386184245348,-0.0010452168062329292,0.00007732585072517395
1717857796122139400,0.324139404296875,-0.0010632877238094807,-0.0005034701898694038,0.0003683832474052906
1717857796132180500,0.334180419921875,0.0003721560351550579,-0.00048296432942152023,0.00008848495781421661
1717857796142221600,0.3442216796875,-0.0012200484052300453,-0.0005419515073299408,0.001263840589672327
1717857796152262400,0.354262451171875,-0.00008394382894039154,0.0005803043022751808,0.000045177992433309555
1717857796162303500,0.364303466796875,0.00012099090963602066,-0.00044661760330200195,0.000011461321264505386
1717857796172343600,0.374343505859375,-0.000378085533156991,0.00033661816269159317,0.0008543520234525204
1717857796182384400,0.38438427734375,0.0009055212140083313,0.00003408920019865036,0.001185036264359951
1717857796192425500,0.394425537109375,0.00038274284452199936,-0.0010498175397515297,0.0015056808479130268
1717857796202466600,0.404466552734375,0.0004956931807100773,-0.00026675034314393997,0.0005697198212146759
1717857796212507400,0.41450732421875,-0.001584501937031746,0.00041981320828199387,-0.0004015346057713032
1717857796222548500,0.424548583984375,-0.0004228635225445032,0.0005836561322212219,-0.0010341079905629158
1717857796232588500,0.434588623046875,-0.0006486997008323669,-0.0005226209759712219,0.00032783253118395805
1717857796242629600,0.444629638671875,-0.00015045469626784325,-0.0007899003103375435,0.001212171744555235
1717857796252670500,0.45467041015625,-0.0004215645603835583,-0.0012490293011069298,-0.0007828022353351116
1717857796262711600,0.464711669921875,-0.00026254146359860897,-0.001155090518295765,-0.00012994976714253426
1717857796272752600,0.474752685546875,0.0003483877517282963,0.0006473371759057045,0.00024768663570284843
1717857796282792400,0.48479248046875,0.000033535994589328766,-0.0010085739195346832,-0.00047758128494024277
1717857796292833500,0.49483349609375,0.0004340754821896553,-0.0009672949090600014,0.0010193819180130959
1717857796302874600,0.50487451171875,0.0012108460068702698,-0.0012816041707992554,0.0003743031993508339
1717857796312915500,0.51491552734375,0.0010222941637039185,0.00003692694008350372,0.0008110618218779564
1717857796322956500,0.52495654296875,0.002553278114646673,-0.00008225534111261368,0.00044755078852176666
1717857796332996600,0.53499658203125,0.0017279647290706635,-0.000313684344291687,-0.00045792385935783386
1717857796343037700,0.54503759765625,0.0007452000863850117,-0.00023097917437553406,0.000427986029535532
1717857796353078500,0.55507861328125,0.00003200536593794823,-0.0012232735753059387,-0.000606385525316
1717857796363119600,0.56511962890625,-0.0011854846961796284,-0.0005752742290496826,0.0005286522209644318
1717857796373160700,0.57516064453125,-0.0010826864745467901,-0.001066894270479679,0.0005393046885728836
1717857796383200500,0.585200439453125,0.0005394374020397663,-0.0009445510804653168,-0.000132810790091753
1717857796393241300,0.595241455078125,-0.0009442097507417202,-0.0010643936693668365,-0.0005594491958618164
1717857796403282400,0.605282470703125,-0.001604786142706871,-0.00013845600187778473,-0.0008370610885322094
1717857796413323500,0.615323486328125,0.0005007088184356689,-0.001023157499730587,0.000058026984333992004
1717857796423364400,0.6253642578125,0.0002857586368918419,0.0003624986857175827,0.0011408538557589054
1717857796433405400,0.635405517578125,0.00021651620045304298,0.0009334804490208626,0.00018797442317008972
1717857796443445500,0.645445556640625,0.001599116250872612,0.0008947942405939102,0.0006116265431046486
1717857796453486300,0.655486328125,0.001281933393329382,0.00042767543345689774,0.0006174854934215546
1717857796463527400,0.66552734375,-0.00105120032094419,0.0017708800733089447,0.0006594038568437099
1717857796473568500,0.675568603515625,0.0008617481216788292,0.0014390498399734497,-0.0007374240085482597
1717857796483609300,0.685609375,-0.00018602167256176472,-0.0006868811324238777,-0.0013294583186507225
1717857796493649400,0.6956494140625,0.00011172005906701088,0.0010122153908014297,-0.0005142646841704845
1717857796503690500,0.7056904296875,0.000577821396291256,-0.00013534072786569595,0.000256185419857502
1717857796513731600,0.715731689453125,-0.00005148351192474365,-0.00027249380946159363,-0.0013960395008325577
1717857796523772400,0.7257724609375,-0.0007002202328294516,-0.0008805803954601288,0.001334535889327526
1717857796533813500,0.7358134765625,0.0006851563230156898,-0.0009495560079813004,0.0003060228191316128
1717857796543853600,0.745853515625,0.001039006281644106,-0.0011905906721949577,-0.0009050737135112286
1717857796553894400,0.755894287109375,0.001020896714180708,0.001029154285788536,-0.00033861957490444183
1717857796563935500,0.765935546875,-0.0015873289667069912,-0.000005796551704406738,-0.000314916018396616
1717857796573976600,0.7759765625,0.00024998607113957405,0.0008381595835089684,-0.0008888272568583488
1717857796584017400,0.786017333984375,0.0005276193842291832,-0.00010529253631830215,-0.0008924552239477634
1717857796594057500,0.796057373046875,0.00015957048162817955,-0.002045671921223402,0.0015331520698964596
1717857796604098600,0.8060986328125,-0.0002517660614103079,-0.0010148817673325539,-0.000051505398005247116
1717857796614139600,0.8161396484375,0.0006582359783351421,-0.0009520305320620537,0.0006547649390995502
1717857796624180500,0.826180419921875,0.0011832043528556824,-0.0013432810083031654,0.0007651499472558498
1717857796634221600,0.8362216796875,-0.0014541242271661758,-0.0002561789005994797,0.0008397181518375874
1717857796644262700,0.8462626953125,-0.0011809691786766052,-0.00023031607270240784,-0.0004988089203834534
1717857796654302700,0.856302734375,0.0008709966205060482,-0.0006971685215830803,0.00011504953727126122
1717857796664343600,0.866343505859375,0.00003528827801346779,-0.000046275556087493896,-0.00003900239244103432
1717857796674384600,0.876384521484375,0.0012076115235686302,-0.001111806370317936,0.000885913148522377
1717857796684425500,0.886425537109375,0.0005961987189948559,0.0002865055575966835,-0.00003856141120195389
1717857796694466600,0.896466552734375,-0.0011135507375001907,0.0006223302334547043,0.0007228362374007702
1717857796704506400,0.90650634765625,0.000021389685571193695,-0.0008122846484184265,0.0009966278448700905
1717857796714547500,0.91654736328125,-0.0011269652750343084,0.0009392760694026947,0.000895428005605936
1717857796724588300,0.92658837890625,-0.0002905221190303564,0.000018493272364139557,0.0008272645063698292
1717857796734629400,0.93662939453125,0.0009529078379273415,-0.0006294539198279381,-0.00048753805458545685
1717857796744670500,0.94667041015625,-0.0014994458761066198,-0.000506056472659111,-0.00011764280498027802
1717857796754710500,0.95671044921875,-0.0010285989847034216,0.00022817682474851608,0.0010919650085270405
1717857796764751400,0.96675146484375,-0.00030244304798543453,0.00041173771023750305,-0.00008805887773633003
1717857796774792400,0.97679248046875,0.0006086244247853756,-0.0012183832004666328,0.0002959687262773514
1717857796784833500,0.98683349609375,-0.0004909508861601353,-0.0013470137491822243,0.0011498047970235348
1717857796794874400,0.996874267578125,0.0014840494841337204,0.0001169256865978241,0.0005303532816469669
1717857796804914400,1.00691455078125,-0.0015310884919017553,0.0000390494242310524,-0.00008888263255357742
1717857796814955500,1.01695556640625,0.00016374699771404266,0.0012148357927799225,0.00013455655425786972
1717857796824996400,1.026996337890625,-0.0006241828668862581,0.000576329417526722,-0.0003937967121601105
1717857796835037400,1.037037353515625,-0.0012236603070050478,-0.002640769351273775,-0.0006087138317525387
1717857796845078500,1.04707861328125,0.00021198252215981483,0.0005816332995891571,0.0004613688215613365
1717857796855119400,1.057119384765625,-0.00033929175697267056,0.0005483431741595268,0.00018200324848294258
1717857796865159400,1.067159423828125,0.0016652895137667656,0.001168358139693737,0.0017881239764392376
1717857796875200500,1.077200439453125,0.0004343767650425434,0.0008429195731878281,0.0005268510431051254
1717857796885241600,1.08724169921875,-0.0012785494327545166,-0.0011867191642522812,0.0017387755215168
1717857796895282400,1.097282470703125,-0.0001672122161835432,0.00036563724279403687,0.0005704467184841633
1717857796905323500,1.107323486328125,-0.0005665011703968048,0.0015752995386719704,-0.0004802714101970196
1717857796915363600,1.117363525390625,-0.0008032561745494604,-0.0005051614716649055,-0.000910105649381876
1717857796925404700,1.12740478515625,0.00017953850328922272,-0.0015316121280193329,0.0016957982443273067
1717857796935445500,1.137445556640625,0.00031216349452733994,-0.0002253316342830658,0.00012080511078238487
1717857796945486600,1.147486572265625,0.0016035819426178932,-0.000819067470729351,0.0002441653050482273
1717857796955527400,1.15752734375,-0.0003080349415540695,-0.00013809744268655777,0.0001291166990995407
1717857796965568500,1.167568603515625,0.0009092185646295547,-0.0019511948339641094,0.002060765167698264
1717857796975608600,1.177608642578125,0.0019390629604458809,-0.0035477597266435623,-0.0002572499215602875
1717857796985649700,1.187649658203125,0.0005864584818482399,0.0019551003351807594,0.0003420766443014145
1717857796995690500,1.1976904296875,-0.00045883236452937126,0.00030580535531044006,0.0006158496253192425
1717857797005731600,1.207731689453125,-0.000056957127526402473,0.0007205521687865257,-0.00032247602939605713
1717857797015772700,1.217772705078125,0.0009342716075479984,-0.0011870702728629112,0.000665023922920227
1717857797025812500,1.2278125,-0.000014517456293106079,0.0008806483820080757,0.00003244122490286827
1717857797035853300,1.237853271484375,0.0017703333869576454,-0.000005652196705341339,0.0011147502809762955
1717857797045894400,1.247894287109375,-0.00018053618259727955,-0.0014423122629523277,0.0006965836510062218
1717857797055935500,1.257935546875,-0.000199977308511734,0.000008578412234783173,-0.00030982494354248047
1717857797065976300,1.267976318359375,0.0005237958393990993,-0.0007821172475814819,-0.000359527301043272
1717857797076016400,1.278016357421875,-0.0007537226192653179,-0.00048091355711221695,-0.00012490293011069298
1717857797086057500,1.288057373046875,0.0005228999070823193,0.00045929010957479477,-0.0002383342944085598
1717857797096098300,1.298098388671875,0.0007383497431874275,-0.0010363413020968437,-0.000732883345335722
1717857797106139400,1.308139404296875,-0.00029141176491975784,0.0003721732646226883,0.0002674506977200508
1717857797116180500,1.318180419921875,0.0002966141328215599,-0.0006643291562795639,-0.0004710438661277294
1717857797126220500,1.328220458984375,0.0002511013299226761,0.0009818058460950851,0.0009093903936445713
1717857797136261400,1.338261474609375,0.0014111744239926338,0.00025902409106492996,-0.001211285125464201
1717857797146302500,1.348302490234375,0.0006412086077034473,-0.0024573123082518578,0.0002832254394888878
1717857797156343600,1.358343505859375,0.0007938076741993427,-0.000798163004219532,0.00037537096068263054
1717857797166384400,1.36838427734375,-0.0011975702363997698,-0.0007476517930626869,-0.0007466101087629795
1717857797176425200,1.37842529296875,0.0005406751297414303,0.0005895206704735756,-0.0007948130369186401
1717857797186465300,1.38846533203125,-0.0009445024188607931,0.0004855692386627197,-0.0000321120023727417
1717857797196506400,1.39850634765625,-0.00006246357224881649,0.0008062142878770828,0.001114645041525364
1717857797206547200,1.408547119140625,-0.00008603138849139214,0.0006578462198376656,0.000675019808113575
1717857797216588300,1.41858837890625,-0.0014716743025928736,-0.0004931725561618805,0.0008366741240024567
1717857797226629400,1.42862939453125,0.0013046003878116608,0.00003581959754228592,0.00018568430095911026
1717857797236669200,1.438669189453125,0.0006055207923054695,-0.00021158810704946518,-0.0006601354107260704
1717857797246710300,1.448710205078125,0.0007095099426805973,-0.0011999141424894333,-0.000854316633194685
1717857797256751400,1.45875146484375,0.0003502494655549526,0.0015700403600931168,-0.00027667684480547905
1717857797266792200,1.468792236328125,-0.00018150615505874157,0.0002826312556862831,0.0020539371762424707
1717857797276833300,1.478833251953125,-0.0001900282222777605,-0.0020090192556381226,-0.00040549226105213165
1717857797286873300,1.488873291015625,0.0002743443474173546,0.0001181531697511673,0.0010283845476806164
1717857797296914400,1.49891455078125,0.0005483836866915226,-0.00030608847737312317,-0.0002613845281302929
1717857797306955300,1.508955322265625,-0.0010462903883308172,-0.0007963571697473526,-0.0013369549997150898
1717857797316996400,1.518996337890625,-0.00026225578039884567,-0.0014112810604274273,0.0002087433822453022
1717857797327037400,1.529037353515625,0.0006264545954763889,0.0008962312713265419,0.001014356967061758
1717857797337077500,1.539077392578125,0.00035987235605716705,-0.0002931365743279457,-0.00035903556272387505
1717857797347118300,1.549118408203125,-0.0008672999683767557,-0.0004621632397174835,0.001327422447502613
1717857797357159400,1.559159423828125,0.0013942564837634563,0.0002499660477042198,-0.0006425180472433567
1717857797367200300,1.5692001953125,-0.0015163673087954521,-0.00028062425553798676,0.000175482127815485
1717857797377241300,1.579241455078125,0.00020030653104186058,0.0002634599804878235,-0.0006913770921528339
1717857797387282400,1.589282470703125,0.0006983354687690735,-0.0008960254490375519,-0.0001325448974967003
1717857797397322200,1.599322265625,-0.0001879644114524126,-0.0001988094300031662,0.0003151325508952141
1717857797407363000,1.609363037109375,-0.0008571133948862553,0.0016335230320692062,-0.0007064081728458405
1717857797417404200,1.619404052734375,0.00006833486258983612,-0.00016411114484071732,0.001077377237379551
1717857797427445200,1.6294453125,-0.0020029516890645027,-0.001271919347345829,-0.0007432517595589161
1717857797437486000,1.639486083984375,0.0006253221072256565,0.0002503432333469391,-0.0012069083750247955
1717857797447526100,1.649526123046875,0.001896524801850319,0.0006134612485766411,-0.0008067404851317406
1717857797457567200,1.659567138671875,0.00041021453216671944,0.00001664739102125168,-0.00025653140619397163
1717857797467608300,1.6696083984375,-0.0005208684597164392,-0.0004861094057559967,-0.000041163526475429535
1717857797477649200,1.679649169921875,-0.0020061135292053223,-0.000951896421611309,-0.0007261284627020359
1717857797487690200,1.689690185546875,0.0008272994309663773,0.0006568878889083862,-0.0015666983090341091
1717857797497730300,1.699730224609375,0.00013354606926441193,0.0008947085589170456,-0.0008684173226356506
1717857797507771100,1.709771240234375,-0.0010760743170976639,-0.00007547717541456223,-0.00026615429669618607
1717857797517812200,1.719812255859375,0.000520756933838129,-0.0000467151403427124,0.00007899152114987373
1717857797527853300,1.729853271484375,0.000528309028595686,-0.0010403040796518326,-0.0004588952288031578
1717857797537894100,1.73989404296875,-0.0003878180868923664,0.00029314029961824417,-0.0008200197480618954
1717857797547935200,1.749935302734375,-0.0008156243711709976,0.00013235770165920258,0.00002042064443230629
1717857797557975300,1.759975341796875,-0.0007053695153445005,-0.0008562076836824417,0.0004127044230699539
1717857797568016400,1.770016357421875,-0.0014619571156799793,0.000007749535143375397,0.0004256805405020714
1717857797578057200,1.78005712890625,0.0015074675902724266,-0.00005962885916233063,0.0013897446915507317
1717857797588098300,1.790098388671875,0.0002759578637778759,0.00013100635260343552,-0.00013007083907723427
1717857797598139400,1.800139404296875,0.0015316382050514221,0.00031263381242752075,0.0003745979629456997
1717857797608179500,1.810179443359375,0.0014817854389548302,0.000017566606402397156,-0.0004752487875521183
1717857797618220300,1.82022021484375,0.0002492745406925678,0.0007579252123832703,-0.00031199725344777107
1717857797628261400,1.830261474609375,0.000784742645919323,0.0015483526512980461,-0.0003465288318693638
1717857797638302200,1.84030224609375,0.000489397905766964,-0.0003432910889387131,-0.0009244349785149097
1717857797648343300,1.85034326171875,0.000641929917037487,-0.0010322192683815956,0.00008591311052441597
1717857797658383400,1.86038330078125,-0.00025289226323366165,-0.001413317397236824,-0.0012866798788309097
1717857797668424400,1.870424560546875,0.0009464332833886147,0.0014319010078907013,0.0012066341005265713
1717857797678465300,1.88046533203125,-0.0016301749274134636,0.00018900446593761444,-0.00010470673441886902
1717857797688506400,1.89050634765625,-0.000815453939139843,0.00020465534180402756,0.0016851574182510376
1717857797698547500,1.90054736328125,-0.0005640515591949224,-0.00040733907371759415,-0.0004885150119662285
1717857797708588300,1.91058837890625,0.000050486065447330475,-0.0007795104756951332,0.0004712599329650402
1717857797718628000,1.920628173828125,0.000207612756639719,-0.001696969848126173,0.0007287878543138504
1717857797728669200,1.930669189453125,0.0009300024248659611,-0.0000585261732339859,-0.0006596692837774754
1717857797738710300,1.940710205078125,0.0006226738914847374,0.0019644107669591904,0.00036351708695292473
1717857797748751000,1.950751220703125,0.0015588095411658287,-0.0014079664833843708,0.00026783766224980354
1717857797758792400,1.96079248046875,0.0008370927534997463,-0.00006546732038259506,0.0010856944136321545
1717857797768832300,1.970832275390625,-0.0004571019671857357,0.0018709609284996986,-0.0000744890421628952
1717857797778873000,1.980873046875,0.0011056410148739815,0.000675734132528305,0.0006933002732694149
1717857797788914200,1.9909140625,-0.0001150218304246664,0.0005040327087044716,0.0007579638622701168
1717857797798955300,2.000955322265625,0.0008517056703567505,0.001963178627192974,-0.00021222559735178947
1717857797808996000,2.01099609375,0.000993136316537857,-0.0001774551346898079,0.001187622081488371
1717857797819036200,2.0210361328125,0.0006442624144256115,0.0009362790733575821,-0.0010145455598831177
1717857797829077200,2.0310771484375,0.0012949863448739052,0.0019046273082494736,0.000350290909409523
1717857797839118300,2.041118408203125,0.00025795167312026024,-0.000577438622713089,-0.00009312527254223824
1717857797849159200,2.0511591796875,-0.001821806188672781,0.00010989326983690262,0.00016868207603693008
1717857797859200300,2.0612001953125,-0.00024494854733347893,-0.0000653434544801712,-0.00037433626130223274
1717857797869241300,2.071241455078125,-0.0014547694008797407,0.001991838216781616,0.0005363230593502522
1717857797879281400,2.081281494140625,-0.0010507677216082811,-0.0003602653741836548,-0.00008499249815940857
1717857797889322200,2.091322265625,-0.0009073480032384396,0.0013774093240499496,-0.0016148211434483528
1717857797899363300,2.10136328125,-0.0002729829866439104,0.0007515670731663704,-0.0007109441794455051
1717857797909404200,2.111404052734375,-0.001441147644072771,0.0008421475067734718,0.0006218217313289642
1717857797919445200,2.1214453125,-0.0000810711644589901,-0.0006843768060207367,0.0007403325289487839
1717857797929485300,2.1314853515625,-0.0004784930497407913,-0.00020797457545995712,-0.0002015898935496807
1717857797939526400,2.1415263671875,-0.0006116512231528759,0.0012405188754200935,0.0006282511167228222
1717857797949567200,2.151567138671875,-0.0003006404731422663,-0.0018469146452844143,-0.001587501261383295
1717857797959608300,2.1616083984375,0.0019856831058859825,0.0009390180930495262,9.313225746154785e-9
1717857797969649400,2.1716494140625,-0.0004770183004438877,0.00006307847797870636,0.0009831623174250126
1717857797979689500,2.181689453125,0.0009634853340685368,-0.0007017813622951508,-0.00013429997488856316
1717857797989730300,2.191730224609375,-0.001494874246418476,-0.0011168727651238441,0.001667305827140808
1717857797999771400,2.201771484375,-0.00034838332794606686,0.00024320371448993683,-0.00028905225917696953
1717857798009812500,2.2118125,-0.00027611665427684784,0.0004996610805392265,-0.000040681567043066025
1717857798019853300,2.221853271484375,-0.0003522830083966255,0.0007582539692521095,0.0005705137737095356
1717857798029893400,2.231893310546875,-0.00021752272732555866,-0.0013365764170885086,0.000207503791898489
1717857798039934500,2.2419345703125,-0.00031792372465133667,-0.0006958199664950371,0.0011830194853246212
1717857798049975300,2.251975341796875,-0.0008583532180637121,-0.0008354969322681427,0.00032487744465470314
1717857798060016400,2.262016357421875,-0.00023330934345722198,-0.0005119228735566139,-0.00012732716277241707
1717857798070057500,2.272057373046875,-0.00012870784848928452,-0.0007461495697498322,0.0012074979022145271
1717857798080098300,2.282098388671875,0.00027023348957300186,0.00030153803527355194,-0.0004657660610973835
1717857798090138000,2.29213818359375,0.0016685090959072113,-0.0004481971263885498,-0.0001373826526105404
1717857798100179200,2.30217919921875,0.0006352025084197521,0.0012495685368776321,0.0033018237445503473
1717857798110220300,2.31222021484375,0.0002745385281741619,0.001271851360797882,0.0004349108785390854
1717857798120261000,2.32226123046875,-0.0008178902789950371,0.0018705297261476517,0.0032914176117628813
1717857798130302200,2.33230224609375,-0.0008047805167734623,-0.0010501528158783913,-0.0011276649311184883
1717857798140342300,2.34234228515625,0.00037286942824721336,-0.0012307153083384037,-0.002076017204672098
1717857798150383400,2.35238330078125,-0.00036156177520751953,0.0010362723842263222,-0.0015077474527060986
1717857798160424200,2.362424072265625,0.0009718830697238445,0.0008655637502670288,0.0006597992032766342
1717857798170465300,2.37246533203125,-0.0008827885612845421,-0.00017206557095050812,0.0012470697984099388
1717857798180506600,2.382506591796875,0.000746001023799181,-0.00007166434079408646,-0.0001878412440419197
1717857798190547700,2.392547607421875,-0.0018538418225944042,-0.0015517696738243103,-0.0012758942320942879
1717857798200587800,2.402587890625,-0.0014588949270546436,-0.000024713575839996338,-0.00020051002502441406
1717857798210628900,2.41262890625,-0.0018112335819751024,0.00013402104377746582,0.001031382940709591
1717857798220669700,2.422669677734375,-0.0009515651036053896,0.0010879654437303543,0.0007592081092298031
1717857798230710800,2.432710693359375,0.00046061817556619644,-0.00016339682042598724,-0.0012383232824504375
1717857798240751600,2.442751708984375,-0.0013990672305226326,0.00031304266303777695,0.0007161707617342472
1717857798250791400,2.45279150390625,0.00009257765486836433,0.0005403412505984306,-0.0005664462223649025
1717857798260832500,2.46283251953125,-0.00009757233783602715,0.0003475276753306389,-0.00019866367802023888
1717857798270873600,2.47287353515625,0.0005806833505630493,-0.0005995891988277435,0.0002949819900095463
1717857798280914400,2.48291455078125,-0.00037911999970674515,-0.0003231531009078026,0.0006585037335753441
1717857798290955500,2.49295556640625,0.00026973895728588104,-0.002009037882089615,-0.0012012333609163761
1717857798300995600,2.50299560546875,0.00009743217378854752,0.00032389163970947266,-0.0015277368947863579
1717857798311036700,2.51303662109375,-0.0005816365592181683,0.0006850510835647583,0.0008676331490278244
1717857798321077500,2.523077392578125,0.000169374980032444,0.00024349894374608994,-0.0012293397448956966
1717857798331118600,2.53311865234375,-0.0004835620056837797,-0.000007790513336658478,0.00017956364899873734
1717857798341159700,2.54315966796875,-0.001213268144056201,-0.0003031352534890175,-0.0007413574494421482
1717857798351199700,2.55319970703125,-0.001234923955053091,-0.0011772392317652702,0.0008750436827540398
1717857798361240600,2.563240478515625,-0.0005377084016799927,-0.0008669812232255936,0.0004529329016804695
1717857798371281700,2.57328173828125,-0.0009414260275661945,-0.00011833664029836655,0.0005904310382902622
1717857798381322500,2.583322509765625,-0.00022050831466913223,-0.0008826637640595436,0.0007081427611410618
1717857798391363600,2.593363525390625,0.0009791040793061256,-0.0005350718274712563,-0.0014016465283930302
1717857798401404700,2.60340478515625,0.001134632620960474,-0.00010497123003005981,-0.001201909501105547
1717857798411444700,2.61344482421875,0.0006891703233122826,-0.0010894453153014183,-0.00031813792884349823
1717857798421485600,2.623485595703125,0.00045294780284166336,-0.0016063652001321316,0.0003045089542865753
1717857798431526700,2.633526611328125,-0.001094364793971181,-0.0004855254665017128,-0.00016545504331588745
1717857798441567700,2.643567626953125,0.00044414354488253593,0.00007986370474100113,-0.001035509631037712
1717857798451608600,2.653608642578125,-0.0009871055372059345,-0.0010680817067623138,-0.0005265953950583935
1717857798461648600,2.663648681640625,-0.0011335795279592276,-0.00023184902966022491,0.00017488142475485802
1717857798471689700,2.673689697265625,-0.0008374950848519802,-0.00044949352741241455,-0.0005893618799746037
1717857798481730800,2.683730712890625,-0.0003360218834131956,0.0005952641367912292,-0.0009646015241742134
1717857798491771600,2.693771728515625,0.0006074602715671062,0.0013970322906970978,-0.0011357753537595272
1717857798501812700,2.703812744140625,-0.0007259845733642578,-0.000015508383512496948,0.0005747731775045395
1717857798511853600,2.713853515625,-0.0005317984614521265,0.00043373461812734604,-0.0007508504204452038
1717857798521893600,2.7238935546875,0.0002935151569545269,0.0017983391880989075,0.000659027136862278
1717857798531934700,2.733934814453125,0.00018895091488957405,-0.0002738684415817261,-0.00042097410187125206
1717857798541975800,2.743975830078125,-0.0000528641976416111,0.00024837814271450043,0.00013749068602919579
1717857798552016600,2.7540166015625,-0.001631093444302678,-0.0011255089193582535,0.0006537451408803463
1717857798562057700,2.7640576171875,-0.0008220251183956861,0.0005605388432741165,0.0006622672080993652
1717857798572097500,2.77409765625,-0.0013197259977459908,0.00042224209755659103,0.0001260540448129177
1717857798582138600,2.784138671875,-0.0005058639217168093,0.000007854774594306946,-0.00018580211326479912
1717857798592179700,2.7941796875,0.0000742538832128048,0.00005009397864341736,-0.00008769752457737923
1717857798602220800,2.804220703125,0.00019809091463685036,-0.00016588810831308365,0.00031523872166872025
1717857798612262000,2.814261962890625,-0.00004430301487445831,-0.0008049784228205681,0.0007657818496227264
1717857798622301700,2.8243017578125,-0.00032420153729617596,0.001183338463306427,0.0007399492897093296
1717857798632342500,2.834342529296875,0.00017808377742767334,-0.00038115959614515305,-0.0017530531622469425
1717857798642383600,2.844383544921875,0.0007794257253408432,-0.00012389756739139557,0.00031462498009204865
1717857798652424400,2.854424560546875,-0.00028160796500742435,0.000019838102161884308,0.0003965483047068119
1717857798662465500,2.864465576171875,-0.00043234298937022686,0.00039507728070020676,-0.0017920373938977718
1717857798672506600,2.874506591796875,-0.000265318900346756,-0.0004685325548052788,-0.0007663075812160969
1717857798682546700,2.884546630859375,-0.00015772739425301552,0.000341867096722126,0.000565272755920887
1717857798692587500,2.89458740234375,-0.0013256794773042202,-0.00019935797899961472,0.00038446206599473953
1717857798702628600,2.904628662109375,0.00014704884961247444,-0.0007184082642197609,0.00004091393202543259
1717857798712669700,2.914669677734375,-0.0002176275011152029,0.000096944160759449,0.00021856185048818588
1717857798722710500,2.92471044921875,0.0008782632648944855,-0.0005552647635340691,-0.0015582996420562267
1717857798732750600,2.93475048828125,0.00014430517330765724,-0.00016305968165397644,-0.00019549019634723663
1717857798742791700,2.944791748046875,-0.0018677131738513708,-0.00041366275399923325,-0.0005068141035735607
1717857798752832800,2.954832763671875,0.00006903382018208504,-0.00032430700957775116,0.0008581322617828846
1717857798762873600,2.96487353515625,-0.0006236543413251638,-0.0006177881732583046,-0.0006920937448740005
1717857798772914700,2.974914794921875,-0.0002475515939295292,0.0005454029887914658,0.00017757387831807137
1717857798782955500,2.98495556640625,0.0005186395719647408,-0.00039256270974874496,-0.0013939575292170048
1717857798792995600,2.99499560546875,-0.00041775754652917385,-0.00034448597580194473,0.0008549527265131474
1717857798803036700,3.00503662109375,-0.00038286997005343437,-0.0003338335081934929,-0.0006867512129247189
1717857798813077800,3.015077880859375,-0.0005083333235234022,0.0006401091814041138,0.0006279200315475464
1717857798823118600,3.02511865234375,0.00115214753895998,-0.0013178465887904167,0.0006095441058278084
1717857798833159700,3.03515966796875,-0.0002699254546314478,0.000050671398639678955,0.00006681634113192558
1717857798843199700,3.04519970703125,0.0007308903150260448,0.00022990163415670395,-0.000867154449224472
1717857798853240800,3.05524072265625,0.0004361378960311413,-0.0004414524883031845,-0.0010987967252731323
1717857798863281700,3.06528173828125,0.0003173607401549816,-0.00021242070943117142,0.00005195522680878639
1717857798873322800,3.07532275390625,0.00001210719347000122,-0.000029246322810649872,-0.0017397310584783554
1717857798883363800,3.08536376953125,-0.0007897706236690283,-0.00009236391633749008,-0.00042066769674420357
1717857798893403600,3.095403564453125,-0.0005604203324764967,0.0003915177658200264,-0.00005624815821647644
1717857798903444700,3.10544482421875,-0.00044883391819894314,0.0014400044456124306,-0.00030898209661245346
1717857798913485800,3.11548583984375,0.0009880508296191692,-0.0012232130393385887,-0.00007893657311797142
1717857798923526700,3.125526611328125,0.000818407628685236,-0.0008655507117509842,0.00012266496196389198
1717857798933567700,3.135567626953125,-0.00025019189342856407,0.000047573819756507874,0.0001997179351747036
1717857798943608800,3.14560888671875,0.00008696410804986954,0.000812433660030365,0.002073251875117421
1717857798953648600,3.155648681640625,-0.000890874769538641,-0.0013086805120110512,0.00044901156798005104
1717857798963689500,3.165689453125,0.000023121945559978485,0.0007078656926751137,0.0009677950292825699
1717857798973730600,3.17573046875,0.0003999178297817707,-0.0006821490824222565,-0.0003105970099568367
1717857798983771600,3.185771728515625,-0.001696788938716054,0.00017299223691225052,0.00018555019050836563
1717857798993812500,3.1958125,-0.0009743731934577227,-0.0010613128542900085,-0.00043265800923109055
1717857799003852500,3.2058525390625,-0.0004840854089707136,0.0004614824429154396,0.0001074313186109066
1717857799013893600,3.2158935546875,0.0010358896106481552,-0.0013521276414394379,0.0002886820584535599
1717857799023934700,3.225934814453125,-0.00014708656817674637,0.0003472352400422096,-0.0008844402618706226
1717857799033975600,3.2359755859375,-0.0013927011750638485,0.00042458903044462204,0.00018659885972738266
1717857799044016600,3.2460166015625,0.0004259715788066387,0.0008264603093266487,-0.0006906464695930481
1717857799054057500,3.256057373046875,-0.002907007932662964,-0.00017774850130081177,0.0018194597214460373
1717857799064097500,3.26609765625,0.0012869383208453655,0.00009096413850784302,0.00043035484850406647
1717857799074138600,3.276138671875,0.0009387172758579254,0.000011621974408626556,-0.00022402266040444374
1717857799084179700,3.2861796875,-0.0007420035544782877,-0.00017160363495349884,0.00014109676703810692
1717857799094220500,3.296220458984375,0.00015640398487448692,-0.00017924699932336807,-0.0016293278895318508
1717857799104261600,3.30626171875,0.0004669283516705036,-0.0007134769111871719,0.0009685857221484184
1717857799114301700,3.3163017578125,0.0012857024557888508,-0.0002468060702085495,-0.0015776478685438633
1717857799124342800,3.3263427734375,-0.0021500415168702602,-0.0007458822801709175,-0.0003760294057428837
1717857799134383600,3.336383544921875,-0.0010304632596671581,-0.0016289912164211273,0.00016504386439919472
1717857799144424700,3.3464248046875,-0.0013138237409293652,-0.0010886359959840775,-0.0002605291083455086
1717857799154465800,3.3564658203125,-0.0013422928750514984,0.00008885841816663742,-0.0007895585149526596
1717857799164505600,3.366505615234375,-0.001733244862407446,-0.0001263245940208435,-0.0005402867682278156
1717857799174546700,3.376546630859375,0.0002925288863480091,-0.0012424569576978683,0.00046750670298933983
1717857799184587300,3.386587158203125,-0.0007508976850658655,-0.0032837698236107826,0.0007167784497141838
1717857799194628400,3.39662841796875,0.0001912103034555912,0.00009733624756336212,0.0016104839742183685
1717857799204669200,3.406669189453125,-0.0019776683766394854,0.001001213677227497,0.001462678425014019
1717857799214710300,3.416710205078125,0.0005257748998701572,-0.00034880824387073517,0.0007433481514453888
1717857799224750300,3.426750244140625,0.00032523926347494125,-0.001455085352063179,-0.0008558803237974644
1717857799234791200,3.436791259765625,0.0008397409692406654,-0.0010329866781830788,-0.00007974496111273766
1717857799244832300,3.446832275390625,-0.000457484507933259,-0.00039436109364032745,0.0010600876994431019
1717857799254873300,3.456873291015625,-0.00015237880870699883,0.0008778618648648262,0.0005511133931577206
1717857799264914200,3.4669140625,-0.001028292579576373,0.0005444344133138657,-0.0003098864108324051
1717857799274954200,3.476954345703125,-0.000054581090807914734,-0.0012464113533496857,0.000148845836520195
1717857799284995300,3.486995361328125,-0.0010905510280281305,-0.00006982684135437012,-0.0006037633866071701
1717857799295036400,3.497036376953125,-0.0007364482153207064,-0.0007461290806531906,0.0006019109860062599
1717857799305077200,3.5070771484375,0.000368230976164341,0.0004546903073787689,0.0009361375123262405
1717857799315118300,3.517118408203125,-0.0002686276566237211,-0.0022898674942553043,0.0008585583418607712
1717857799325159400,3.527159423828125,-0.000410574022680521,-0.00045415107160806656,0.0010734754614531994
1717857799335199200,3.53719921875,0.00010466855019330978,0.0007059415802359581,-0.000014645513147115707
1717857799345240300,3.547240234375,-0.0005520670674741268,-0.0005220416933298111,0.00016378611326217651
1717857799355281400,3.557281494140625,0.0000746455043554306,-0.00010640174150466919,0.001417855266481638
1717857799365322200,3.567322265625,-0.00046331295743584633,-0.00001132674515247345,0.0012231781147420406
1717857799375363300,3.57736328125,-0.000059510115534067154,-0.0005397601053118706,0.0005052811466157436
1717857799385403400,3.5874033203125,0.00010960083454847336,-0.0008811773732304573,-0.0004920726642012596
1717857799395444500,3.597444580078125,-0.00015657558105885983,-0.0002504652366042137,0.0002894280478358269
1717857799405485300,3.6074853515625,0.0007166750729084015,-0.0003663124516606331,-0.00047942670062184334
1717857799415526400,3.6175263671875,-0.00040643964894115925,-0.0005392413586378098,0.0003455318510532379
1717857799425567500,3.6275673828125,-0.0005401303060352802,-0.00036107562482357025,0.000044061802327632904
1717857799435608300,3.6376083984375,-0.0008146550972014666,-0.0011549768969416618,0.0010026199743151665
1717857799445648100,3.647648193359375,-0.00034034624695777893,0.0012666359543800354,0.000079302117228508
1717857799455689200,3.657689208984375,0.0003791595809161663,-0.0009538959711790085,-0.00013921922072768211
1717857799465730300,3.667730224609375,-0.0008213936816900969,-0.0009246012195944786,0.0002743694931268692
1717857799475771100,3.677771240234375,0.0001879003830254078,-0.00009188521653413773,0.0010486096143722534
1717857799485812200,3.687812255859375,0.0003255857154726982,-0.0010154694318771362,0.00087790098041296
1717857799495852300,3.697852294921875,-0.000905066030099988,-0.0000900542363524437,0.0005339761264622211
1717857799505893000,3.70789306640625,0.00030134571716189384,0.0006806645542383194,0.00022345129400491714
1717857799515934200,3.717934326171875,0.000556556973606348,0.00048302579671144485,-0.001447934191673994
1717857799525975300,3.727975341796875,0.001101972535252571,-0.001182781532406807,-0.0003717509098351002
1717857799536016100,3.73801611328125,0.00013652676716446877,0.00025268271565437317,0.0005254680290818214
1717857799546057200,3.74805712890625,-0.0006064949557185173,0.0002771839499473572,-0.0005674934946000576
1717857799556097300,3.75809716796875,-0.0009590925183147192,-0.000977138988673687,-0.000006416812539100647
1717857799566138400,3.768138427734375,0.0006678327918052673,0.00043060723692178726,0.00011049583554267883
1717857799576179200,3.77817919921875,-0.000155244255438447,0.00005911197513341904,0.0012803603895008564
1717857799586220300,3.78822021484375,-0.00045618158765137196,-0.00027990899980068207,0.0007381406612694263
1717857799596261400,3.798261474609375,-0.000526221701875329,0.0017701946198940277,0.0021738430950790644
1717857799606301200,3.80830126953125,-0.001177364494651556,-0.0009371750056743622,0.0004853988066315651
1717857799616342300,3.81834228515625,-0.0007428517565131187,-0.0003456808626651764,-0.0007521999068558216
1717857799626383400,3.82838330078125,0.0007338710129261017,-0.0009270487353205681,0.0014369185082614422
1717857799636424200,3.838424072265625,-0.001708830939605832,0.0008712839335203171,-0.0011434657499194145
1717857799646465300,3.84846533203125,0.000248592346906662,-0.0006152922287583351,-0.00019404897466301918
1717857799656506400,3.85850634765625,0.000022436492145061493,-0.0005573621019721031,-0.00020969659090042114
1717857799666546400,3.86854638671875,0.0008618650026619434,-0.0010942555963993073,0.00160258449614048
1717857799676587300,3.878587158203125,-0.000013256445527076721,-0.0009079119190573692,0.002308566588908434
1717857799686628400,3.88862841796875,0.0007057972252368927,-0.0008184295147657394,0.00023396406322717667
1717857799696669400,3.89866943359375,0.0007663932628929615,-0.0006309347227215767,0.001116954255849123
1717857799706710300,3.908710205078125,-0.000011515803635120392,-0.00008871499449014664,0.0005560927093029022
1717857799716750300,3.918750244140625,0.0002745185047388077,0.0002938704565167427,-0.0007062628865242004
1717857799726791400,3.92879150390625,-0.0004410729743540287,0.0002970658242702484,-0.0001153075136244297
1717857799736832300,3.938832275390625,-0.0003658272325992584,-0.00046561844646930695,-0.00009308755397796631
1717857799746873300,3.948873291015625,0.000566279049962759,-0.0008541736751794815,0.0004416750743985176
1717857799756914400,3.95891455078125,-0.0011924130376428366,0.00036551058292388916,-0.0004509240388870239
1717857799766955300,3.968955322265625,0.0007274597883224487,-0.0006800470873713493,-0.00004186248406767845
1717857799776995000,3.9789951171875,0.0009507918730378151,-0.0005437377840280533,-0.000004590954631567001
1717857799787036200,3.9890361328125,0.00026529422029852867,0.0003265831619501114,-0.0014600087888538837
1717857799797077200,3.9990771484375,-0.0014123562723398209,-0.0007509859278798103,0.00003689108416438103
1717857799807118000,4.0091181640625,-0.0003779844846576452,0.00035449210554361343,0.001420936081558466
1717857799817159200,4.0191591796875,0.0002867933362722397,-0.00013101845979690552,0.0010284441523253918
1717857799827199200,4.02919921875,-0.00007726065814495087,-0.0005264980718493462,-0.00007010996341705322
1717857799837240300,4.039240234375,-0.0021910760551691055,-0.0006193928420543671,0.0003639059141278267
1717857799847281200,4.04928125,-0.0005388506688177586,-0.0001269746571779251,0.0013567321002483368
1717857799857322200,4.059322265625,-0.001141279237344861,-0.0007544588297605515,0.0003994787111878395
1717857799867363300,4.06936328125,-0.0009484663605690002,0.00022718217223882675,-0.0005217087455093861
1717857799877404200,4.079404052734375,-0.0007465488743036985,0.0007114307954907417,0.00045017339289188385
1717857799887444200,4.0894443359375,0.0009256498888134956,0.0009564412757754326,-0.0005184183828532696
1717857799897485300,4.0994853515625,-0.0005753410514444113,0.0003288751468062401,0.0008865445852279663
1717857799907526100,4.109526123046875,-0.0007234129589051008,-0.0010852636769413948,0.00024152686819434166
1717857799917567200,4.119567138671875,0.00016156118363142014,0.0004908917471766472,0.000777222216129303
1717857799927608300,4.1296083984375,0.001480624545365572,0.0005633300170302391,-0.00047845812514424324
1717857799937648400,4.1396484375,-0.0017458009533584118,0.0006552692502737045,0.0004575462080538273
1717857799947689200,4.149689208984375,0.0001988392323255539,-0.00005978904664516449,0.0006655389443039894
1717857799957730300,4.159730224609375,-0.0001431556884199381,0.00024642981588840485,0.0018470725044608116
1717857799967771400,4.169771484375,0.0006177094765007496,0.0011878572404384613,0.0011501233093440533
1717857799977812200,4.179812255859375,-0.0003001457080245018,-0.0003292188048362732,0.0005718548782169819
1717857799987852300,4.189852294921875,-0.0007883030921220779,0.0003653336316347122,0.00021072989329695702
1717857799997893400,4.199893310546875,-0.00042648217640817165,-0.000881049782037735,-0.0005470258183777332
1717857800007934200,4.209934326171875,0.0003839177079498768,0.001188226044178009,0.0008937441743910313
1717857800017975300,4.219975341796875,-0.00018372619524598122,-0.00040878448635339737,0.0006286995485424995
1717857800028016400,4.230016357421875,-0.00044258544221520424,0.0000857645645737648,0.0012335036881268024
1717857800038057200,4.24005712890625,-0.0009391787461936474,0.00010611861944198608,-0.000007781200110912323
1717857800048097300,4.25009716796875,0.0008651129901409149,-0.0006925631314516068,0.00008436432108283043
1717857800058138400,4.260138427734375,0.001051444560289383,-0.0003639431670308113,-0.0003254767507314682
1717857800068179500,4.270179443359375,-0.0003123600035905838,-0.00024836231023073196,0.0006212769076228142
1717857800078220300,4.28022021484375,0.00008031819015741348,0.0005736202001571655,0.0012447587214410305
1717857800088261400,4.290261474609375,0.00021560676395893097,-0.0001608794555068016,-0.00023489352315664291
1717857800098301200,4.30030126953125,-0.0008458467200398445,-0.0005603907629847527,0.0003237565979361534
1717857800108342300,4.31034228515625,-0.0009308014996349812,-0.0003204392269253731,-0.00032632099464535713
1717857800118383000,4.320383056640625,0.0005599353462457657,-0.0012221969664096832,0.0013730530627071857
1717857800128424200,4.330424072265625,0.0017274650745093822,-0.0003279075026512146,0.000016971025615930557
1717857800138465300,4.34046533203125,-0.000703123863786459,-0.0012090392410755157,0.0005942313000559807
1717857800148506000,4.350506103515625,0.0007421737536787987,-0.0005035679787397385,0.00012578116729855537
1717857800158546200,4.360546142578125,-0.0011488350573927164,-0.0003457646816968918,0.0012098751030862331
1717857800168587300,4.370587158203125,-0.0006106102373450994,-0.000011803582310676575,-0.00007882853969931602
1717857800178628400,4.38062841796875,0.0007271487265825272,-0.00035444367676973343,-0.0009597204625606537
1717857800188669400,4.39066943359375,0.00010876264423131943,-0.00032727885991334915,0.0009750663302838802
1717857800198710500,4.40071044921875,-0.00028918893076479435,0.0015246570110321045,0.0016801496967673302
1717857800208751400,4.41075146484375,0.0004591592587530613,-0.0007121320813894272,-0.00007647089660167694
1717857800218791400,4.42079150390625,-0.0006896210834383965,-0.00024593062698841095,0.0004702471196651459
1717857800228832500,4.43083251953125,0.00019561359658837318,-0.0012763077393174171,-0.0008504143916070461
1717857800238873600,4.44087353515625,0.0022084307856857777,-0.0009215930476784706,-0.0005434253253042698
1717857800248914400,4.45091455078125,-0.0011735174339264631,0.0000632433220744133,0.001071249134838581
1717857800258955500,4.46095556640625,-0.00026507931761443615,0.002044232562184334,0.0009883730672299862
1717857800268995600,4.47099560546875,-0.0008099621627479792,0.0015973541885614395,0.0017934469506144524
1717857800279036400,4.481036376953125,-0.0010365222115069628,0.0002954332157969475,-0.00004877941682934761
1717857800289077500,4.491077392578125,0.00018480373546481133,-0.0018478790298104286,-0.0007409350946545601
1717857800299118600,4.50111865234375,0.0012445463798940182,-0.0005950666964054108,-0.00015825731679797173
1717857800309159400,4.511159423828125,-0.00045215338468551636,-0.00004672165960073471,0.001011935994029045
1717857800319200500,4.521200439453125,0.0008074906654655933,0.0009585199877619743,0.00184216583147645
1717857800329240300,4.531240234375,0.000618406105786562,-0.00013710465282201767,-0.0005498854443430901
1717857800339281400,4.541281494140625,-0.0007469507399946451,-0.0007714498788118362,-0.0003497260622680187
1717857800349322200,4.551322265625,0.0003127208910882473,0.0005793049931526184,-0.001064252108335495
1717857800359363300,4.56136328125,-0.00008397549390792847,0.00019279401749372482,-0.00024177273735404015
1717857800369404400,4.571404296875,0.0006758244708180428,0.0005880063399672508,0.00029884930700063705
1717857800379444500,4.581444580078125,0.0008884822018444538,0.0008869757875800133,0.00028185267001390457
1717857800389485300,4.5914853515625,0.0008306917734444141,-0.0007679127156734467,-0.0016785003244876862
1717857800399526400,4.6015263671875,-0.0002671601250767708,-0.0006955917924642563,0.00005948776379227638
1717857800409567200,4.611567138671875,-0.000594196142628789,-0.00090012326836586,0.0009673591703176498
1717857800419608300,4.6216083984375,0.00023002410307526588,0.00015640351921319962,-0.00023765675723552704
1717857800429649400,4.6316494140625,-0.0005697230808436871,-0.0005421442911028862,0.00209846836514771
1717857800439689500,4.641689453125,-0.0003765260335057974,0.0005711056292057037,-0.001704140566289425
1717857800449730300,4.651730224609375,-0.00023537850938737392,0.0009732423350214958,-0.0005837487988173962
1717857800459771400,4.661771484375,0.0031538926996290684,-0.00036013219505548477,0.0020440323278307915
1717857800469812500,4.6718125,-0.00009969156235456467,-0.0016448404639959335,-0.0007586786523461342
1717857800479853300,4.681853271484375,-0.0014927699230611324,-0.0013312865048646927,-0.00021742982789874077
1717857800489893400,4.691893310546875,-0.0010650663170963526,-0.0012937355786561966,0.0013650204055011272
1717857800499934500,4.7019345703125,-0.00015740003436803818,-0.000019324012100696564,0.0016536377370357513
1717857800509975600,4.7119755859375,0.0011022752150893211,0.0001463247463107109,0.0009958366863429546
1717857800520016400,4.722016357421875,-0.0003534953575581312,-0.0008981451392173767,0.0005418532527983189
1717857800530057500,4.732057373046875,0.00019937707111239433,-0.0012949556112289429,0.00001854216679930687
1717857800540098300,4.742098388671875,0.00035495683550834656,0.0007366742938756943,0.00010305363684892654
1717857800550138400,4.752138427734375,-0.00003679422661662102,-0.00006014294922351837,-0.0003443574532866478
1717857800560179500,4.762179443359375,0.0012344126589596272,-0.0016544940881431103,-0.0005152118392288685
1717857800570220500,4.772220458984375,-0.00017546489834785461,-0.00005979277193546295,0.0002666921354830265
1717857800580261400,4.782261474609375,-0.00008792290464043617,-0.00009773764759302139,0.000009804032742977142
1717857800590302500,4.792302490234375,-0.00014198478311300278,-0.0015797866508364677,-0.00031084055081009865
1717857800600342500,4.802342529296875,-0.00043731555342674255,-0.0012121004983782768,0.0008328431285917759
1717857800610383600,4.812383544921875,-0.0005837893113493919,-0.0012512486428022385,-0.0009533390402793884
1717857800620424400,4.822424560546875,0.0010631722398102283,-0.0007362049072980881,-0.0005686674267053604
1717857800630465500,4.832465576171875,0.000005897600203752518,-0.00005976203829050064,-0.0002661324106156826
1717857800640506600,4.842506591796875,0.0017605102621018887,0.00027774181216955185,0.00027002207934856415
1717857800650547500,4.85254736328125,0.00011707376688718796,-0.00010335631668567657,0.00010011252015829086
1717857800660587300,4.862587158203125,-0.0010053489822894335,-0.00013866275548934937,-0.0006305458955466747
1717857800670628400,4.87262841796875,0.0009134584106504917,0.0007476378232240677,0.0005580228753387928
1717857800680669200,4.882669189453125,-0.0006100083701312542,-0.0009771324694156647,0.00015712343156337738
1717857800690710300,4.892710205078125,0.0016100024804472923,0.00008333846926689148,0.0006530038081109524
1717857800700751400,4.90275146484375,-0.00129298260435462,-0.0003050677478313446,-0.0000340375117957592
1717857800710791400,4.91279150390625,-0.00048098480328917503,0.00008082389831542969,0.0011816956102848053
1717857800720832300,4.922832275390625,0.0028658900409936905,0.0003827931359410286,0.0009393021464347839
1717857800730873300,4.932873291015625,0.0015976931899785995,0.0012019816786050797,-0.0006109238602221012
1717857800740914400,4.94291455078125,0.0015543997287750244,-0.00003853254020214081,0.00030069518834352493
1717857800750955300,4.952955322265625,-0.0002011558972299099,0.00036733318120241165,0.0004029609262943268
1717857800760996400,4.962996337890625,-0.0004884020891040564,-0.000036220066249370575,-0.0013511460274457932
1717857800771036400,4.973036376953125,-0.0006263537798076868,-0.0014367764815688133,-0.0011495444923639297
1717857800781077500,4.983077392578125,-0.0008570672944188118,-0.0011636922135949135,0.001631617546081543
1717857800791118300,4.993118408203125,0.0006718533113598824,-0.0020175017416477203,0.0007434533908963203
1717857800801159400,5.003159423828125,-0.00011813361197710037,-0.0013646725565195084,-0.0015295404009521008
1717857800811200300,5.0132001953125,0.00010583782568573952,0.00003322027623653412,-0.0003947676159441471
1717857800821240300,5.023240234375,-0.00007587764412164688,-0.00015100277960300446,0.0000963900238275528
1717857800831281400,5.033281494140625,-0.00017547979950904846,0.00037257466465234756,-0.00043038325384259224
1717857800841322500,5.043322509765625,-0.0009003432933241129,-0.0025085192173719406,0.00014001503586769104
1717857800851363300,5.05336328125,-0.0010364307090640068,0.000515500083565712,-0.00036385469138622284
1717857800861404400,5.063404296875,0.0001473948359489441,-0.00013883039355278015,-0.00024682795628905296
1717857800871445500,5.073445556640625,-0.00019428902305662632,0.0007767640054225922,-0.0008748010732233524
1717857800881485600,5.083485595703125,0.00022363802418112755,0.00132758729159832,0.0002337130717933178
1717857800891526400,5.0935263671875,-0.00017077638767659664,0.000027165748178958893,0.0005463678389787674
1717857800901567500,5.1035673828125,-0.0011779805645346642,-0.00022722594439983368,-0.0004987791180610657
1717857800911608600,5.113608642578125,-0.0005289681721478701,-0.0002386774867773056,-0.0007448550313711166
1717857800921649400,5.1236494140625,0.0003482070751488209,-0.0005917185917496681,0.000451620202511549
1717857800931689500,5.133689453125,0.0004613916389644146,-0.0006364602595567703,0.00020474521443247795
1717857800941730600,5.14373046875,0.0008863178081810474,0.001238611526787281,-0.0006280522793531418
1717857800951771400,5.153771484375,0.0005110781639814377,-0.00005621742457151413,-0.0005090092308819294
1717857800961812500,5.1638125,0.0008434765040874481,-0.00029604043811559677,-0.0011579045094549656
1717857800971853600,5.173853515625,-0.0005245893262326717,0.0008001169189810753,-0.0008977139368653297
1717857800981894400,5.183894287109375,-0.00011523813009262085,-0.00009020790457725525,0.0005151205696165562
1717857800991934200,5.193934326171875,-0.0004001965280622244,-0.0009421529248356819,-0.0004638573154807091
1717857801001975300,5.203975341796875,-0.00006266077980399132,0.000510641373693943,-0.00021943869069218636
1717857801012016400,5.214016357421875,-0.00024641864001750946,0.0007418040186166763,-0.0004644496366381645
1717857801022057200,5.22405712890625,0.0013989326544106007,-0.0005906401202082634,0.00033493200317025185
1717857801032098300,5.234098388671875,0.00021995138376951218,-0.0002995561808347702,0.00001668417826294899
1717857801042139400,5.244139404296875,0.0001132856123149395,0.0007722564041614532,0.00029183272272348404
1717857801052179500,5.254179443359375,-0.0009237492922693491,0.00018582865595817566,0.00011606421321630478
1717857801062220300,5.26422021484375,-0.00045358831994235516,-0.00010522175580263138,-0.0012574288994073868
1717857801072261400,5.274261474609375,0.0005927677266299725,0.0004340680316090584,0.0010589887388050556
1717857801082302200,5.28430224609375,0.0010085655376315117,0.0005730884149670601,-0.000739281065762043
1717857801092343300,5.29434326171875,-0.0004306065384298563,0.00015017855912446976,-0.00018827291205525398
1717857801102383400,5.30438330078125,-0.0018107490614056587,0.0005197860300540924,-0.00043732626363635063
1717857801112424400,5.314424560546875,0.0005743778310716152,-0.00000112876296043396,-0.00024611130356788635
1717857801122465300,5.32446533203125,-0.0019273990765213966,-0.0003817034885287285,0.001493643969297409
1717857801132506400,5.33450634765625,0.001370126847177744,0.00013974308967590332,0.0005396995693445206
1717857801142547500,5.34454736328125,0.000055692158639431,0.0004546893760561943,0.0004241159185767174
1717857801152588300,5.35458837890625,-0.0006830687634646893,-0.00030058249831199646,-0.001033964566886425
1717857801162628400,5.36462841796875,-0.0015361993573606014,-0.0009033316746354103,0.00003216695040464401
1717857801172669400,5.37466943359375,-0.0012539043091237545,-0.0001496570184826851,0.001385851763188839
1717857801182710800,5.384710693359375,-0.000860108993947506,-0.0006120083853602409,0.0002444842830300331
1717857801192751900,5.394751953125,-0.00038500106893479824,-0.000059402547776699066,0.0008847080171108246
1717857801202793000,5.40479296875,-0.001640609698370099,0.0015389230102300644,0.0011413455940783024
1717857801212832800,5.414832763671875,0.00024410942569375038,0.0002928301692008972,0.0000611674040555954
1717857801222873600,5.42487353515625,-0.00011316989548504353,0.00020505301654338837,-0.000020775943994522095
1717857801232914700,5.434914794921875,0.001737726852297783,-0.001048496924340725,0.0005973437801003456
1717857801242955800,5.444955810546875,0.0009599803015589714,-0.0011962419375777245,0.00021223584190011024
1717857801252996600,5.45499658203125,-0.0011050347238779068,-0.0007501626387238503,-0.0003062817268073559
1717857801263037700,5.46503759765625,-0.0019019171595573425,-0.0006515122950077057,-0.00008870521560311317
1717857801273077800,5.475077880859375,-0.0018289466388523579,0.0009660925716161728,0.0013398141600191593
1717857801283118800,5.485118896484375,-0.00133398431353271,0.0016491720452904701,0.0057042608968913555
1717857801293159700,5.49515966796875,-0.0004924254026263952,0.0037749065086245537,0.0030951618682593107
1717857801303200800,5.50520068359375,0.000050008296966552734,-0.0007575303316116333,0.0024754449259489775
1717857801313241600,5.51524169921875,-0.0004179091192781925,0.0007460908964276314,0.0012919362634420395
1717857801323281700,5.52528173828125,0.0008768364787101746,-0.0014439132064580917,-0.0025729015469551086
1717857801333322800,5.53532275390625,-0.0011130773928016424,0.0005936715751886368,0.0010881461203098297
1717857801343363800,5.54536376953125,0.0007514557801187038,-0.0012523969635367393,-0.0005073589272797108
1717857801353404700,5.55540478515625,0.0009021908044815063,-0.0006979275494813919,-0.00176650146022439
1717857801363445800,5.56544580078125,-0.0005249020177870989,-0.0016135172918438911,-0.001044929027557373
1717857801373486800,5.57548681640625,0.00022957148030400276,-0.000052638351917266846,-0.00020576687529683113
1717857801383527000,5.58552685546875,-0.0001491708680987358,-0.0009342776611447334,-0.0003955801948904991
1717857801393567700,5.595567626953125,-0.00031135743483901024,-0.0005888659507036209,0.0006814021617174149
1717857801403608800,5.60560888671875,0.0004895706661045551,-0.0005482910200953484,0.0009550116956233978
1717857801413650000,5.61564990234375,-0.000564508605748415,-0.0005743904039263725,-0.0005797683261334896
1717857801423690800,5.625690673828125,-0.00009270431473851204,0.00010202638804912567,0.001671433448791504
1717857801433730800,5.635730712890625,-0.0004655469674617052,0.00033292267471551895,-0.000463622622191906
1717857801443772000,5.64577197265625,0.00021892227232456207,0.00018953438848257065,-0.00022585690021514893
1717857801453812700,5.655812744140625,0.00009428616613149643,0.00007555168122053146,0.0011627152562141418
1717857801463853800,5.665853759765625,-0.001344374381005764,-0.0005536628887057304,0.0007754298858344555
1717857801473895000,5.67589501953125,-0.0003811088390648365,-0.0010546036064624786,-0.00003523612394928932
1717857801483935700,5.685935791015625,0.0003259340301156044,0.00007022544741630554,0.0004047024995088577
1717857801493975800,5.695975830078125,0.0008204830810427666,-0.00022432021796703339,0.0012435982935130596
1717857801504017000,5.706016845703125,0.00010983087122440338,0.00028969720005989075,-0.0014154240489006042
1717857801514058000,5.71605810546875,0.0003175577148795128,-0.0011747749522328377,-0.00005082041025161743
1717857801524098800,5.726098876953125,0.0010835924185812473,0.000012629665434360504,0.000976144801825285
1717857801534140000,5.736139892578125,0.000402089674025774,0.00044299662113189697,-0.0015424066223204136
1717857801544181000,5.746180908203125,-0.0010933778248727322,0.0005528749898076057,-0.0004990301094949245
1717857801554220800,5.756220703125,-0.0016774090472608805,-0.00005938578397035599,-0.00007079401984810829
1717857801564261600,5.76626171875,0.0006174803711473942,0.0006724046543240547,0.001086521428078413
1717857801574302700,5.776302734375,-0.0008672322146594524,-0.0014488035812973976,0.00015414832159876823
1717857801584343600,5.786343505859375,0.000777942594140768,-0.0008230544626712799,0.0012948950752615929
1717857801594384600,5.796384521484375,-0.00030436599627137184,-0.0006478177383542061,-0.0007235147058963776
1717857801604424700,5.8064248046875,-0.00007339846342802048,-0.0003347955644130707,0.0010438673198223114
1717857801614465800,5.8164658203125,0.0008922633714973927,-0.000380602665245533,-0.00015934882685542107
1717857801624506600,5.826506591796875,0.00033069169148802757,-0.00039491523057222366,0.0019662203267216682
1717857801634547700,5.836547607421875,0.000004720874130725861,0.00007380079478025436,-0.00011663790792226791
1717857801644588800,5.8465888671875,-0.0002756949979811907,-0.000609307549893856,0.0005369158461689949
1717857801654629600,5.856629638671875,-0.0005649144295603037,0.0009587612003087997,0.0005851187743246555
1717857801664669700,5.866669677734375,-0.00009030569344758987,0.0007765218615531921,0.00019319076091051102
1717857801674710800,5.876710693359375,-0.0010304013267159462,-0.0005926098674535751,0.0011061225086450577
1717857801684752000,5.886751953125,-0.0004022975917905569,0.00014072749763727188,-0.0005277576856315136
1717857801694792700,5.896792724609375,0.00037188315764069557,-0.00009309779852628708,0.0007470976561307907
1717857801704833800,5.906833740234375,-0.00032466650009155273,-0.0006044972687959671,-0.0006338446401059628
1717857801714873900,5.916873779296875,-0.0009281388483941555,-0.0006923815235495567,-0.00013876287266612053
1717857801724914700,5.926914794921875,-0.0004915078170597553,0.0005597956478595734,0.0003529433161020279
1717857801734955800,5.936955810546875,-0.00007232651114463806,-0.00039867591112852097,0.00013775983825325966
1717857801744996900,5.946996826171875,0.000044576358050107956,0.0010325117036700249,-0.0008775466121733189
1717857801755037700,5.95703759765625,-0.0006361277773976326,0.0001938818022608757,-0.0004892577417194843
1717857801765078800,5.967078857421875,0.000018890947103500366,0.00021223723888397217,0.00048629147931933403
1717857801775118800,5.977118896484375,-0.001340652583166957,-0.00018004607409238815,-0.00041971588507294655
1717857801785160000,5.987159912109375,0.00007238704711198807,-0.0004358198493719101,0.0008534528315067291
1717857801795200800,5.99720068359375,-0.0010613205377012491,-0.0011729830875992775,-0.00012046517804265022
1717857801805241900,6.007241943359375,0.0007252739742398262,0.0009687021374702454,0.0007071313448250294
1717857801815283000,6.017282958984375,-0.0003479798324406147,0.00008240249007940292,-0.00021751830354332924
1717857801825322800,6.02732275390625,0.0004845098592340946,-0.0012052571401000023,-0.0013578659854829311
1717857801835363800,6.03736376953125,-0.000924035906791687,0.0002672048285603523,-0.0008960738778114319
1717857801845405000,6.047405029296875,0.0005357083864510059,-0.0008657136932015419,-0.00003387639299035072
1717857801855445800,6.05744580078125,0.00011626025661826134,-0.00004732515662908554,-0.0004850155673921108
1717857801865486800,6.06748681640625,0.0009448681958019733,0.0004172995686531067,-0.00124348234385252
1717857801875528000,6.07752783203125,-0.0001363751944154501,0.0003216918557882309,0.00021166866645216942
1717857801885567700,6.087567626953125,-0.0008464094717055559,-0.0005036070942878723,0.0012975912541151047
1717857801895608600,6.097608642578125,0.0002476167865097523,-0.0009520836174488068,-0.0003405190072953701
1717857801905650000,6.10764990234375,-0.0009353782515972853,0.0002730805426836014,0.0017708507366478443
1717857801915691000,6.11769091796875,0.00016796961426734924,-0.0005588904023170471,0.0015290356241166592
1717857801925731800,6.12773193359375,0.00035726744681596756,-0.0007489500567317009,0.000007629860192537308
1717857801935771600,6.137771728515625,-0.0006227761041373014,-0.00024055223912000656,0.0010409364476799965
1717857801945812700,6.147812744140625,-0.00040494557470083237,-0.0002348320558667183,0.0004948647692799568
1717857801955853800,6.157853759765625,-0.00044942041859030724,-0.0002779746428132057,-0.00039862561970949173
1717857801965894700,6.167894775390625,0.0005272901616990566,-0.0009654136374592781,-0.0005296189337968826
1717857801975935700,6.177935791015625,-0.0018559726886451244,0.0007017254829406738,-0.00017275521531701088
1717857801985976600,6.1879765625,-0.0014316216111183167,0.0006313584744930267,0.0006203856319189072
1717857801996016600,6.1980166015625,-0.00020337174646556377,0.0007727723568677902,0.0009785806760191917
1717857802006057700,6.2080576171875,-0.000023740343749523163,-0.00044530071318149567,-0.00026188837364315987
1717857802016098800,6.218098876953125,-0.0012927365023642778,0.0005256878212094307,-0.0006198170594871044
1717857802026139600,6.2281396484375,-0.00018919026479125023,0.000657103955745697,-0.0001571844331920147
1717857802036180700,6.2381806640625,0.00020682159811258316,-0.0004236074164509773,-0.00029833195731043816
1717857802046220800,6.248220703125,0.00068309111520648,-0.001835585106164217,0.0013739322312176228
1717857802056262000,6.258261962890625,0.0008135861717164516,-0.00040147267282009125,0.001091104932129383
1717857802066302700,6.268302734375,0.0008807643316686153,-0.0002063242718577385,0.001159751322120428
1717857802076343800,6.27834375,0.0002828845754265785,0.00039688125252723694,0.001490782480686903
1717857802086385000,6.288385009765625,-0.0005159818101674318,0.0004442138597369194,0.0002600140869617462
1717857802096425700,6.29842578125,-0.0006480747833848,-0.000447678379714489,0.0012421878054738045
1717857802106465800,6.3084658203125,0.00004228763282299042,-0.0017194491811096668,0.00017687492072582245
1717857802116507000,6.3185068359375,0.00004761386662721634,0.00039296969771385193,0.0007672975771129131
1717857802126547700,6.328547607421875,-0.0004808355588465929,0.0006114039570093155,-0.00013326480984687805
1717857802136588800,6.3385888671875,-0.00001957593485713005,-0.0004908787086606026,-0.0006762831471860409
1717857802146630000,6.3486298828125,0.0007209326140582561,0.0011642202734947205,0.0017199874855577946
1717857802156670000,6.358669921875,0.00033317599445581436,-0.00043740496039390564,0.0011348910629749298
1717857802166710800,6.368710693359375,-0.0012089172378182411,-0.0007666153833270073,0.0001326538622379303
1717857802176751900,6.378751953125,-0.00135938567109406,0.0014139814302325249,0.0003507668152451515
1717857802186792400,6.38879248046875,0.00016813213005661964,-0.0009253127500414848,-0.00068665761500597
1717857802196833300,6.398833251953125,-0.0007035206072032452,-0.0001165103167295456,0.00006541889160871506
1717857802206874600,6.40887451171875,-0.0015430233906954527,-0.0005616908892989159,0.00010235654190182686
1717857802216914400,6.41891455078125,-0.00034912838600575924,-0.00011214893311262131,-0.0010087140835821629
1717857802226955500,6.42895556640625,0.0001571732573211193,-0.00021481607109308243,-0.0000523529015481472
1717857802236996400,6.438996337890625,-0.0009938450530171394,0.001083209179341793,0.0013197073712944984
1717857802247037400,6.449037353515625,-0.00018907804042100906,0.0007216241210699081,0.001869922038167715
1717857802257078500,6.45907861328125,0.00011532148346304893,-0.0008368575945496559,-0.0007988316938281059
1717857802267119400,6.469119384765625,-0.0008613704703748226,0.00027576182037591934,0.000002945307642221451
1717857802277159400,6.479159423828125,0.0008023064583539963,-0.00007151439785957336,-0.0008066557347774506
1717857802287200500,6.489200439453125,0.00017920229583978653,-0.0006223488599061966,0.000706974882632494
1717857802297241300,6.499241455078125,-0.00104851508513093,0.0002461075782775879,-0.0008973134681582451
1717857802307282400,6.509282470703125,-0.0001325518824160099,0.0005913944914937019,0.0006406460888683796
1717857802317323500,6.519323486328125,-0.0007264369633048773,0.001245732419192791,-0.0020337007008492947
1717857802327363600,6.529363525390625,0.0004328601062297821,-0.0008085491135716438,0.00010436680167913437
1717857802337404400,6.539404296875,0.0014142352156341076,0.0006343517452478409,-0.0005262698978185654
1717857802347445500,6.549445556640625,0.0009555136784911156,0.0009256815537810326,0.0010428386740386486
1717857802357486600,6.559486572265625,-0.0006623566150665283,-0.0002660825848579407,-0.0013124607503414154
1717857802367527400,6.56952734375,-0.00031233765184879303,-0.00013033859431743622,-0.00034685106948018074
1717857802377568500,6.579568603515625,-0.0008710687980055809,0.0003002947196364403,-0.000997727271169424
1717857802387608600,6.589608642578125,-0.0007858928292989731,0.0027907658368349075,0.002983488142490387
1717857802397649400,6.5996494140625,-0.0012950892560184002,0.002858409658074379,0.0019704215228557587
1717857802407690500,6.6096904296875,0.0008268840610980988,0.001070985570549965,0.0008007488213479519
1717857802417731600,6.619731689453125,-0.0005899178795516491,-0.0012475624680519104,-0.0012762504629790783
1717857802427772400,6.6297724609375,0.0012187538668513298,-0.0008936990052461624,-0.0038877688348293304
1717857802437812500,6.6398125,-0.0005977882537990808,0.00004186946898698807,0.0005541173741221428
1717857802447853600,6.649853515625,0.0004040333442389965,0.0008745370432734489,0.00004135165363550186
1717857802457894700,6.659894775390625,0.0008639614097774029,-0.0009854147210717201,0.000793960876762867
1717857802467935500,6.669935546875,-0.0009254647884517908,-0.0014272769913077354,-0.0006819809786975384
1717857802477976600,6.6799765625,-0.0000527470838278532,-0.001983877271413803,-0.002178145106881857
1717857802488017700,6.690017578125,0.00043598469346761703,-0.0011951960623264313,-0.0014948965981602669
1717857802498057700,6.7000576171875,-0.0003938565496355295,0.0005007050931453705,0.0005892934277653694
1717857802508098600,6.7100986328125,0.0015528975054621696,-0.0011974368244409561,0.00000852951779961586
1717857802518139600,6.7201396484375,-0.0004181079566478729,0.001004197634756565,-0.00043062586337327957
1717857802528180500,6.730180419921875,-0.001299148891121149,-0.0017614681273698807,0.0010067611001431942
1717857802538221600,6.7402216796875,-0.0005473385099321604,-0.00038780923932790756,-0.0013914154842495918
1717857802548261400,6.750261474609375,-0.0002353321760892868,-0.0000758189707994461,-0.0006541935727000237
1717857802558302500,6.760302490234375,-0.0004371998365968466,-0.0002539847046136856,0.00012904172763228416
1717857802568343300,6.77034326171875,-0.0006438142154365778,-0.0009225513786077499,-0.0003327461890876293
1717857802578384400,6.78038427734375,0.00025819847360253334,-0.000424274243414402,-0.0002959948033094406
1717857802588425500,6.790425537109375,-0.0009578901808708906,0.0005456525832414627,0.0004568235017359257
1717857802598466300,6.80046630859375,-0.0009038280695676804,0.000010357238352298737,-0.00034372275695204735
1717857802608506400,6.81050634765625,0.0005479319952428341,-0.0008273348212242126,0.0005852542817592621
1717857802618547500,6.82054736328125,-0.000639837933704257,0.000788404606282711,0.00020602019503712654
1717857802628588500,6.830588623046875,-0.00026033888570964336,-0.0003067776560783386,0.0029066188726574183
1717857802638629400,6.84062939453125,0.0011910838074982166,-0.0011440757662057877,0.0010669073089957237
1717857802648670500,6.85067041015625,-0.0004927297122776508,-0.0007067117840051651,0.0005548098124563694
1717857802658710500,6.86071044921875,-0.0010927398689091206,-0.0003663599491119385,-0.0002702372148633003
1717857802668751400,6.87075146484375,-0.0012206577230244875,0.0004288051277399063,0.00022001983597874641
1717857802678792400,6.88079248046875,0.0007793763652443886,0.001359580084681511,-0.0003544236533343792
1717857802688833500,6.89083349609375,-0.00021036970429122448,-0.0014521991834044456,-0.0004821610637009144
1717857802698874400,6.900874267578125,0.0013084309175610542,-0.00014458689838647842,0.00015593226999044418
1717857802708915500,6.91091552734375,-0.00021584401838481426,-0.0006246855482459068,0.00002750847488641739
1717857802718955500,6.92095556640625,-0.00034314324147999287,-0.000325080007314682,0.0008826497942209244
1717857802728996600,6.93099658203125,-0.0000482853502035141,0.0005056429654359818,0.0006839083507657051
1717857802739037400,6.941037353515625,0.00024439627304673195,0.001210315153002739,0.00012091593816876411
1717857802749078500,6.95107861328125,-0.0005188065115362406,0.0002011796459555626,0.00035361526533961296
1717857802759119600,6.96111962890625,-0.000014670193195343018,-0.0006630159914493561,-0.001011787448078394
1717857802769159700,6.97115966796875,0.0007450077682733536,-0.000172516331076622,0.001084592193365097
1717857802779200500,6.981200439453125,0.00007575517520308495,-0.0007826462388038635,-0.00036523258313536644
1717857802789241600,6.99124169921875,0.0007405164651572704,-0.00027452316135168076,0.00021063350141048431
1717857802799282400,7.001282470703125,0.0001578168012201786,-0.0005911737680435181,0.000036463141441345215
1717857802809323500,7.011323486328125,0.000565151683986187,-0.00014250539243221283,0.0009267865680158138
1717857802819364600,7.021364501953125,0.0003502345643937588,0.0006646988913416862,-0.0007611247710883617
1717857802829404700,7.03140478515625,-0.00012580188922584057,0.00008482299745082855,0.0008452660404145718
1717857802839445500,7.041445556640625,-0.00020223460160195827,-0.0016848472878336906,0.0010311547666788101
1717857802849486600,7.051486572265625,-0.00015758746303617954,-0.0010172771289944649,-0.0005557243712246418
1717857802859527700,7.061527587890625,-0.00083695980720222,-0.0009312573820352554,-0.0012382925488054752
1717857802869568500,7.071568603515625,0.000014793593436479568,-0.0016351621598005295,0.00008539203554391861
1717857802879608300,7.0816083984375,0.00003130501136183739,0.00023464299738407135,0.0008571757934987545
1717857802889649400,7.0916494140625,-0.00043454417027533054,-0.00029643159359693527,0.0011353096924722195
1717857802899690500,7.1016904296875,-0.0005368094425648451,-0.0005997652187943459,-0.0009009432978928089
1717857802909731300,7.1117314453125,-0.0004280142020434141,-0.000700674019753933,0.0002496396191418171
1717857802919772400,7.1217724609375,0.00020448630675673485,0.00016192346811294556,-0.0002704756334424019
1717857802929813500,7.1318134765625,-0.0011333809234201908,-0.00019770581275224686,0.0008390322327613831
1717857802939853300,7.141853271484375,-0.0013869137037545443,-0.00006694532930850983,0.0001500723883509636
1717857802949894400,7.151894287109375,-0.0012017490807920694,-0.001307162456214428,0.00045703211799263954
1717857802959935500,7.161935546875,-0.0013982902746647596,-0.0005108769983053207,0.00026954570785164833
1717857802969976300,7.171976318359375,0.0013171094469726086,-0.0002038991078734398,0.0007326961494982243
1717857802980017400,7.182017333984375,-0.0013338008429855108,0.0006778733804821968,-0.00044868234544992447
1717857802990058500,7.19205859375,-0.00004273117519915104,0.000652579590678215,0.0006471006199717522
1717857803000098600,7.2020986328125,0.0011096186935901642,-0.00041827745735645294,0.00036880047991871834
1717857803010139400,7.212139404296875,0.000364622101187706,0.00023031048476696014,-0.0006378320977091789
1717857803020180500,7.222180419921875,0.00043146777898073196,-0.0006261616945266724,0.0010607321746647358
1717857803030221600,7.2322216796875,0.0003257961943745613,-0.0006924280896782875,-0.00022901175543665886
1717857803040262400,7.242262451171875,0.0006501693278551102,-0.0003635277971625328,-0.0005238237790763378
1717857803050302500,7.252302490234375,0.0007126126438379288,-0.00023820064961910248,0.0013120672665536404
1717857803060343600,7.262343505859375,0.0005666716024279594,-0.000410241074860096,0.0007847617380321026
1717857803070384400,7.27238427734375,-0.00027514551766216755,-0.0003442186862230301,0.0007580281235277653
1717857803080425500,7.282425537109375,-0.000157433794811368,-0.000681375153362751,-0.0005333386361598969
1717857803090466600,7.292466552734375,-0.0009939023293554783,-0.0007317783311009407,-0.00032080989331007004
1717857803100507400,7.30250732421875,-0.0002807078417390585,0.00022402964532375336,0.0012083775363862514
1717857803110547500,7.31254736328125,-0.0014383294619619846,-0.001450028270483017,-0.000995900947600603
1717857803120588500,7.322588623046875,0.0010850154794752598,-0.00011791568249464035,0.00013114884495735168
1717857803130629600,7.332629638671875,-0.0003900642041116953,-0.0003370344638824463,0.0005557951517403126
1717857803140670500,7.34267041015625,-0.0009144404903054237,0.0009375540539622307,0.0011792411096394062
1717857803150711600,7.352711669921875,0.0013466482050716877,0.0009081289172172546,0.0005534719675779343
1717857803160751600,7.362751708984375,0.00004090042784810066,-0.000546489842236042,0.0005076653324067593
1717857803170792700,7.372792724609375,0.0016066939570009708,-0.0011658556759357452,0.0001782262697815895
1717857803180833800,7.382833740234375,-0.0010463471990078688,0.0007087429985404015,-0.00009767711162567139
1717857803190875000,7.392875,-0.0003505311906337738,0.0001808907836675644,-0.00039675040170550346
1717857803200915700,7.402915771484375,-0.00014413613826036453,-0.0017477707006037235,0.00034653767943382263
1717857803210955800,7.412955810546875,-0.0006226345431059599,0.00015842821449041367,-0.0002658748999238014
1717857803220996900,7.422996826171875,-0.00006789807230234146,0.00047907233238220215,-0.0007987734861671925
1717857803231038000,7.433037841796875,0.0008033802732825279,0.00034753046929836273,0.001485627144575119
1717857803241078800,7.443078857421875,0.00021988153457641602,-0.0013020308688282967,-0.0005751266144216061
1717857803251119900,7.453119873046875,0.0013177990913391113,0.0004241000860929489,0.00009580468758940697
1717857803261161000,7.463160888671875,-0.00019620778039097786,-0.00012823939323425293,0.00004919944331049919
1717857803271200800,7.47320068359375,-0.00009309151209890842,-0.0009750956669449806,0.00164859090000391
1717857803281241600,7.48324169921875,0.0006933398544788361,-0.0004025157541036606,0.0011255457065999508
1717857803291282700,7.49328271484375,0.00034706760197877884,-0.0006607985123991966,0.00022583641111850739
1717857803301323800,7.50332373046875,-0.0007067453116178513,0.0001530637964606285,0.0006578010506927967
1717857803311364600,7.513364501953125,-0.00011769426055252552,0.0008794330060482025,-0.000011660624295473099
1717857803321405700,7.52340576171875,0.00021466845646500587,-0.00012830737978219986,0.0003984663635492325
1717857803331445800,7.53344580078125,-0.0006440998986363411,-0.0009836424142122269,-0.0009684939868748188
1717857803341486600,7.543486572265625,-0.00004009483382105827,-0.0006693890318274498,0.0005234084092080593
1717857803351527700,7.553527587890625,0.0008062361739575863,0.0009394390508532524,-0.0006387960165739059
1717857803361568800,7.56356884765625,0.0008131605572998524,-0.0009775040671229362,0.000434990506619215
1717857803371609600,7.573609619140625,0.00007570208981633186,0.0005130721256136894,-0.0002889316529035568
1717857803381649700,7.583649658203125,-0.0004952799063175917,-0.00027256086468696594,-0.001565917395055294
1717857803391690800,7.593690673828125,0.000665837898850441,-0.0011742385104298592,0.00014396803453564644
1717857803401731800,7.60373193359375,0.0007673045620322227,0.0004018200561404228,-0.0002200859598815441
1717857803411772700,7.613772705078125,-0.000580525491386652,0.00014027021825313568,0.0006749643944203854
1717857803421813800,7.623813720703125,0.0033297939226031303,-0.0006030173972249031,-0.00008057430386543274
1717857803431854800,7.633854736328125,0.001354701817035675,-0.00006565358489751816,0.0004351651296019554
1717857803441894700,7.643894775390625,-0.0012551962863653898,-0.0006946921348571777,0.0014034905470907688
1717857803451935700,7.653935791015625,-0.0003812960349023342,0.0008030068129301071,0.00030360184609889984
1717857803461976800,7.663976806640625,-0.0006971471011638641,0.0006599947810173035,0.0004804357886314392
1717857803472017700,7.674017578125,0.0017469702288508415,0.0024181781336665154,0.0021221411880105734
1717857803482058800,7.684058837890625,0.00042657507583498955,0.0015470581129193306,0.00022836728021502495
1717857803492098800,7.694098876953125,-0.0011251973919570446,0.0000756625086069107,0.0001520579680800438
1717857803502140000,7.704139892578125,-0.000462602823972702,-0.0009664325043559074,-0.0027531846426427364
1717857803512180700,7.7141806640625,-0.0006259584333747625,-0.001008124090731144,-0.0013186591677367687
1717857803522221800,7.724221923828125,-0.0002922643907368183,0.0004957625642418861,0.0009162658825516701
1717857803532263000,7.734262939453125,0.0008607725612819195,0.0007863752543926239,0.000775373075157404
1717857803542303700,7.7443037109375,0.0009190957061946392,-0.0009289663285017014,-0.00027417857199907303
1717857803552343800,7.75434375,0.0008973046205937862,-0.0018432755023241043,0.00000907527282834053
1717857803562385000,7.764385009765625,0.00006053922697901726,-0.00014950521290302277,-0.0012814924120903015
1717857803572425700,7.77442578125,0.00023694615811109543,0.0006133886054158211,0.0006231875158846378
1717857803582466800,7.784466796875,0.0007333592511713505,0.0006208457052707672,-0.0002780263312160969
1717857803592508000,7.7945078125,-0.0008120506536215544,-0.000719139352440834,-0.0009768810123205185
1717857803602547700,7.804547607421875,0.00018050940707325935,-0.0007718699052929878,-0.00043892255052924156
1717857803612588500,7.814588623046875,-0.0004734818357974291,-0.0008610356599092484,-0.00020962441340088844
1717857803622629600,7.824629638671875,-0.0002963815350085497,-0.000575011596083641,0.0008708196692168713
1717857803632670700,7.834670654296875,-0.00022092298604547977,-0.000573684461414814,0.0007517407648265362
1717857803642711600,7.844711669921875,0.00048215175047516823,-0.00008312985301017761,0.0005623903125524521
1717857803652752600,7.854752685546875,0.00014723464846611023,-0.0007537733763456345,0.0005185953341424465
1717857803662792700,7.864792724609375,0.0019789570942521095,-0.0005132900550961494,0.0005715922452509403
1717857803672833800,7.874833740234375,-0.0004724552854895592,0.00021437648683786392,0.0004123244434595108
1717857803682874600,7.88487451171875,-0.0011608824133872986,0.0006287647411227226,-0.00005186442285776138
1717857803692915700,7.894915771484375,-0.0005697701126337051,-0.0022889855317771435,-0.002047946210950613
1717857803702956800,7.904956787109375,-0.00016843155026435852,0.0003917524591088295,-0.0008644373156130314
1717857803712996600,7.91499658203125,-0.0003109925892204046,0.00017865747213363647,-0.0007087793201208115
1717857803723037700,7.92503759765625,0.000010983552783727646,0.0014425935223698616,-0.0009452681988477707
1717857803733078800,7.935078857421875,0.002870073076337576,0.001661687158048153,0.00006745103746652603
1717857803743119600,7.94511962890625,0.00012541934847831726,-0.0005870861932635307,0.0005926266312599182
1717857803753160700,7.95516064453125,0.0010079466737806797,-0.0020185657776892185,-0.00037312135100364685
1717857803763201800,7.965201904296875,-0.0008589292410761118,-0.0006792619824409485,-0.000851691234856844
1717857803773241900,7.975241943359375,-0.00012086774222552776,0.0018755244091153145,0.0001264326274394989
1717857803783282700,7.98528271484375,0.0012256265617907047,0.0004001334309577942,0.0005828985013067722
1717857803793323800,7.99532373046875,-0.0009660287760198116,-0.00047182850539684296,0.00040233880281448364
1717857803803364900,8.00536474609375,-0.0012560468167066574,0.0006616124883294106,-0.0000450722873210907
1717857803813405700,8.01540576171875,0.00004529627040028572,0.0003935080021619797,0.00042535364627838135
1717857803823446800,8.02544677734375,-0.001212248345836997,0.0003285268321633339,-0.00033125001937150955
1717857803833486800,8.03548681640625,-0.0013761019799858332,-0.00045822374522686005,-0.00009315228089690208
1717857803843527700,8.045527587890625,0.0003245924599468708,0.0010592453181743622,0.001155337318778038
1717857803853568800,8.05556884765625,-0.00020398502238094807,-0.0008300701156258583,0.00008453382179141045
1717857803863609900,8.06560986328125,-0.00013740593567490578,-0.0004553636536002159,0.0014214408583939075
1717857803873650700,8.075650634765625,0.0003581196069717407,-0.0009693475440144539,0.0005076518282294273
1717857803883690800,8.085690673828125,0.0014028777368366718,-0.00047426577657461166,0.0008533303625881672
1717857803893731800,8.09573193359375,-0.002253735437989235,-0.0002562105655670166,-0.0017436416819691658
1717857803903773000,8.10577294921875,-0.0010206918232142925,-0.00021413341164588928,0.0006526708602905273
1717857803913813800,8.115813720703125,0.0011581913568079472,-0.0007191561162471771,0.0006958148442208767
1717857803923854800,8.125854736328124,0.0005485936999320984,-0.0015085171908140182,-0.00037584127858281136
1717857803933896000,8.13589599609375,0.000526039395481348,-0.0003082491457462311,0.000293112825602293
1717857803943935700,8.145935791015624,-0.00028729019686579704,-0.0014656591229140759,0.00006887456402182579
1717857803953976600,8.1559765625,0.00043990369886159897,0.00036341510713100433,0.0006934213452041149
1717857803964017700,8.166017578125,-0.00022881594486534595,0.0013328054919838905,0.0007842350751161575
1717857803974058800,8.176058837890626,-0.0011837021447718143,-0.0013766884803771973,0.00022936146706342697
1717857803984099600,8.186099609375,-0.0012031432706862688,-0.0009204884991049767,-0.001665477640926838
1717857803994139600,8.1961396484375,0.00016951793804764748,0.00020476430654525757,-0.00043467292562127113
1717857804004180700,8.2061806640625,-0.00022569531574845314,0.0007248800247907639,0.000832725316286087
1717857804014221600,8.2162216796875,-0.0006929244846105576,-0.0014465772546827793,-0.00043978355824947357
1717857804024262700,8.2262626953125,0.0017116437666118145,-0.0005272543057799339,-0.00007812632247805595
1717857804034303700,8.2363037109375,0.000428580678999424,-0.0011209873482584953,-0.0015346440486609936
1717857804044343800,8.24634375,-0.0006934092380106449,0.0004609301686286926,0.0005378280766308308
1717857804054384600,8.256384521484375,0.0006737257353961468,-0.00007137749344110489,-0.000884002074599266
1717857804064425700,8.26642578125,-0.0003779567778110504,0.0001454036682844162,0.00035596592351794243
1717857804074466800,8.276466796875,0.00044373469427227974,-0.00027880817651748657,0.0011560632847249508
1717857804084507600,8.286507568359376,-0.0010191397741436958,0.0005214717239141464,0.0015366291627287865
1717857804094548700,8.296548828125,0.0005226614885032177,-0.0006844690069556236,0.0015057646669447422
1717857804104588800,8.3065888671875,-0.0013623239938169718,-0.0006951214745640755,0.001793119590729475
1717857804114629600,8.316629638671875,-0.0011749248951673508,-0.00044460687786340714,0.0012625143863260746
1717857804124670700,8.326670654296874,-0.0005711864214390516,-0.0004057241603732109,0.0001730155199766159
1717857804134711800,8.3367119140625,-0.00040111225098371506,0.00022897962480783463,-0.0010228976607322693
1717857804144752600,8.346752685546875,0.0005184770561754704,-0.0005723657086491585,-0.00028413673862814903
1717857804154793700,8.356793701171876,-0.0020225076004862785,0.0007018279284238815,0.0003184126690030098
1717857804164833800,8.366833740234375,0.000222004484385252,-0.00020417943596839905,0.0009357333183288574
1717857804174875000,8.376875,-0.000025015324354171753,0.0005122870206832886,0.00017098616808652878
1717857804184915700,8.386915771484375,-0.0009576540905982256,-0.0007114354521036148,-0.0005371482111513615
1717857804194956800,8.396956787109374,0.0014157826080918312,0.0005523357540369034,-0.000029587186872959137
1717857804204998000,8.406997802734375,0.00011189933866262436,-0.00118191447108984,-0.0007816641591489315
1717857804215037700,8.41703759765625,-0.0005332846194505692,-0.000542445108294487,-0.00034388666972517967
1717857804225078800,8.427078857421876,0.0001809750683605671,0.000032531097531318665,0.0001679728738963604
1717857804235119900,8.437119873046875,0.0012445668689906597,-0.00032480526715517044,0.0015451330691576004
1717857804245160700,8.44716064453125,0.00014601275324821472,0.00002007465809583664,-0.0005023051053285599
1717857804255201800,8.457201904296875,-0.0010597233194857836,-0.0006327163428068161,-0.0005719061009585857
1717857804265243000,8.467242919921874,0.0004289839416742325,-0.00028224382549524307,0.0009927009232342243
1717857804275283000,8.477282958984375,0.000544324517250061,0.00021177716553211212,0.0001573045738041401
1717857804285323800,8.48732373046875,0.0009366078302264214,0.0000700969249010086,-0.0002600126899778843
1717857804295364900,8.49736474609375,0.00009579584002494812,-0.00006662867963314056,-0.0010609179735183716
1717857804305406000,8.507406005859375,-0.0007894390728324652,0.0016737468540668488,-0.0018851659260690212
1717857804315446800,8.51744677734375,0.0014760973863303661,-0.00035863183438777924,-0.00035159988328814507
1717857804325486800,8.52748681640625,-0.000795312924310565,0.00034071411937475204,0.00018529361113905907
1717857804335528000,8.53752783203125,0.0009545097127556801,-0.00022623874247074127,0.001791889313608408
1717857804345568800,8.54756884765625,0.001011235173791647,0.0012944266200065613,-0.000322926789522171
1717857804355609900,8.55760986328125,0.0000817812979221344,0.0002298206090927124,-0.0006103185005486012
1717857804365651000,8.56765087890625,-0.0003001159057021141,0.00014166999608278275,0.0004493533633649349
1717857804375691800,8.57769189453125,0.0007315818220376968,-0.0005012061446905136,0.00014790566638112068
1717857804385731800,8.58773193359375,0.0016993745230138302,0.001961418427526951,-0.0006244112737476826
1717857804395773000,8.59777294921875,-0.0011183114256709814,-0.0000445246696472168,0.0010492620058357716
1717857804405814000,8.60781396484375,0.0004705307073891163,-0.0002317456528544426,-0.00003144843503832817
1717857804415854800,8.617854736328125,-0.0003615673631429672,-0.0007678912952542305,0.00008363928645849228
1717857804425896000,8.62789599609375,0.0012573683634400368,-0.00005016941577196121,-0.00014885468408465385
1717857804435936000,8.63793603515625,-0.00047333911061286926,0.00040362123399972916,0.0009047272615134716
1717857804445977000,8.64797705078125,0.00035463785752654076,-0.0010342197492718697,0.0013233763165771961
1717857804456018000,8.658017822265625,0.0008010980673134327,0.0005892608314752579,0.0007116515189409256
1717857804466059000,8.66805908203125,0.00012572063133120537,0.000776214525103569,-0.0005890363827347755
1717857804476099800,8.678099853515626,0.001038768794387579,0.00021067913621664047,-0.0005975798703730106
1717857804486141000,8.688140869140625,-0.00024221139028668404,0.00025728438049554825,-0.00031155627220869064
1717857804496180700,8.6981806640625,-0.00022355024702847004,-0.0011546965688467026,-0.00030071381479501724
1717857804506221800,8.708221923828125,0.00022519240155816078,0.0032682809978723526,0.002341408282518387
1717857804516262700,8.7182626953125,-0.0005016180220991373,-0.0019427724182605743,-0.001238122582435608
1717857804526303700,8.7283037109375,0.0003788229078054428,-0.00048682279884815216,0.001243943814188242
1717857804536344800,8.7383447265625,-0.002000170759856701,-0.00004870165139436722,-0.00040997471660375595
1717857804546385700,8.7483857421875,-0.0005807061679661274,-0.0008135614916682243,-0.0009596510790288448
1717857804556425700,8.75842578125,-0.00011855387128889561,-0.0003733038902282715,-0.00014216499403119087
1717857804566466800,8.768466796875,0.0012660236097872257,0.0002466803416609764,0.00007275212556123734
1717857804576508000,8.7785078125,-0.0004066186957061291,-0.0009335111826658249,-0.000914223026484251
1717857804586548700,8.788548828125,-0.00008490867912769318,0.00008434895426034927,-0.00021114852279424667
1717857804596589800,8.79858984375,0.00019451137632131577,-0.0003181230276823044,-0.0013347584754228592
1717857804606630000,8.8086298828125,-0.0010739522986114025,0.00027203280478715897,-0.0004937322810292244
1717857804616670700,8.818670654296875,0.00017266860231757164,0.00099285040050745,0.0007593128830194473
1717857804626711800,8.8287119140625,-0.0006574389990419149,0.00042612943798303604,0.0004333416000008583
1717857804636753000,8.8387529296875,0.0005104993470013142,0.0004441821947693825,-0.0011493545025587082
1717857804646793700,8.848793701171875,0.0009666988626122475,-0.0006479807198047638,0.0013803821057081223
1717857804656833800,8.858833740234376,0.000582660548388958,-0.0009150449186563492,0.0003111460246145725
1717857804666875000,8.868875,-0.0002770076971501112,0.0000024139881134033203,0.0011508408933877945
1717857804676916000,8.878916015625,0.00024566100910305977,-0.000012473203241825104,0.0013054846785962582
1717857804686956800,8.888956787109375,0.0002672323025763035,-0.000613815151154995,-0.0003683120012283325
1717857804696998000,8.898997802734375,0.0004412182606756687,-0.000981297343969345,0.0005472120828926563
1717857804707039000,8.9090390625,0.00009314296767115593,0.0009319167584180832,0.0014870413579046726
1717857804717079000,8.9190791015625,0.0001987311989068985,-0.0010393857955932617,-0.0009005488827824593
1717857804727120000,8.929119873046876,0.0002629132941365242,-0.0010372549295425415,0.0013796496205031872
1717857804737161000,8.939160888671875,-0.0008215194102376699,-0.0006898464635014534,-0.00046869367361068726
1717857804747201800,8.949201904296874,0.0010922281071543694,0.000029207207262516022,-0.0002553742378950119
1717857804757243000,8.959242919921875,-0.00001920037902891636,0.0017954548820853233,0.0011064526624977589
1717857804767284000,8.969283935546875,-0.000059413956478238106,-0.00044985581189393997,0.0006933966651558876
1717857804777324000,8.979323974609375,0.0016614766791462898,-0.00008160807192325592,0.0015484001487493515
1717857804787364900,8.98936474609375,-0.0010091415606439114,-0.0007660398259758949,0.0009638364426791668
1717857804797406000,8.999406005859376,-0.0006235199980437756,-0.00021361466497182846,0.0006040125153958797
1717857804807447000,9.009447021484375,-0.00022910581901669502,0.0008982550352811813,0.000027171801775693893
1717857804817488000,9.01948779296875,0.0005267099477350712,-0.0007042055949568748,0.0006209723651409149
1717857804827527700,9.029527587890625,-0.000478899572044611,-0.00010393001139163971,-0.0001489478163421154
1717857804837568800,9.03956884765625,0.00004651444032788277,-0.00043280888348817825,0.000934892799705267
1717857804847609900,9.04960986328125,0.0003828718326985836,0.0006700064986944199,-0.0016595590859651566
1717857804857650700,9.059650634765624,-0.0015281063970178366,-0.000462493859231472,0.0003404999151825905
1717857804867691800,9.06969189453125,0.0005198647268116474,0.000733531080186367,-0.0010595237836241722
1717857804877732900,9.07973291015625,-0.00022893166169524193,-0.00009543728083372116,-0.0011105164885520935
1717857804887772700,9.089772705078126,-0.00008219154551625252,0.00018898863345384598,-0.000174681656062603
1717857804897813800,9.099813720703125,0.0006194240413606167,-0.0006332164630293846,-0.00014183903113007545
1717857804907854800,9.109854736328124,0.0006953240372240543,0.0007894439622759819,0.0007135686464607716
1717857804917895700,9.119895751953125,0.001258675940334797,0.0013880673795938492,-0.0003615734167397022
1717857804927936800,9.129936767578124,0.000684764701873064,0.0012855352833867073,0.00016386853531002998
1717857804937976800,9.139976806640625,0.00045236339792609215,0.00039048586040735245,-0.0004438101314008236
1717857804948018000,9.150017822265625,-0.0003116973675787449,-0.00018955115228891373,0.0006744512356817722
1717857804958058800,9.160058837890626,0.0004045921377837658,-0.0013468936085700989,-0.00008387817069888115
1717857804968099800,9.170099853515625,0.000348932109773159,0.0005764421075582504,-0.0007920125499367714
1717857804978141000,9.180140869140626,-0.0001029998529702425,0.0005519846454262733,-0.0013317586854100227
1717857804988181800,9.190181640625,-0.001154948491603136,-0.0008882526308298111,0.0012411214411258698
1717857804998221800,9.200221923828124,-0.0010782198514789343,0.0006561735644936562,0.0012160427868366241
1717857805008263000,9.210262939453125,-0.0015764972195029259,-0.0003563603386282921,0.0004953914321959019
1717857805018303700,9.2203037109375,0.00013782503083348274,0.00014754105359315872,0.00028877798467874527
1717857805028344800,9.2303447265625,-0.001083234092220664,-0.000005324371159076691,-0.0000957823358476162
1717857805038386000,9.240385986328125,0.0016531385481357574,-0.00033725984394550323,-0.00025294627994298935
1717857805048426000,9.250426025390626,-0.001694188453257084,0.0007841978222131729,0.0017667952924966812
1717857805058466800,9.260466796875,-0.001141902757808566,-0.0010577524080872536,0.0006747907027602196
1717857805068508000,9.2705078125,-0.00021672062575817108,-0.0016345931217074394,0.000334971584379673
1717857805078549000,9.280549072265625,-0.00007268600165843964,-0.00015654414892196655,0.0004236889071762562
1717857805088589800,9.29058984375,-0.00042475597001612186,0.00027408916503190994,-0.00014409702271223068
1717857805098631000,9.300630859375,0.00003795512020587921,-0.00037102214992046356,0.0004154946655035019
1717857805108671000,9.3106708984375,0.0001753740943968296,0.0003648092970252037,-0.000010078772902488708
1717857805118712000,9.320712158203126,0.00011581089347600937,0.00007686112076044083,0.0005896692164242268
1717857805128753000,9.3307529296875,-0.0019460085313767195,0.00046115554869174957,0.00018460256978869438
1717857805138794000,9.3407939453125,0.00022252649068832397,0.0001122569665312767,-0.000011214986443519592
1717857805148834800,9.350834716796875,0.0006936397403478622,0.0007455563172698021,-0.0009933887049555779
1717857805158876000,9.3608759765625,-0.0018445381429046392,-0.001437193714082241,-0.0008987127803266048
1717857805168915700,9.370915771484375,0.000009288080036640167,-0.0012339940294623375,-0.0007221451960504055
1717857805178956800,9.380956787109374,-0.001669486053287983,-0.00001674611121416092,0.001671376172453165
1717857805188998000,9.390997802734375,0.00029779085889458656,0.0010799430310726166,0.00047375261783599854
1717857805199039000,9.4010390625,0.0003627319820225239,-0.001596993301063776,0.0008668629452586174
1717857805209080000,9.411080078125,0.0003488832153379917,0.00044538453221321106,-0.0000617816112935543
1717857805219119900,9.421119873046875,-0.00032657990232110023,-0.0017172237858176231,-0.0009480370208621025
1717857805229160700,9.43116064453125,-0.00046506430953741074,-0.0005797874182462692,0.00013480428606271744
1717857805239201800,9.441201904296875,-0.0005180090665817261,-0.0002862941473722458,0.0019667446613311768
1717857805249243000,9.451242919921874,0.0001579010859131813,-0.0001874910667538643,0.0009262477979063988
1717857805259283700,9.46128369140625,0.0016578072682023048,-0.00015387218445539474,0.00010420894250273705
1717857805269323800,9.47132373046875,0.0011392896994948387,-0.0010929033160209656,-0.0008137826807796955
1717857805279364900,9.48136474609375,-0.0007784042973071337,0.0007860660552978516,0.0004869624972343445
1717857805289405700,9.49140576171875,0.0002035032957792282,-0.0011702915653586388,-0.0006454135291278362
1717857805299446800,9.50144677734375,-0.00045001041144132614,-0.0012276004999876022,0.0008040396496653557
1717857805309487900,9.51148779296875,0.00021551363170146942,-0.0005322489887475967,0.00013372208923101425
1717857805319528700,9.52152880859375,-0.00032692798413336277,-0.0004633469507098198,0.0006571318954229355
1717857805329568800,9.53156884765625,0.0012941379100084305,0.0010519921779632568,0.0015916354022920132
1717857805339609900,9.54160986328125,-0.000035493867471814156,0.00036487821489572525,0.0011976943351328373
1717857805349651000,9.55165087890625,0.00033761467784643173,0.00072440505027771,0.0006727855652570724
1717857805359691800,9.56169189453125,0.000612752977758646,-0.0010516075417399406,0.0007006595842540264
1717857805369732900,9.57173291015625,0.001738471444696188,-0.00018181931227445602,0.0007603145204484463
1717857805379773000,9.58177294921875,-0.00034263869747519493,0.0003094179555773735,-0.0008547953329980373
1717857805389814000,9.59181396484375,0.00021742377430200577,0.0015967898070812225,0.0005012862384319305
1717857805399854800,9.601854736328125,0.0009388444013893604,0.0005843052640557289,-0.0005378304049372673
1717857805409896000,9.61189599609375,-0.00010085338726639748,-0.0010793711990118027,-0.0018917815759778023
1717857805419936800,9.621936767578125,0.0003349781036376953,-0.000027136877179145813,0.0006649442948400974
1717857805429977900,9.631977783203125,0.0011906521394848824,-0.0006359349936246872,0.0008995686657726765
1717857805440018000,9.642017822265625,0.000547824427485466,0.0005378909409046173,-0.00034795980900526047
1717857805450059000,9.65205908203125,-0.000100388890132308,-0.000530303455889225,-0.001004162710160017
1717857805460099800,9.662099853515626,-0.00083498889580369,-0.0010772384703159332,0.001028343103826046
1717857805470141000,9.672140869140625,-0.0009460428263992071,0.0006578108295798302,0.0007873270660638809
1717857805480182000,9.68218212890625,-0.0012934405822306871,-0.00004439800977706909,-0.0002739191986620426
1717857805490222800,9.692222900390625,0.00048794783651828766,0.0010653408244252205,-0.0013615540228784084
1717857805500263000,9.702262939453124,0.00012159626930952072,0.00011609774082899094,-0.0013285852037370205
1717857805510304000,9.712303955078125,0.001844128593802452,-0.00021067168563604355,-0.0013347105123102665
1717857805520345000,9.722344970703125,-0.0006962583865970373,-0.0007361816242337227,-0.00011185277253389359
1717857805530386000,9.732385986328126,0.0005237357690930367,0.0009701056405901909,0.00011717900633811951
1717857805540427000,9.742427001953125,-0.00014846213161945343,-0.0022695292718708515,0.004384706728160381
1717857805550466800,9.752466796875,-0.0000376745592802763,0.0048821233212947845,0.0015180804766714573
1717857805560507600,9.762507568359375,0.0009177150204777718,-0.0005010105669498444,0.0014125737361609936
1717857805570548700,9.772548828125,-0.0009744609706103802,-0.00034734606742858887,-0.0028010793030261993
1717857805580589800,9.78258984375,0.0005261446349322796,-0.0024643228389322758,-0.0009145187214016914
1717857805590630700,9.792630615234375,-0.0004376533906906843,-0.0004320647567510605,-0.0000963960774242878
1717857805600671700,9.802671630859376,0.0015496062114834785,0.0022885333746671677,0.0003269314765930176
1717857805610711800,9.8127119140625,0.0006188312545418739,-0.0001661013811826706,-0.001094131264835596
1717857805620753000,9.8227529296875,0.0004518195055425167,-0.00016360357403755188,-0.000042957253754138947
1717857805630793700,9.832793701171875,-0.0022326468024402857,-0.0021846764720976353,-0.002644066233187914
1717857805640834800,9.842834716796874,-0.0003773057833313942,-0.001709919422864914,-0.0018993308767676353
1717857805650876000,9.8528759765625,-0.0008763822261244059,0.0012528477236628532,-0.0007118275389075279
1717857805660916000,9.862916015625,-0.0009679545182734728,-0.0026823030784726143,-0.0012838644906878471
1717857805670956800,9.872956787109375,0.0011668354272842407,-0.001145925372838974,-0.0008588242344558239
1717857805680998000,9.882997802734375,0.0005837418138980865,0.0007477719336748123,0.0007981760427355766
1717857805691038700,9.893038818359376,-0.0005451720207929611,0.0016825413331389427,-0.00010410277172923088
1717857805701079800,9.903079833984375,0.00030594971030950546,0.0008594999089837074,-0.00027232011780142784
1717857805711121000,9.913120849609374,0.00030887918546795845,0.0000680088996887207,-0.001259020995348692
1717857805721161000,9.923160888671875,-0.000567705137655139,-0.0022197472862899303,-0.0006015845574438572
1717857805731201800,9.933201904296874,0.0009007616899907589,-0.0007909610867500305,0.00014303531497716904
1717857805741243000,9.943242919921875,-0.0006910820957273245,0.0011226097121834755,0.0010648067109286785
1717857805751284000,9.953283935546875,0.0008029513992369175,0.0005031591281294823,0.000664267223328352
1717857805761324800,9.96332470703125,-0.0006439539138227701,-0.0009749941527843475,-0.0010776128619909286
1717857805771364900,9.97336474609375,-0.00034035369753837585,-0.00020427536219358444,-0.0007998449727892876
1717857805781406000,9.983406005859376,-0.0004602060653269291,-0.00002466980367898941,0.0011336724273860455
1717857805791447000,9.993447021484375,-0.000004539266228675842,0.001057107001543045,-0.00046289246529340744
1717857805801488000,10.00348779296875,-0.000837886705994606,-0.0008703339844942093,0.0014361506327986717
1717857805811529000,10.013529052734375,-0.000953734153881669,-0.0007757917046546936,-0.002001191023737192
1717857805821569800,10.02356982421875,-0.0019191710744053125,-0.0019191722385585308,-0.0016016880981624126
1717857805831609900,10.03360986328125,0.0004102960228919983,-0.000834466889500618,-0.0001574559137225151
1717857805841651000,10.04365087890625,0.000012656673789024353,-0.0001342063769698143,0.0012258109636604786
1717857805851692000,10.053692138671876,-0.00040066568180918694,-0.0007853489369153976,-0.000456241425126791
1717857805861732900,10.06373291015625,-0.001344895688816905,-0.002253192011266947,0.0004525827243924141
1717857805871774000,10.07377392578125,-0.00015472900122404099,-0.0000478280708193779,0.00022701313719153404
1717857805881813800,10.083813720703125,0.0009052488021552563,-0.0003223232924938202,-0.00025627994909882545
1717857805891854800,10.093854736328124,0.0002029729075729847,-0.001200101338326931,0.0005916706286370754
1717857805901895700,10.103895751953125,0.0003515849821269512,-0.0006089415401220322,-0.00011914456263184547
1717857805911936800,10.113936767578124,0.0015044673345983028,-0.0007607415318489075,0.000022802036255598068
1717857805921977900,10.123977783203125,0.0004650908522307873,-0.00008500926196575165,0.0004286058247089386
1717857805932018700,10.134018798828125,-0.0006771387998014688,-0.0005460018292069435,-0.001208172645419836
1717857805942058800,10.144058837890626,0.00046913279220461845,0.0005164695903658867,-0.0003591235727071762
1717857805952099800,10.154099853515625,-0.0007830855902284384,0.0010741353034973145,-0.0006621913053095341
1717857805962140700,10.164140625,0.00011421600356698036,-0.0007764380425214767,-0.0005475799553096294
1717857805972181800,10.174181640625,-0.001163302455097437,0.0008081430569291115,-0.0013153692707419395
1717857805982222800,10.184222900390624,0.0007248017936944962,-0.0000187847763299942,0.00029433146119117737
1717857805992263000,10.194262939453125,0.0021594464778900146,0.00018920842558145523,-0.0015847953036427498
1717857806002303700,10.2043037109375,-0.00015110895037651062,-0.0012304680421948433,0.0005844770930707455
1717857806012344800,10.2143447265625,-0.0014976032543927431,0.00011709146201610565,0.0007282877340912819
1717857806022386000,10.224385986328125,-0.0008365472313016653,0.0009640809148550034,0.000570991076529026
1717857806032426800,10.2344267578125,-0.0001084387768059969,0.0012634200975298882,0.000823458656668663
1717857806042467800,10.2444677734375,0.0008715642616152763,-0.0005780775099992752,0.00032371561974287033
1717857806052508000,10.2545078125,-0.00004855799488723278,0.00016308017075061798,-0.0008107908070087433
1717857806062549000,10.264549072265625,-0.0007642360869795084,-0.0008348636329174042,-0.00031069526448845863
1717857806072589800,10.27458984375,-0.0013799590524286032,0.0009854063391685486,-0.0017067240551114082
1717857806082631000,10.284630859375,0.0000817091204226017,-0.00043027568608522415,0.0015302766114473343
1717857806092671700,10.294671630859375,-0.00023467466235160828,0.00033724773675203323,0.0005797944031655788
1717857806102712800,10.304712890625,0.001374144572764635,-0.0002825763076543808,-0.00027338648214936256
1717857806112753000,10.3147529296875,0.0009134178981184959,-0.00008017569780349731,0.0004786904901266098
1717857806122794000,10.3247939453125,0.0004209703765809536,0.0005789538845419884,0.0001590973697602749
1717857806132834800,10.334834716796875,-0.0005936939269304276,-0.00037552323192358017,0.0006605703383684158
1717857806142876000,10.3448759765625,0.0002784496173262596,0.000017379410564899445,0.00038277124986052513
1717857806152917000,10.3549169921875,0.0007943040691316128,-0.00115228071808815,0.0006363042630255222
1717857806162957000,10.36495703125,-0.0007508534472435713,0.0005947910249233246,-0.00027602817863225937
1717857806172998000,10.374997802734375,-0.0001798716839402914,-0.0011455845087766647,-0.0007641855627298355
1717857806183039000,10.3850390625,-0.001628170721232891,-0.0002421792596578598,-0.0009034532122313976
1717857806193079300,10.395079345703126,0.0007263300940394402,-0.000012614764273166656,-0.0007364731281995773
1717857806203120000,10.4051201171875,0.0003910139203071594,-0.00024254526942968369,0.0002224249765276909
1717857806213161200,10.4151611328125,0.000015774276107549667,-0.0011610696092247963,0.0012197787873446941
1717857806223201000,10.425200927734375,0.00009525613859295845,0.0006570592522621155,-0.0020370841957628727
1717857806233242000,10.4352421875,-0.0013420518953353167,0.0005252324044704437,-0.0005417191423475742
1717857806243283000,10.445282958984375,-0.0005526430904865265,-0.00011856108903884888,-0.0011517275124788284
1717857806253324000,10.455323974609374,0.0012479200959205627,-0.0005441345274448395,-0.00008513126522302628
1717857806263365000,10.465365234375,0.000021618325263261795,0.00040581822395324707,-0.0005974289961159229
1717857806273405200,10.4754052734375,0.0009934059344232082,-0.0014016693457961082,0.0012287008576095104
1717857806283446000,10.485446044921876,0.00004769861698150635,-0.00002161320298910141,-0.00018485542386770248
1717857806293487000,10.495487060546875,-0.0000902530737221241,-0.00022641010582447052,0.0002018357627093792
1717857806303528200,10.505528076171874,-0.00025282870046794415,-0.0005593039095401764,0.00019817007705569267
1717857806313569000,10.515569091796875,-0.00188215053640306,-0.001045864075422287,0.0007129590958356857
1717857806323610000,10.525610107421874,-0.0018198094330728054,-0.0002026185393333435,0.0013432158157229424
1717857806333650200,10.535650146484375,-0.0009052800014615059,0.000058904290199279785,-0.00047013070434331894
1717857806343691000,10.54569091796875,-0.0005021372344344854,-0.001400095410645008,-0.0004208753816783428
1717857806353732000,10.555732177734376,-0.0008677893783897161,-0.0005875648930668831,-0.001160967629402876
1717857806363773200,10.565773193359375,-0.00013195141218602657,-0.0006808582693338394,-0.00003134738653898239
1717857806373814000,10.57581396484375,0.00004195328801870346,-0.000491507351398468,0.0015098238363862038
1717857806383854000,10.58585400390625,-0.0002528592012822628,0.00007289741188287735,0.0016820714809000492
1717857806393895200,10.595895263671874,0.0008100084960460663,0.00006703846156597137,-0.0004937313497066498
1717857806403936300,10.605936279296875,-0.0017438058275729418,0.0002579446882009506,0.00011771125718951225
1717857806413977000,10.61597705078125,-0.00061968551017344,-0.0008539250120520592,0.0003555319271981716
1717857806424018200,10.62601806640625,-0.00031670089811086655,-0.0004443647339940071,0.0005114013329148293
1717857806434059300,10.636059326171875,0.0010630828328430653,-0.0004174672067165375,0.000874390359967947
1717857806444099000,10.64609912109375,-0.0000714475754648447,0.0007746713235974312,0.0001016068272292614
1717857806454140200,10.65614013671875,-0.0014240669552236795,-0.0001273415982723236,0.00043902918696403503
1717857806464181200,10.66618115234375,-0.0004847289528697729,0.000032405368983745575,-0.0004292982630431652
1717857806474222000,10.67622216796875,0.0013238238170742989,-0.0006163408979773521,0.0015257280319929123
1717857806484263200,10.68626318359375,0.0018900702707469463,-0.0002039903774857521,-0.00007406063377857208
1717857806494304300,10.69630419921875,-0.00002713920548558235,0.0007555466145277023,-0.0021534571424126625
1717857806504344300,10.70634423828125,-0.00019848602823913097,0.00046711042523384094,0.00063338503241539
1717857806514385200,10.71638525390625,-0.00039209797978401184,0.0003792261704802513,-0.0002944604493677616
1717857806524426200,10.72642626953125,0.00022996822372078896,0.00025238655507564545,0.0006408724002540112
1717857806534467300,10.73646728515625,-0.0005354241002351046,0.00041244272142648697,-0.00040574977174401283
1717857806544508200,10.746508056640625,-0.0005130984354764223,0.0016645696014165878,0.0003205682151019573
1717857806554548000,10.7565478515625,-0.0014531943015754223,0.0005047628656029701,-0.00008636293932795525
1717857806564589000,10.766589111328125,-0.00033659953624010086,-0.0015782555565238,-0.0006270753219723701
1717857806574630100,10.776630126953124,0.000016269274055957794,0.0000803610309958458,-0.000406565610319376
1717857806584671000,10.7866708984375,0.00044641830027103424,-0.00018479302525520325,-0.0005134339444339275
1717857806594712000,10.796712158203125,-0.0003868849016726017,-0.0005602985620498657,-0.00005563627928495407
1717857806604753000,10.8067529296875,0.0012986897490918636,-0.00027646590024232864,-0.0007072286680340767
1717857806614793000,10.81679296875,0.0010571409948170185,0.00035257264971733093,0.0010126405395567417
1717857806624834000,10.826833984375,0.0008235618006438017,0.0001018177717924118,0.00048156827688217163
1717857806634875100,10.836875244140625,-0.0008228046353906393,-0.0004734257236123085,-0.0006350954063236713
1717857806644916000,10.846916015625,-0.0004685581661760807,-0.0006835730746388435,-0.0002747680991888046
1717857806654957000,10.85695703125,-0.001069899881258607,0.0004325574263930321,-0.0007453486323356628
1717857806664997000,10.8669970703125,0.00012193131260573864,0.0013527348637580872,0.002364245243370533
1717857806675038200,10.8770380859375,-0.0008645034395158291,-0.00045874714851379395,0.00031627435237169266
1717857806685079000,10.8870791015625,-0.0004891450516879559,0.00023047253489494324,-0.00032444484531879425
1717857806695120100,10.8971201171875,0.0002959545236080885,-0.0012060366570949554,-0.0016901134513318539
1717857806705161200,10.9071611328125,0.0007976463530212641,-0.0013663731515407562,-0.0004472951404750347
1717857806715202000,10.9172021484375,-0.00041382573544979095,-0.0006198892369866371,-0.0005266573280096054
1717857806725242000,10.9272421875,0.000035751378163695335,0.0006041787564754486,0.0005183708854019642
1717857806735283200,10.937283203125,-0.0011669322848320007,-0.0021364805288612843,-0.000758881215006113
1717857806745324000,10.947323974609375,-0.00006927177309989929,-0.000559699721634388,-0.0008181803859770298
1717857806755365000,10.957365234375,0.0004210162442177534,-0.0010031163692474365,-0.00035425741225481033
1717857806765406200,10.96740625,-0.00004062033258378506,0.00016015395522117615,0.0009383754804730415
1717857806775446300,10.9774462890625,-0.0009903034660965204,-0.0013455972075462341,-0.0009029339998960495
1717857806785487000,10.987487060546876,-0.000946560176089406,-0.0006909891963005066,-0.00002939905971288681
1717857806795528200,10.997528076171875,-0.0011859782971441746,-0.0006675533950328827,-0.0002877255901694298
1717857806805569300,11.0075693359375,-0.0002006213180720806,0.0002666860818862915,-0.0015754648484289646
1717857806815610000,11.017610107421875,-0.0008877168875187635,0.00009144935756921768,0.0006349585019052029
1717857806825651200,11.027651123046875,-0.0010539144277572632,0.0006856750696897507,0.0012400094419717789
1717857806835691300,11.037691162109375,-0.00008452381007373333,0.00002920534461736679,0.0015891497023403645
1717857806845732000,11.047732177734375,-0.0005559101700782776,-0.0002585621550679207,-0.0009983428753912449
1717857806855773200,11.057773193359376,0.001140789594501257,-0.00025296956300735474,0.00020673777908086777
1717857806865814300,11.067814208984375,0.0006277479697018862,-0.000038761645555496216,0.0016165971755981445
1717857806875855000,11.077855224609374,0.001177690690383315,0.000013169832527637482,-0.0016303285956382751
1717857806885895000,11.08789501953125,0.0005380865186452866,-0.0013333987444639206,0.00026641692966222763
1717857806895936000,11.09793603515625,-0.000355403870344162,-0.00040928181260824203,0.0006555044092237949
1717857806905977000,11.10797705078125,0.00028546247631311417,-0.0005914038047194481,0.0002990327775478363
1717857806916018000,11.118017822265625,-0.00044690677896142006,0.0007351171225309372,0.0003669434227049351
1717857806926059000,11.12805908203125,-0.00005575735121965408,0.0007104510441422462,0.00012413877993822098
1717857806936100000,11.13810009765625,0.0016476004384458065,-0.0008773254230618477,0.0010929969139397144
1717857806946140200,11.14814013671875,0.00007189437747001648,-0.0009507918730378151,-0.0011169780045747757
1717857806956181000,11.158180908203125,-0.0012780618853867054,0.00009529851377010345,0.0001893024891614914
1717857806966222000,11.16822216796875,0.000043270643800497055,0.00010415446013212204,-0.0005911961197853088
1717857806976263200,11.17826318359375,-0.00012051383964717388,-0.0005014482885599136,-0.0009254226461052895
1717857806986304000,11.188303955078124,0.0005424206610769033,-0.0016451957635581493,-0.0002535036765038967
1717857806996345000,11.198344970703126,-0.00015958864241838455,0.0008288808166980743,-0.0006963871419429779
1717857807006385200,11.20838525390625,-0.000279152300208807,0.0016161100938916206,0.0004945904947817326
1717857807016426000,11.218426025390626,0.00012910994701087475,0.0007670940831303596,0.0004032440483570099
1717857807026467000,11.228467041015625,0.0008654468692839146,0.001156848855316639,-0.0006724437698721886
1717857807036508200,11.238508056640624,-0.0006261894013732672,-0.0002018958330154419,-0.0018277228809893131
1717857807046549000,11.248549072265625,0.0020591099746525288,-0.0004590284079313278,-0.0007369830273091793
1717857807056589000,11.258589111328124,0.0005821208469569683,-0.0008092336356639862,0.0013741045258939266
1717857807066630100,11.268630126953125,0.00020072399638593197,-0.0003651045262813568,0.001276812981814146
1717857807076671200,11.278671142578125,-0.0005763862282037735,-0.00040611717849969864,-0.0007245526649057865
1717857807086712000,11.288712158203126,-0.0002205756027251482,-0.0008889399468898773,-0.00039369380101561546
1717857807096753200,11.298753173828125,-0.0004927506670355797,0.0001337137073278427,-0.00035294750705361366
1717857807106794200,11.308794189453126,0.0000884481705725193,0.00015400536358356476,-0.0006295139901340008
1717857807116834000,11.318833984375,-0.0009179601911455393,0.0009068809449672699,0.0013537420891225338
1717857807126875100,11.328875244140624,-0.0013941563665866852,0.00015627872198820114,-0.0010448074899613857
1717857807136916200,11.338916259765625,0.000977654941380024,0.000008206814527511597,-0.0007950030267238617
1717857807146957000,11.34895703125,-0.0002983212471008301,0.00048827100545167923,0.002314983634278178
1717857807156998100,11.358998046875,-0.00028314138762652874,-0.0009839236736297607,0.0010696896351873875
1717857807167038200,11.3690380859375,0.0009253730531781912,-0.0004064170643687248,-0.0021512540988624096
1717857807177079300,11.379079345703126,0.0002851493190973997,0.00021862611174583435,0.00009565521031618118
1717857807187120600,11.38912060546875,-0.0007616770453751087,-0.0006525814533233643,-0.00003319280222058296
1717857807197161700,11.39916162109375,0.0010127869900316,-0.0005865348502993584,0.0013316771946847439
1717857807207202600,11.40920263671875,0.00011037266813218594,-0.000015011988580226898,-0.0008945604786276817
1717857807217242600,11.41924267578125,-0.00004462338984012604,0.0006196200847625732,0.00014780089259147644
1717857807227283700,11.42928369140625,0.0009145440999418497,-0.0012258859351277351,0.0002118968404829502
1717857807237324800,11.43932470703125,0.00079550058580935,0.000028463080525398254,0.00024465378373861313
1717857807247365600,11.44936572265625,-0.0008231364190578461,-0.0012957584112882614,-0.000969060231000185
1717857807257406700,11.45940673828125,-0.0007200720719993114,-0.0003311615437269211,-0.0008992850780487061
1717857807267447800,11.46944775390625,0.0006403978914022446,-0.00012908224016427994,0.0014023478142917156
1717857807277487900,11.47948779296875,-0.0010887926910072565,-0.0002976600080728531,0.001040956936776638
