time,seconds_elapsed,z,y,x
1716735564906106600,0.504106689453125,9.766247749328613,0.026336219161748886,0.05027823522686958
1716735564916106800,0.514106689453125,9.76864242553711,0.026336219161748886,0.05506663769483566
1716735564926106600,0.524106689453125,9.771036148071289,0.023942016065120697,0.05506663769483566
1716735564936106800,0.534106689453125,9.773430824279785,0.023942016065120697,0.05267243832349777
1716735564946106600,0.544106689453125,9.773430824279785,0.026336219161748886,0.05267243832349777
1716735564956106800,0.554106689453125,9.773430824279785,0.028730420395731926,0.05267243832349777
1716735564966106600,0.564106689453125,9.775824546813965,0.028730420395731926,0.05027823522686958
1716735564976106800,0.574106689453125,9.778219223022461,0.026336219161748886,0.05027823522686958
1716735564986106600,0.584106689453125,9.778219223022461,0.028730420395731926,0.05267243832349777
1716735564996106800,0.594106689453125,9.78061294555664,0.028730420395731926,0.05267243832349777
1716735565006106600,0.604106689453125,9.783007621765137,0.028730420395731926,0.05267243832349777
1716735565016106800,0.614106689453125,9.785401344299316,0.031124621629714966,0.05267243832349777
1716735565026106600,0.624106689453125,9.783007621765137,0.031124621629714966,0.05267243832349777
1716735565036106800,0.634106689453125,9.783007621765137,0.033518824726343155,0.05027823522686958
1716735565046106600,0.644106689453125,9.783007621765137,0.031124621629714966,0.05027823522686958
1716735565056106800,0.654106689453125,9.783007621765137,0.031124621629714966,0.05027823522686958
1716735565066106600,0.664106689453125,9.785401344299316,0.031124621629714966,0.05506663769483566
1716735565076106800,0.674106689453125,9.785401344299316,0.028730420395731926,0.05267243832349777
1716735565086106600,0.684106689453125,9.785401344299316,0.026336219161748886,0.05267243832349777
1716735565096106800,0.694106689453125,9.787796020507812,0.026336219161748886,0.05267243832349777
1716735565106106600,0.704106689453125,9.787796020507812,0.026336219161748886,0.05506663769483566
1716735565116106800,0.714106689453125,9.785401344299316,0.026336219161748886,0.05506663769483566
1716735565126106600,0.724106689453125,9.783007621765137,0.026336219161748886,0.05506663769483566
1716735565136106800,0.734106689453125,9.783007621765137,0.026336219161748886,0.05267243832349777
1716735565146106600,0.744106689453125,9.783007621765137,0.023942016065120697,0.05027823522686958
1716735565156106800,0.754106689453125,9.783007621765137,0.023942016065120697,0.047884032130241394
1716735565166106600,0.764106689453125,9.783007621765137,0.026336219161748886,0.047884032130241394
1716735565176106800,0.774106689453125,9.783007621765137,0.026336219161748886,0.05027823522686958
1716735565186106600,0.784106689453125,9.785401344299316,0.026336219161748886,0.05027823522686958
1716735565196106800,0.794106689453125,9.785401344299316,0.028730420395731926,0.05267243832349777
1716735565206106600,0.804106689453125,9.785401344299316,0.028730420395731926,0.05267243832349777
1716735565216106800,0.814106689453125,9.783007621765137,0.028730420395731926,0.05027823522686958
1716735565226106600,0.824106689453125,9.785401344299316,0.031124621629714966,0.05027823522686958
1716735565236106800,0.834106689453125,9.785401344299316,0.031124621629714966,0.05027823522686958
1716735565246106600,0.844106689453125,9.783007621765137,0.031124621629714966,0.047884032130241394
1716735565256106800,0.854106689453125,9.783007621765137,0.031124621629714966,0.05267243832349777
1716735565266106600,0.864106689453125,9.78061294555664,0.031124621629714966,0.05027823522686958
1716735565276106800,0.874106689453125,9.78061294555664,0.028730420395731926,0.05267243832349777
1716735565286106600,0.884106689453125,9.783007621765137,0.026336219161748886,0.05506663769483566
1716735565296106800,0.894106689453125,9.785401344299316,0.028730420395731926,0.05267243832349777
1716735565306106600,0.904106689453125,9.785401344299316,0.028730420395731926,0.05267243832349777
1716735565316106800,0.914106689453125,9.787796020507812,0.026336219161748886,0.05506663769483566
1716735565326106600,0.924106689453125,9.787796020507812,0.031124621629714966,0.05506663769483566
1716735565336106800,0.934106689453125,9.787796020507812,0.031124621629714966,0.05267243832349777
1716735565346106600,0.944106689453125,9.785401344299316,0.028730420395731926,0.05027823522686958
1716735565356106800,0.954106689453125,9.785401344299316,0.028730420395731926,0.05267243832349777
1716735565366106600,0.964106689453125,9.785401344299316,0.031124621629714966,0.05027823522686958
1716735565376106800,0.974106689453125,9.785401344299316,0.031124621629714966,0.05027823522686958
1716735565386106600,0.984106689453125,9.785401344299316,0.031124621629714966,0.05267243832349777
1716735565396106800,0.994106689453125,9.785401344299316,0.031124621629714966,0.05027823522686958
1716735565406106600,1.004106689453125,9.783007621765137,0.031124621629714966,0.05027823522686958
1716735565416106800,1.014106689453125,9.785401344299316,0.031124621629714966,0.05027823522686958
1716735565426106600,1.024106689453125,9.783007621765137,0.028730420395731926,0.05027823522686958
1716735565436106800,1.034106689453125,9.785401344299316,0.028730420395731926,0.05267243832349777
1716735565446106600,1.044106689453125,9.785401344299316,0.031124621629714966,0.05506663769483566
1716735565456106800,1.054106689453125,9.785401344299316,0.028730420395731926,0.05506663769483566
1716735565466106600,1.064106689453125,9.785401344299316,0.031124621629714966,0.05746084079146385
1716735565476106800,1.074106689453125,9.787796020507812,0.033518824726343155,0.05985504388809204
1716735565486106600,1.084106689453125,9.787796020507812,0.031124621629714966,0.05985504388809204
1716735565496106800,1.094106689453125,9.785401344299316,0.031124621629714966,0.05985504388809204
1716735565506106600,1.104106689453125,9.783007621765137,0.031124621629714966,0.05746084079146385
1716735565516106200,1.114106201171875,9.785401344299316,0.031124621629714966,0.05506663769483566
1716735565526106400,1.1241064453125,9.785401344299316,0.028730420395731926,0.05267243832349777
1716735565536106200,1.134106201171875,9.785401344299316,0.031124621629714966,0.05267243832349777
1716735565546106400,1.1441064453125,9.787796020507812,0.031124621629714966,0.05027823522686958
1716735565556106200,1.154106201171875,9.790189743041992,0.028730420395731926,0.05027823522686958
1716735565566106400,1.1641064453125,9.790189743041992,0.028730420395731926,0.047884032130241394
1716735565576106200,1.174106201171875,9.790189743041992,0.028730420395731926,0.05027823522686958
1716735565586106400,1.1841064453125,9.790189743041992,0.028730420395731926,0.05027823522686958
1716735565596106200,1.194106201171875,9.792584419250488,0.028730420395731926,0.047884032130241394
1716735565606106400,1.2041064453125,9.790189743041992,0.031124621629714966,0.047884032130241394
1716735565616106200,1.214106201171875,9.790189743041992,0.028730420395731926,0.047884032130241394
1716735565626106400,1.2241064453125,9.790189743041992,0.026336219161748886,0.05027823522686958
1716735565636106200,1.234106201171875,9.790189743041992,0.026336219161748886,0.05027823522686958
1716735565646106400,1.2441064453125,9.790189743041992,0.026336219161748886,0.05027823522686958
1716735565656106200,1.254106201171875,9.799766540527344,0.028730420395731926,0.043095629662275314
1716735565666106400,1.2641064453125,9.830891609191895,0.028730420395731926,0.040701430290937424
1716735565676106200,1.274106201171875,9.826103210449219,0.028730420395731926,0.043095629662275314
1716735565686106400,1.2841064453125,9.809343338012695,0.028730420395731926,0.047884032130241394
1716735565696106200,1.294106201171875,9.80455493927002,0.031124621629714966,0.047884032130241394
1716735565706106400,1.3041064453125,9.828496932983398,0.031124621629714966,0.05027823522686958
1716735565716106200,1.314106201171875,9.826103210449219,0.033518824726343155,0.05027823522686958
1716735565726106400,1.3241064453125,9.799766540527344,0.033518824726343155,0.05027823522686958
1716735565736106200,1.334106201171875,9.794978141784668,0.033518824726343155,0.05267243832349777
1716735565746106400,1.3441064453125,9.811738014221191,0.035913024097681046,0.05027823522686958
1716735565756106200,1.354106201171875,9.806949615478516,0.033518824726343155,0.05027823522686958
1716735565766106400,1.3641064453125,9.790189743041992,0.031124621629714966,0.05027823522686958
1716735565776106200,1.374106201171875,9.785401344299316,0.028730420395731926,0.047884032130241394
1716735565786106400,1.3841064453125,9.799766540527344,0.033518824726343155,0.047884032130241394
1716735565796106200,1.394106201171875,9.797372817993164,0.031124621629714966,0.047884032130241394
1716735565806106400,1.4041064453125,9.78061294555664,0.031124621629714966,0.047884032130241394
1716735565816106800,1.414106689453125,9.783007621765137,0.033518824726343155,0.0454898327589035
1716735565826106600,1.424106689453125,9.797372817993164,0.033518824726343155,0.047884032130241394
1716735565836106800,1.434106689453125,9.792584419250488,0.031124621629714966,0.047884032130241394
1716735565846106600,1.444106689453125,9.78061294555664,0.031124621629714966,0.047884032130241394
1716735565856106800,1.454106689453125,9.78061294555664,0.028730420395731926,0.05027823522686958
1716735565866106600,1.464106689453125,9.792584419250488,0.028730420395731926,0.05027823522686958
1716735565876106800,1.474106689453125,9.792584419250488,0.028730420395731926,0.05027823522686958
1716735565886106600,1.484106689453125,9.783007621765137,0.028730420395731926,0.05267243832349777
1716735565896106800,1.494106689453125,9.78061294555664,0.031124621629714966,0.05506663769483566
1716735565906106600,1.504106689453125,9.787796020507812,0.028730420395731926,0.05267243832349777
1716735565916106800,1.514106689453125,9.790189743041992,0.028730420395731926,0.05027823522686958
1716735565926106600,1.524106689453125,9.783007621765137,0.028730420395731926,0.05027823522686958
1716735565936106800,1.534106689453125,9.78061294555664,0.023942016065120697,0.047884032130241394
1716735565946106600,1.544106689453125,9.787796020507812,0.026336219161748886,0.05027823522686958
1716735565956106800,1.554106689453125,9.792584419250488,0.031124621629714966,0.05027823522686958
1716735565966106600,1.564106689453125,9.787796020507812,0.033518824726343155,0.05027823522686958
1716735565976106800,1.574106689453125,9.790189743041992,0.033518824726343155,0.05267243832349777
1716735565986106600,1.584106689453125,9.794978141784668,0.033518824726343155,0.05267243832349777
1716735565996106800,1.594106689453125,9.797372817993164,0.033518824726343155,0.05027823522686958
1716735566006106600,1.604106689453125,9.790189743041992,0.033518824726343155,0.047884032130241394
1716735566016106800,1.614106689453125,9.785401344299316,0.033518824726343155,0.05027823522686958
1716735566026106600,1.624106689453125,9.790189743041992,0.031124621629714966,0.05027823522686958
1716735566036106800,1.634106689453125,9.792584419250488,0.033518824726343155,0.05267243832349777
1716735566046106600,1.644106689453125,9.787796020507812,0.035913024097681046,0.047884032130241394
1716735566056106800,1.654106689453125,9.785401344299316,0.038307227194309235,0.047884032130241394
1716735566068519200,1.666519287109375,9.787796020507812,0.038307227194309235,0.047884032130241394
1716735566078519000,1.67651904296875,9.792584419250488,0.035913024097681046,0.05267243832349777
1716735566088519200,1.686519287109375,9.787796020507812,0.033518824726343155,0.05267243832349777
1716735566098519000,1.69651904296875,9.785401344299316,0.033518824726343155,0.05027823522686958
1716735566108519200,1.706519287109375,9.790189743041992,0.035913024097681046,0.05027823522686958
1716735566118519000,1.71651904296875,9.787796020507812,0.038307227194309235,0.047884032130241394
1716735566128519200,1.726519287109375,9.785401344299316,0.040701430290937424,0.047884032130241394
1716735566138519000,1.73651904296875,9.78061294555664,0.038307227194309235,0.047884032130241394
1716735566148519200,1.746519287109375,9.783007621765137,0.040701430290937424,0.043095629662275314
1716735566158519000,1.75651904296875,9.785401344299316,0.038307227194309235,0.040701430290937424
1716735566168519200,1.766519287109375,9.783007621765137,0.033518824726343155,0.040701430290937424
1716735566178519000,1.77651904296875,9.783007621765137,0.031124621629714966,0.043095629662275314
1716735566188519200,1.786519287109375,9.785401344299316,0.031124621629714966,0.047884032130241394
1716735566198519000,1.79651904296875,9.785401344299316,0.033518824726343155,0.05267243832349777
1716735566208519200,1.806519287109375,9.787796020507812,0.033518824726343155,0.05267243832349777
1716735566218519000,1.81651904296875,9.785401344299316,0.033518824726343155,0.05027823522686958
1716735566228519200,1.826519287109375,9.787796020507812,0.035913024097681046,0.05027823522686958
1716735566238519000,1.83651904296875,9.790189743041992,0.031124621629714966,0.047884032130241394
1716735566248519200,1.846519287109375,9.790189743041992,0.028730420395731926,0.047884032130241394
1716735566258519000,1.85651904296875,9.787796020507812,0.028730420395731926,0.047884032130241394
1716735566268519200,1.866519287109375,9.792584419250488,0.031124621629714966,0.047884032130241394
1716735566278519000,1.87651904296875,9.794978141784668,0.028730420395731926,0.05027823522686958
1716735566288519200,1.886519287109375,9.790189743041992,0.028730420395731926,0.047884032130241394
1716735566298519000,1.89651904296875,9.790189743041992,0.028730420395731926,0.05027823522686958
1716735566308519200,1.906519287109375,9.792584419250488,0.031124621629714966,0.05267243832349777
1716735566318519000,1.91651904296875,9.794978141784668,0.031124621629714966,0.05506663769483566
1716735566328519200,1.926519287109375,9.794978141784668,0.033518824726343155,0.05267243832349777
1716735566338519000,1.93651904296875,9.790189743041992,0.033518824726343155,0.05027823522686958
1716735566348519200,1.946519287109375,9.792584419250488,0.033518824726343155,0.047884032130241394
1716735566358519000,1.95651904296875,9.792584419250488,0.035913024097681046,0.05027823522686958
1716735566368519200,1.966519287109375,9.792584419250488,0.038307227194309235,0.047884032130241394
1716735566378519000,1.97651904296875,9.792584419250488,0.035913024097681046,0.047884032130241394
1716735566388519200,1.986519287109375,9.792584419250488,0.038307227194309235,0.047884032130241394
1716735566398519000,1.99651904296875,9.790189743041992,0.038307227194309235,0.05027823522686958
1716735566408519200,2.006519287109375,9.787796020507812,0.038307227194309235,0.047884032130241394
1716735566418519000,2.01651904296875,9.787796020507812,0.035913024097681046,0.0454898327589035
1716735566428519200,2.026519287109375,9.787796020507812,0.035913024097681046,0.047884032130241394
1716735566438519000,2.03651904296875,9.790189743041992,0.035913024097681046,0.05267243832349777
1716735566448519200,2.046519287109375,9.790189743041992,0.038307227194309235,0.05267243832349777
1716735566458519000,2.05651904296875,9.787796020507812,0.038307227194309235,0.05267243832349777
1716735566468519200,2.066519287109375,9.787796020507812,0.035913024097681046,0.05506663769483566
1716735566478519000,2.07651904296875,9.785401344299316,0.033518824726343155,0.05746084079146385
1716735566488519200,2.086519287109375,9.785401344299316,0.033518824726343155,0.05506663769483566
1716735566498519000,2.09651904296875,9.785401344299316,0.033518824726343155,0.05267243832349777
1716735566508519200,2.106519287109375,9.783007621765137,0.033518824726343155,0.05267243832349777
1716735566518519000,2.11651904296875,9.785401344299316,0.038307227194309235,0.047884032130241394
1716735566528519200,2.126519287109375,9.787796020507812,0.040701430290937424,0.047884032130241394
1716735566538519000,2.13651904296875,9.78061294555664,0.035913024097681046,0.047884032130241394
1716735566548519200,2.146519287109375,9.797372817993164,0.040701430290937424,0.043095629662275314
1716735566558519000,2.15651904296875,9.816526412963867,0.038307227194309235,0.0454898327589035
1716735566568519200,2.166519287109375,9.816526412963867,0.033518824726343155,0.047884032130241394
1716735566578519000,2.17651904296875,9.80216121673584,0.028730420395731926,0.047884032130241394
1716735566588519200,2.186519287109375,9.797372817993164,0.026336219161748886,0.05027823522686958
1716735566598519000,2.19651904296875,9.80455493927002,0.028730420395731926,0.05267243832349777
1716735566608519200,2.206519287109375,9.799766540527344,0.028730420395731926,0.05506663769483566
1716735566618519000,2.21651904296875,9.78061294555664,0.033518824726343155,0.05506663769483566
1716735566628519200,2.226519287109375,9.785401344299316,0.031124621629714966,0.05506663769483566
1716735566638519000,2.23651904296875,9.797372817993164,0.035913024097681046,0.05267243832349777
1716735566648519200,2.246519287109375,9.794978141784668,0.031124621629714966,0.05267243832349777
1716735566658519000,2.25651904296875,9.78061294555664,0.028730420395731926,0.05027823522686958
1716735566668519200,2.266519287109375,9.785401344299316,0.026336219161748886,0.05267243832349777
1716735566678519000,2.27651904296875,9.797372817993164,0.023942016065120697,0.05506663769483566
1716735566688519200,2.286519287109375,9.794978141784668,0.023942016065120697,0.05746084079146385
1716735566698519000,2.29651904296875,9.783007621765137,0.028730420395731926,0.05506663769483566
1716735566708519200,2.306519287109375,9.787796020507812,0.033518824726343155,0.05506663769483566
1716735566718519000,2.31651904296875,9.799766540527344,0.035913024097681046,0.05267243832349777
1716735566728519200,2.326519287109375,9.797372817993164,0.033518824726343155,0.05027823522686958
1716735566738519000,2.33651904296875,9.785401344299316,0.033518824726343155,0.05027823522686958
1716735566748519200,2.346519287109375,9.783007621765137,0.033518824726343155,0.047884032130241394
1716735566758519000,2.35651904296875,9.794978141784668,0.031124621629714966,0.047884032130241394
1716735566768519200,2.366519287109375,9.794978141784668,0.028730420395731926,0.047884032130241394
1716735566778519000,2.37651904296875,9.785401344299316,0.031124621629714966,0.05027823522686958
1716735566788518700,2.3865185546875,9.785401344299316,0.033518824726343155,0.05506663769483566
1716735566798518500,2.3965185546875,9.794978141784668,0.031124621629714966,0.05746084079146385
1716735566808518700,2.4065185546875,9.792584419250488,0.028730420395731926,0.05746084079146385
1716735566818518500,2.4165185546875,9.783007621765137,0.026336219161748886,0.05267243832349777
1716735566828518700,2.4265185546875,9.783007621765137,0.026336219161748886,0.05267243832349777
1716735566838518500,2.4365185546875,9.792584419250488,0.026336219161748886,0.05267243832349777
1716735566848518700,2.4465185546875,9.790189743041992,0.031124621629714966,0.05267243832349777
1716735566858518500,2.4565185546875,9.785401344299316,0.031124621629714966,0.05027823522686958
1716735566868518700,2.4665185546875,9.785401344299316,0.031124621629714966,0.05267243832349777
1716735566878518500,2.4765185546875,9.790189743041992,0.031124621629714966,0.05027823522686958
1716735566888518700,2.4865185546875,9.792584419250488,0.028730420395731926,0.05027823522686958
1716735566898518500,2.4965185546875,9.785401344299316,0.026336219161748886,0.05027823522686958
1716735566908518700,2.5065185546875,9.785401344299316,0.031124621629714966,0.047884032130241394
1716735566918518500,2.5165185546875,9.790189743041992,0.033518824726343155,0.047884032130241394
1716735566928518700,2.5265185546875,9.790189743041992,0.035913024097681046,0.05027823522686958
1716735566938518500,2.5365185546875,9.785401344299316,0.033518824726343155,0.047884032130241394
1716735566948518700,2.5465185546875,9.785401344299316,0.035913024097681046,0.05267243832349777
1716735566958518500,2.5565185546875,9.785401344299316,0.035913024097681046,0.05267243832349777
1716735566968518700,2.5665185546875,9.785401344299316,0.035913024097681046,0.05027823522686958
1716735566978518500,2.5765185546875,9.783007621765137,0.031124621629714966,0.05746084079146385
1716735566988518700,2.5865185546875,9.783007621765137,0.031124621629714966,0.05506663769483566
1716735566998518500,2.5965185546875,9.785401344299316,0.031124621629714966,0.05267243832349777
1716735567008518700,2.6065185546875,9.787796020507812,0.031124621629714966,0.05267243832349777
1716735567018518500,2.6165185546875,9.785401344299316,0.033518824726343155,0.05027823522686958
1716735567028518700,2.6265185546875,9.785401344299316,0.033518824726343155,0.05267243832349777
1716735567038518500,2.6365185546875,9.787796020507812,0.033518824726343155,0.05027823522686958
1716735567048518700,2.6465185546875,9.787796020507812,0.035913024097681046,0.0454898327589035
1716735567058518500,2.6565185546875,9.787796020507812,0.035913024097681046,0.0454898327589035
1716735567068518700,2.6665185546875,9.787796020507812,0.038307227194309235,0.0454898327589035
1716735567078518500,2.6765185546875,9.787796020507812,0.040701430290937424,0.047884032130241394
1716735567088519200,2.686519287109375,9.790189743041992,0.038307227194309235,0.047884032130241394
1716735567098519000,2.69651904296875,9.790189743041992,0.038307227194309235,0.05027823522686958
1716735567108519200,2.706519287109375,9.790189743041992,0.035913024097681046,0.05267243832349777
1716735567118519000,2.71651904296875,9.787796020507812,0.035913024097681046,0.05267243832349777
1716735567128519200,2.726519287109375,9.787796020507812,0.035913024097681046,0.05027823522686958
1716735567138519000,2.73651904296875,9.785401344299316,0.033518824726343155,0.047884032130241394
1716735567148519200,2.746519287109375,9.787796020507812,0.031124621629714966,0.05027823522686958
1716735567158519000,2.75651904296875,9.790189743041992,0.031124621629714966,0.0454898327589035
1716735567168519200,2.766519287109375,9.790189743041992,0.033518824726343155,0.043095629662275314
1716735567178519000,2.77651904296875,9.790189743041992,0.035913024097681046,0.0454898327589035
1716735567188519200,2.786519287109375,9.787796020507812,0.033518824726343155,0.043095629662275314
1716735567198519000,2.79651904296875,9.790189743041992,0.035913024097681046,0.043095629662275314
1716735567208519200,2.806519287109375,9.792584419250488,0.033518824726343155,0.040701430290937424
1716735567218519000,2.81651904296875,9.792584419250488,0.033518824726343155,0.043095629662275314
1716735567228519200,2.826519287109375,9.790189743041992,0.033518824726343155,0.047884032130241394
1716735567238519000,2.83651904296875,9.792584419250488,0.033518824726343155,0.0454898327589035
1716735567248519200,2.846519287109375,9.792584419250488,0.031124621629714966,0.0454898327589035
1716735567258519000,2.85651904296875,9.792584419250488,0.031124621629714966,0.0454898327589035
1716735567268519200,2.866519287109375,9.790189743041992,0.028730420395731926,0.043095629662275314
1716735567278519000,2.87651904296875,9.790189743041992,0.026336219161748886,0.040701430290937424
1716735567288519200,2.886519287109375,9.790189743041992,0.028730420395731926,0.043095629662275314
1716735567298519000,2.89651904296875,9.785401344299316,0.023942016065120697,0.047884032130241394
1716735567308519200,2.906519287109375,9.787796020507812,0.026336219161748886,0.05027823522686958
1716735567318519000,2.91651904296875,9.787796020507812,0.026336219161748886,0.05267243832349777
1716735567328519200,2.926519287109375,9.787796020507812,0.026336219161748886,0.05746084079146385
1716735567338519000,2.93651904296875,9.785401344299316,0.026336219161748886,0.05746084079146385
1716735567348519200,2.946519287109375,9.785401344299316,0.026336219161748886,0.05985504388809204
1716735567358519000,2.95651904296875,9.785401344299316,0.026336219161748886,0.05746084079146385
1716735567368519200,2.966519287109375,9.787796020507812,0.026336219161748886,0.05746084079146385
1716735567378519000,2.97651904296875,9.790189743041992,0.026336219161748886,0.05267243832349777
1716735567388519200,2.986519287109375,9.787796020507812,0.028730420395731926,0.05506663769483566
1716735567398519000,2.99651904296875,9.790189743041992,0.028730420395731926,0.05506663769483566
1716735567408519200,3.006519287109375,9.790189743041992,0.028730420395731926,0.05746084079146385
1716735567418519000,3.01651904296875,9.790189743041992,0.031124621629714966,0.05267243832349777
1716735567428519200,3.026519287109375,9.790189743041992,0.033518824726343155,0.05267243832349777
1716735567438519000,3.03651904296875,9.790189743041992,0.031124621629714966,0.05267243832349777
1716735567448519200,3.046519287109375,9.790189743041992,0.033518824726343155,0.05027823522686958
1716735567458519000,3.05651904296875,9.790189743041992,0.031124621629714966,0.05267243832349777
1716735567468519200,3.066519287109375,9.790189743041992,0.031124621629714966,0.05267243832349777
1716735567478519000,3.07651904296875,9.790189743041992,0.033518824726343155,0.05267243832349777
1716735567488519200,3.086519287109375,9.792584419250488,0.031124621629714966,0.05267243832349777
1716735567498519000,3.09651904296875,9.790189743041992,0.028730420395731926,0.05267243832349777
1716735567508519200,3.106519287109375,9.787796020507812,0.031124621629714966,0.05267243832349777
1716735567518519000,3.11651904296875,9.790189743041992,0.031124621629714966,0.05267243832349777
1716735567528519200,3.126519287109375,9.792584419250488,0.031124621629714966,0.05506663769483566
1716735567538519000,3.13651904296875,9.792584419250488,0.031124621629714966,0.05267243832349777
1716735567548519200,3.146519287109375,9.792584419250488,0.028730420395731926,0.05027823522686958
1716735567558519000,3.15651904296875,9.787796020507812,0.026336219161748886,0.047884032130241394
1716735567568519200,3.166519287109375,9.787796020507812,0.028730420395731926,0.047884032130241394
1716735567578519000,3.17651904296875,9.785401344299316,0.031124621629714966,0.0454898327589035
1716735567588519200,3.186519287109375,9.775824546813965,0.014365210197865963,0.031124621629714966
1716735567598519000,3.19651904296875,9.809343338012695,0.026336219161748886,0.05506663769483566
1716735567608519200,3.206519287109375,9.78061294555664,0.023942016065120697,0.05985504388809204
1716735567618519000,3.21651904296875,9.775824546813965,0.023942016065120697,0.047884032130241394
1716735567628519200,3.226519287109375,9.756670951843262,0.026336219161748886,0.05746084079146385
1716735567638519000,3.23651904296875,9.783007621765137,0.021547814831137657,0.05267243832349777
1716735567648519200,3.246519287109375,9.78061294555664,0.021547814831137657,0.05027823522686958
1716735567658519000,3.25651904296875,9.751882553100586,0.026336219161748886,0.05267243832349777
1716735567668519200,3.266519287109375,9.74470043182373,0.031124621629714966,0.05506663769483566
1716735567678519000,3.27651904296875,9.775824546813965,0.028730420395731926,0.05506663769483566
1716735567688519200,3.286519287109375,9.794978141784668,0.033518824726343155,0.05267243832349777
1716735567698519000,3.29651904296875,9.778219223022461,0.028730420395731926,0.05027823522686958
1716735567708519200,3.306519287109375,9.756670951843262,0.026336219161748886,0.05027823522686958
1716735567718519000,3.31651904296875,9.778219223022461,0.021547814831137657,0.05027823522686958
1716735567728519200,3.326519287109375,9.797372817993164,0.021547814831137657,0.05027823522686958
1716735567738519000,3.33651904296875,9.78061294555664,0.023942016065120697,0.05267243832349777
1716735567748519200,3.346519287109375,9.76864242553711,0.023942016065120697,0.05027823522686958
1716735567758519000,3.35651904296875,9.785401344299316,0.031124621629714966,0.05027823522686958
1716735567768519200,3.366519287109375,9.797372817993164,0.031124621629714966,0.047884032130241394
1716735567778519000,3.37651904296875,9.790189743041992,0.031124621629714966,0.047884032130241394
1716735567788519200,3.386519287109375,9.775824546813965,0.031124621629714966,0.047884032130241394
1716735567798519000,3.39651904296875,9.787796020507812,0.028730420395731926,0.047884032130241394
1716735567808519200,3.406519287109375,9.80216121673584,0.026336219161748886,0.05267243832349777
1716735567818519000,3.41651904296875,9.792584419250488,0.023942016065120697,0.047884032130241394
1716735567828519200,3.426519287109375,9.78061294555664,0.023942016065120697,0.05267243832349777
1716735567838519000,3.43651904296875,9.785401344299316,0.026336219161748886,0.05506663769483566
1716735567848519200,3.446519287109375,9.797372817993164,0.028730420395731926,0.05267243832349777
1716735567858519000,3.45651904296875,9.792584419250488,0.026336219161748886,0.05267243832349777
1716735567868519200,3.466519287109375,9.78061294555664,0.023942016065120697,0.05027823522686958
1716735567878519000,3.47651904296875,9.785401344299316,0.021547814831137657,0.05027823522686958
1716735567888519200,3.486519287109375,9.797372817993164,0.021547814831137657,0.05267243832349777
1716735567898519000,3.49651904296875,9.790189743041992,0.021547814831137657,0.05746084079146385
1716735567908519200,3.506519287109375,9.783007621765137,0.021547814831137657,0.05746084079146385
1716735567918519000,3.51651904296875,9.787796020507812,0.026336219161748886,0.05746084079146385
1716735567928519200,3.526519287109375,9.797372817993164,0.026336219161748886,0.05746084079146385
1716735567938519000,3.53651904296875,9.792584419250488,0.023942016065120697,0.05506663769483566
1716735567948519200,3.546519287109375,9.785401344299316,0.023942016065120697,0.05506663769483566
1716735567958519000,3.55651904296875,9.787796020507812,0.023942016065120697,0.05506663769483566
1716735567968519200,3.566519287109375,9.797372817993164,0.023942016065120697,0.05027823522686958
1716735567978519000,3.57651904296875,9.792584419250488,0.023942016065120697,0.05027823522686958
1716735567988519200,3.586519287109375,9.787796020507812,0.023942016065120697,0.05267243832349777
1716735567998519000,3.59651904296875,9.787796020507812,0.026336219161748886,0.05267243832349777
1716735568008519200,3.606519287109375,9.794978141784668,0.023942016065120697,0.05506663769483566
1716735568018519000,3.61651904296875,9.792584419250488,0.021547814831137657,0.05506663769483566
1716735568028519200,3.626519287109375,9.785401344299316,0.021547814831137657,0.05267243832349777
1716735568038519000,3.63651904296875,9.785401344299316,0.023942016065120697,0.05267243832349777
1716735568048519200,3.646519287109375,9.787796020507812,0.023942016065120697,0.05267243832349777
1716735568058519000,3.65651904296875,9.787796020507812,0.026336219161748886,0.05267243832349777
1716735568068519200,3.666519287109375,9.785401344299316,0.023942016065120697,0.05267243832349777
1716735568078519000,3.67651904296875,9.787796020507812,0.028730420395731926,0.05027823522686958
1716735568088519200,3.686519287109375,9.792584419250488,0.028730420395731926,0.05027823522686958
1716735568098519000,3.69651904296875,9.792584419250488,0.028730420395731926,0.05027823522686958
1716735568108519200,3.706519287109375,9.787796020507812,0.023942016065120697,0.05027823522686958
1716735568118519000,3.71651904296875,9.787796020507812,0.023942016065120697,0.05267243832349777
1716735568128519200,3.726519287109375,9.792584419250488,0.023942016065120697,0.05027823522686958
1716735568138519000,3.73651904296875,9.790189743041992,0.023942016065120697,0.047884032130241394
1716735568148519200,3.746519287109375,9.787796020507812,0.026336219161748886,0.0454898327589035
1716735568158519000,3.75651904296875,9.787796020507812,0.028730420395731926,0.0454898327589035
1716735568168519200,3.766519287109375,9.790189743041992,0.028730420395731926,0.0454898327589035
1716735568178519000,3.77651904296875,9.787796020507812,0.026336219161748886,0.047884032130241394
1716735568188519200,3.786519287109375,9.785401344299316,0.028730420395731926,0.05027823522686958
1716735568198519000,3.79651904296875,9.785401344299316,0.028730420395731926,0.047884032130241394
1716735568208519200,3.806519287109375,9.787796020507812,0.026336219161748886,0.05027823522686958
1716735568218519000,3.81651904296875,9.787796020507812,0.026336219161748886,0.05267243832349777
1716735568228519200,3.826519287109375,9.785401344299316,0.026336219161748886,0.05267243832349777
1716735568238519000,3.83651904296875,9.785401344299316,0.031124621629714966,0.05267243832349777
1716735568248519200,3.846519287109375,9.790189743041992,0.031124621629714966,0.05267243832349777
1716735568258519000,3.85651904296875,9.790189743041992,0.028730420395731926,0.05506663769483566
1716735568268519200,3.866519287109375,9.785401344299316,0.026336219161748886,0.05267243832349777
1716735568278519000,3.87651904296875,9.783007621765137,0.026336219161748886,0.05267243832349777
1716735568288519200,3.886519287109375,9.787796020507812,0.028730420395731926,0.05267243832349777
1716735568298519000,3.89651904296875,9.787796020507812,0.033518824726343155,0.05267243832349777
1716735568308519200,3.906519287109375,9.785401344299316,0.035913024097681046,0.05506663769483566
1716735568318519000,3.91651904296875,9.783007621765137,0.035913024097681046,0.05506663769483566
1716735568328519200,3.926519287109375,9.785401344299316,0.033518824726343155,0.05506663769483566
1716735568338519000,3.93651904296875,9.785401344299316,0.031124621629714966,0.05506663769483566
1716735568348519200,3.946519287109375,9.783007621765137,0.026336219161748886,0.05267243832349777
1716735568358519000,3.95651904296875,9.785401344299316,0.026336219161748886,0.05267243832349777
1716735568368519200,3.966519287109375,9.787796020507812,0.028730420395731926,0.05027823522686958
1716735568378519000,3.97651904296875,9.787796020507812,0.026336219161748886,0.05027823522686958
1716735568388519200,3.986519287109375,9.787796020507812,0.028730420395731926,0.05027823522686958
1716735568398519000,3.99651904296875,9.787796020507812,0.031124621629714966,0.05027823522686958
1716735568408519200,4.006519287109375,9.787796020507812,0.033518824726343155,0.047884032130241394
1716735568418519000,4.01651904296875,9.787796020507812,0.033518824726343155,0.047884032130241394
1716735568428519200,4.026519287109375,9.787796020507812,0.028730420395731926,0.05027823522686958
1716735568438519000,4.03651904296875,9.785401344299316,0.028730420395731926,0.05027823522686958
1716735568448519200,4.046519287109375,9.785401344299316,0.028730420395731926,0.05267243832349777
1716735568458519000,4.05651904296875,9.787796020507812,0.028730420395731926,0.05027823522686958
1716735568468519200,4.066519287109375,9.783007621765137,0.031124621629714966,0.05027823522686958
1716735568478519000,4.07651904296875,9.785401344299316,0.031124621629714966,0.05027823522686958
1716735568488519200,4.086519287109375,9.783007621765137,0.031124621629714966,0.05027823522686958
1716735568498519000,4.09651904296875,9.785401344299316,0.031124621629714966,0.047884032130241394
1716735568508519200,4.106519287109375,9.783007621765137,0.031124621629714966,0.047884032130241394
1716735568518519000,4.11651904296875,9.785401344299316,0.031124621629714966,0.047884032130241394
1716735568528519200,4.126519287109375,9.787796020507812,0.031124621629714966,0.0454898327589035
1716735568538519000,4.13651904296875,9.787796020507812,0.033518824726343155,0.047884032130241394
1716735568548519200,4.146519287109375,9.787796020507812,0.035913024097681046,0.047884032130241394
1716735568558519000,4.15651904296875,9.790189743041992,0.033518824726343155,0.047884032130241394
1716735568568519200,4.166519287109375,9.787796020507812,0.033518824726343155,0.0454898327589035
1716735568578519000,4.17651904296875,9.790189743041992,0.031124621629714966,0.05027823522686958
1716735568588519200,4.186519287109375,9.790189743041992,0.028730420395731926,0.05027823522686958
1716735568598519000,4.19651904296875,9.80216121673584,0.033518824726343155,0.043095629662275314
1716735568608519200,4.206519287109375,9.83568000793457,0.031124621629714966,0.038307227194309235
1716735568618519000,4.21651904296875,9.83568000793457,0.026336219161748886,0.040701430290937424
1716735568628519200,4.226519287109375,9.826103210449219,0.026336219161748886,0.043095629662275314
1716735568638519000,4.23651904296875,9.814131736755371,0.028730420395731926,0.043095629662275314
1716735568648519200,4.246519287109375,9.828496932983398,0.026336219161748886,0.0454898327589035
1716735568658519000,4.25651904296875,9.826103210449219,0.028730420395731926,0.047884032130241394
1716735568668519200,4.266519287109375,9.816526412963867,0.028730420395731926,0.047884032130241394
1716735568678519300,4.276519287109375,9.809343338012695,0.031124621629714966,0.047884032130241394
1716735568688519200,4.286519287109375,9.816526412963867,0.033518824726343155,0.047884032130241394
1716735568698519300,4.296519287109375,9.809343338012695,0.031124621629714966,0.05027823522686958
1716735568708519200,4.306519287109375,9.794978141784668,0.028730420395731926,0.05027823522686958
1716735568718519000,4.31651904296875,9.799766540527344,0.031124621629714966,0.05267243832349777
1716735568728519200,4.326519287109375,9.80455493927002,0.035913024097681046,0.05506663769483566
1716735568738519000,4.33651904296875,9.797372817993164,0.033518824726343155,0.05506663769483566
1716735568748519200,4.346519287109375,9.785401344299316,0.035913024097681046,0.05746084079146385
1716735568758519000,4.35651904296875,9.790189743041992,0.033518824726343155,0.05746084079146385
1716735568768519200,4.366519287109375,9.799766540527344,0.033518824726343155,0.05746084079146385
1716735568778519000,4.37651904296875,9.797372817993164,0.031124621629714966,0.05746084079146385
1716735568788519200,4.386519287109375,9.787796020507812,0.028730420395731926,0.05985504388809204
1716735568798519000,4.39651904296875,9.783007621765137,0.028730420395731926,0.05985504388809204
1716735568808519200,4.406519287109375,9.787796020507812,0.031124621629714966,0.05985504388809204
1716735568818519000,4.41651904296875,9.785401344299316,0.028730420395731926,0.05985504388809204
1716735568828519200,4.426519287109375,9.775824546813965,0.031124621629714966,0.05746084079146385
1716735568838519000,4.43651904296875,9.775824546813965,0.031124621629714966,0.05506663769483566
1716735568848519200,4.446519287109375,9.785401344299316,0.031124621629714966,0.05267243832349777
1716735568858519000,4.45651904296875,9.787796020507812,0.028730420395731926,0.05027823522686958
1716735568868519200,4.466519287109375,9.78061294555664,0.028730420395731926,0.05027823522686958
1716735568878519000,4.47651904296875,9.783007621765137,0.028730420395731926,0.047884032130241394
1716735568888519200,4.486519287109375,9.785401344299316,0.031124621629714966,0.047884032130241394
1716735568898519000,4.49651904296875,9.783007621765137,0.033518824726343155,0.05027823522686958
1716735568908519200,4.506519287109375,9.778219223022461,0.033518824726343155,0.05027823522686958
1716735568918519000,4.51651904296875,9.778219223022461,0.033518824726343155,0.05267243832349777
1716735568928519200,4.526519287109375,9.783007621765137,0.033518824726343155,0.05027823522686958
1716735568938519000,4.53651904296875,9.785401344299316,0.028730420395731926,0.05267243832349777
1716735568948519200,4.546519287109375,9.78061294555664,0.028730420395731926,0.05267243832349777
1716735568958519000,4.55651904296875,9.78061294555664,0.026336219161748886,0.05506663769483566
1716735568968519200,4.566519287109375,9.785401344299316,0.028730420395731926,0.05506663769483566
1716735568978519000,4.57651904296875,9.787796020507812,0.028730420395731926,0.05746084079146385
1716735568988519200,4.586519287109375,9.783007621765137,0.028730420395731926,0.05746084079146385
1716735568998519000,4.59651904296875,9.783007621765137,0.028730420395731926,0.05985504388809204
1716735569008519200,4.606519287109375,9.787796020507812,0.033518824726343155,0.06224924325942993
1716735569018519000,4.61651904296875,9.785401344299316,0.033518824726343155,0.06224924325942993
1716735569028519200,4.626519287109375,9.78061294555664,0.033518824726343155,0.05746084079146385
1716735569038519000,4.63651904296875,9.78061294555664,0.031124621629714966,0.05267243832349777
1716735569048519200,4.646519287109375,9.785401344299316,0.028730420395731926,0.047884032130241394
1716735569058519000,4.65651904296875,9.787796020507812,0.031124621629714966,0.05027823522686958
1716735569068519200,4.666519287109375,9.783007621765137,0.033518824726343155,0.05027823522686958
1716735569078519000,4.67651904296875,9.78061294555664,0.033518824726343155,0.05267243832349777
1716735569088519200,4.686519287109375,9.783007621765137,0.031124621629714966,0.05267243832349777
1716735569098519000,4.69651904296875,9.785401344299316,0.028730420395731926,0.05267243832349777
1716735569108519200,4.706519287109375,9.783007621765137,0.026336219161748886,0.05027823522686958
1716735569118519000,4.71651904296875,9.78061294555664,0.026336219161748886,0.05027823522686958
1716735569128519200,4.726519287109375,9.785401344299316,0.028730420395731926,0.05267243832349777
1716735569138519000,4.73651904296875,9.783007621765137,0.028730420395731926,0.05267243832349777
1716735569148519200,4.746519287109375,9.783007621765137,0.028730420395731926,0.05746084079146385
1716735569158519000,4.75651904296875,9.78061294555664,0.031124621629714966,0.05746084079146385
1716735569168519200,4.766519287109375,9.78061294555664,0.028730420395731926,0.05746084079146385
1716735569178519000,4.77651904296875,9.78061294555664,0.028730420395731926,0.05746084079146385
1716735569188519200,4.786519287109375,9.78061294555664,0.026336219161748886,0.05506663769483566
1716735569198519000,4.79651904296875,9.78061294555664,0.028730420395731926,0.05267243832349777
1716735569208519200,4.806519287109375,9.783007621765137,0.033518824726343155,0.047884032130241394
1716735569218519000,4.81651904296875,9.783007621765137,0.033518824726343155,0.05267243832349777
1716735569228519200,4.826519287109375,9.783007621765137,0.033518824726343155,0.05267243832349777
1716735569238519000,4.83651904296875,9.785401344299316,0.031124621629714966,0.05506663769483566
1716735569248519200,4.846519287109375,9.785401344299316,0.031124621629714966,0.05027823522686958
1716735569258519000,4.85651904296875,9.785401344299316,0.028730420395731926,0.047884032130241394
1716735569268519200,4.866519287109375,9.785401344299316,0.028730420395731926,0.047884032130241394
1716735569278519000,4.87651904296875,9.783007621765137,0.028730420395731926,0.0454898327589035
1716735569288519200,4.886519287109375,9.783007621765137,0.028730420395731926,0.047884032130241394
1716735569298519000,4.89651904296875,9.783007621765137,0.028730420395731926,0.047884032130241394
1716735569308519200,4.906519287109375,9.785401344299316,0.031124621629714966,0.05267243832349777
1716735569318519000,4.91651904296875,9.785401344299316,0.031124621629714966,0.05027823522686958
1716735569328519200,4.926519287109375,9.785401344299316,0.031124621629714966,0.05267243832349777
1716735569338519000,4.93651904296875,9.785401344299316,0.028730420395731926,0.05506663769483566
1716735569348519200,4.946519287109375,9.783007621765137,0.026336219161748886,0.05267243832349777
1716735569358519000,4.95651904296875,9.783007621765137,0.026336219161748886,0.05506663769483566
1716735569368519200,4.966519287109375,9.785401344299316,0.026336219161748886,0.05267243832349777
1716735569378519000,4.97651904296875,9.785401344299316,0.028730420395731926,0.05027823522686958
1716735569388519200,4.986519287109375,9.787796020507812,0.031124621629714966,0.05027823522686958
1716735569398519000,4.99651904296875,9.787796020507812,0.028730420395731926,0.05267243832349777
1716735569408519200,5.006519287109375,9.785401344299316,0.028730420395731926,0.05267243832349777
1716735569418519000,5.01651904296875,9.787796020507812,0.028730420395731926,0.05267243832349777
1716735569428519200,5.026519287109375,9.785401344299316,0.028730420395731926,0.05506663769483566
1716735569438519000,5.03651904296875,9.783007621765137,0.028730420395731926,0.05506663769483566
1716735569448519200,5.046519287109375,9.783007621765137,0.033518824726343155,0.05746084079146385
1716735569458519000,5.05651904296875,9.783007621765137,0.033518824726343155,0.05985504388809204
1716735569468519200,5.066519287109375,9.783007621765137,0.031124621629714966,0.05985504388809204
1716735569478519000,5.07651904296875,9.785401344299316,0.031124621629714966,0.05506663769483566
1716735569488519200,5.086519287109375,9.783007621765137,0.031124621629714966,0.05506663769483566
1716735569498519000,5.09651904296875,9.785401344299316,0.047884032130241394,0.05027823522686958
1716735569508519200,5.106519287109375,9.783007621765137,0.023942016065120697,0.05506663769483566
1716735569518519000,5.11651904296875,9.783007621765137,0.035913024097681046,0.07182604819536209
1716735569528519200,5.126519287109375,9.80216121673584,0.031124621629714966,0.05027823522686958
1716735569538519000,5.13651904296875,9.785401344299316,0.038307227194309235,0.047884032130241394
1716735569548519200,5.146519287109375,9.787796020507812,0.035913024097681046,0.06224924325942993
1716735569558519000,5.15651904296875,9.78061294555664,0.033518824726343155,0.06464344263076782
1716735569568519200,5.166519287109375,9.790189743041992,0.035913024097681046,0.07182604819536209
1716735569578519000,5.17651904296875,9.775824546813965,0.038307227194309235,0.06464344263076782
1716735569588519200,5.186519287109375,9.792584419250488,0.033518824726343155,0.0933738648891449
1716735569598519000,5.19651904296875,9.792584419250488,0.016759412363171577,0.05027823522686958
1716735569608519200,5.206519287109375,9.536404609680176,0.06224924325942993,0.07182604819536209
1716735569618519000,5.21651904296875,10.058341026306152,0.023942016065120697,0.05985504388809204
1716735569628519200,5.226519287109375,9.78061294555664,0.031124621629714966,0.040701430290937424
1716735569638519000,5.23651904296875,9.682451248168945,0.031124621629714966,0.05746084079146385
1716735569648519200,5.246519287109375,9.78061294555664,0.023942016065120697,0.06224924325942993
1716735569658519300,5.256519287109375,9.888352394104004,0.021547814831137657,0.05027823522686958
1716735569668519200,5.266519287109375,9.799766540527344,0.043095629662275314,0.08379705995321274
1716735569678519300,5.276519287109375,9.749488830566406,0.047884032130241394,0.0454898327589035
1716735569688519200,5.286519287109375,9.759065628051758,0.035913024097681046,0.0694318488240242
1716735569698519300,5.296519287109375,9.840468406677246,0.05506663769483566,0.05027823522686958
1716735569708519200,5.306519287109375,9.766247749328613,0.038307227194309235,0.05746084079146385
1716735569718519000,5.31651904296875,9.74709415435791,0.031124621629714966,0.040701430290937424
1716735569728519200,5.326519287109375,9.80455493927002,0.033518824726343155,0.05027823522686958
1716735569738519000,5.33651904296875,9.821314811706543,0.040701430290937424,0.05746084079146385
1716735569748518700,5.3465185546875,9.80216121673584,0.023942016065120697,0.05267243832349777
1716735569758518800,5.356518798828125,9.730335235595703,0.031124621629714966,0.05985504388809204
1716735569768518700,5.3665185546875,9.785401344299316,0.040701430290937424,0.07661445438861847
1716735569778518800,5.376518798828125,9.816526412963867,0.040701430290937424,0.031124621629714966
1716735569788518700,5.3865185546875,9.783007621765137,0.038307227194309235,0.05746084079146385
1716735569798518800,5.396518798828125,9.756670951843262,0.035913024097681046,0.06464344263076782
1716735569808518700,5.4065185546875,9.778219223022461,0.035913024097681046,0.06703764945268631
1716735569818518800,5.416518798828125,9.814131736755371,0.011971008032560349,0.05746084079146385
1716735569828518700,5.4265185546875,9.773430824279785,0.035913024097681046,0.05027823522686958
1716735569838518800,5.436518798828125,9.766247749328613,0.035913024097681046,0.05027823522686958
1716735569848518700,5.4465185546875,9.763854026794434,0.021547814831137657,0.05985504388809204
1716735569858518800,5.456518798828125,9.806949615478516,0.038307227194309235,0.047884032130241394
1716735569868518700,5.4665185546875,9.783007621765137,0.040701430290937424,0.06464344263076782
1716735569878518800,5.476518798828125,9.759065628051758,0.028730420395731926,0.05267243832349777
1716735569888518700,5.4865185546875,9.785401344299316,0.023942016065120697,0.05506663769483566
1716735569898518800,5.496518798828125,9.811738014221191,0.028730420395731926,0.0694318488240242
1716735569908518700,5.5065185546875,9.790189743041992,0.023942016065120697,0.06464344263076782
1716735569918518800,5.516518798828125,9.76864242553711,0.026336219161748886,0.05506663769483566
1716735569928518700,5.5265185546875,9.787796020507812,0.028730420395731926,0.038307227194309235
1716735569938518800,5.536518798828125,9.809343338012695,0.033518824726343155,0.07661445438861847
1716735569948518700,5.5465185546875,9.792584419250488,0.040701430290937424,0.05985504388809204
1716735569958518800,5.556518798828125,9.773430824279785,0.038307227194309235,0.040701430290937424
1716735569968518700,5.5665185546875,9.783007621765137,0.031124621629714966,0.05985504388809204
1716735569978518800,5.576518798828125,9.797372817993164,0.047884032130241394,0.05506663769483566
1716735569988518700,5.5865185546875,9.792584419250488,0.031124621629714966,0.033518824726343155
1716735569998518800,5.596518798828125,9.775824546813965,0.043095629662275314,0.05746084079146385
1716735570008518700,5.6065185546875,9.766247749328613,0.0454898327589035,0.043095629662275314
1716735570018518800,5.616518798828125,9.80216121673584,0.043095629662275314,0.06224924325942993
1716735570028518700,5.6265185546875,9.785401344299316,0.033518824726343155,0.05506663769483566
1716735570038518800,5.636518798828125,9.773430824279785,0.0454898327589035,0.05985504388809204
1716735570048519200,5.646519287109375,9.785401344299316,0.031124621629714966,0.0694318488240242
1716735570058519000,5.65651904296875,9.792584419250488,0.021547814831137657,0.07182604819536209
1716735570068519200,5.666519287109375,9.787796020507812,0.040701430290937424,0.06703764945268631
1716735570078519000,5.67651904296875,9.783007621765137,0.043095629662275314,0.05027823522686958
1716735570088519200,5.686519287109375,9.78061294555664,0.043095629662275314,0.06224924325942993
1716735570098519000,5.69651904296875,9.785401344299316,0.031124621629714966,0.05985504388809204
1716735570108519200,5.706519287109375,9.792584419250488,0.023942016065120697,0.05746084079146385
1716735570118519000,5.71651904296875,9.773430824279785,0.028730420395731926,0.0694318488240242
1716735570128519200,5.726519287109375,9.766247749328613,0.028730420395731926,0.0694318488240242
1716735570138519000,5.73651904296875,9.792584419250488,0.043095629662275314,0.0694318488240242
1716735570148519200,5.746519287109375,9.790189743041992,0.038307227194309235,0.05506663769483566
1716735570158519000,5.75651904296875,9.778219223022461,0.033518824726343155,0.05746084079146385
1716735570168519200,5.766519287109375,9.775824546813965,0.043095629662275314,0.038307227194309235
1716735570178519000,5.77651904296875,9.794978141784668,0.038307227194309235,0.05746084079146385
1716735570188519200,5.786519287109375,9.794978141784668,0.016759412363171577,0.07182604819536209
1716735570198519000,5.79651904296875,9.785401344299316,0.023942016065120697,0.05267243832349777
1716735570208519200,5.806519287109375,9.778219223022461,0.035913024097681046,0.047884032130241394
1716735570218519000,5.81651904296875,9.790189743041992,0.047884032130241394,0.05746084079146385
1716735570228519200,5.826519287109375,9.797372817993164,0.038307227194309235,0.05267243832349777
1716735570238519000,5.83651904296875,9.783007621765137,0.033518824726343155,0.07182604819536209
1716735570248519200,5.846519287109375,9.778219223022461,0.033518824726343155,0.06464344263076782
1716735570258519000,5.85651904296875,9.787796020507812,0.035913024097681046,0.05506663769483566
1716735570268519200,5.866519287109375,9.790189743041992,0.040701430290937424,0.05267243832349777
1716735570278519000,5.87651904296875,9.78061294555664,0.031124621629714966,0.06703764945268631
1716735570288519200,5.886519287109375,9.792584419250488,0.021547814831137657,0.06703764945268631
1716735570298519000,5.89651904296875,9.797372817993164,0.040701430290937424,0.06464344263076782
1716735570308519200,5.906519287109375,9.78061294555664,0.043095629662275314,0.05985504388809204
1716735570318519000,5.91651904296875,9.790189743041992,0.040701430290937424,0.05267243832349777
1716735570328519200,5.926519287109375,9.785401344299316,0.028730420395731926,0.047884032130241394
1716735570338519000,5.93651904296875,9.785401344299316,0.040701430290937424,0.06464344263076782
1716735570348519200,5.946519287109375,9.785401344299316,0.05267243832349777,0.06224924325942993
1716735570358519000,5.95651904296875,9.766247749328613,0.047884032130241394,0.05746084079146385
1716735570368519200,5.966519287109375,9.787796020507812,0.040701430290937424,0.05267243832349777
1716735570378519000,5.97651904296875,9.792584419250488,0.028730420395731926,0.05746084079146385
1716735570388519200,5.986519287109375,9.78061294555664,0.038307227194309235,0.05985504388809204
1716735570398519000,5.99651904296875,9.792584419250488,0.0454898327589035,0.05506663769483566
1716735570408519200,6.006519287109375,9.775824546813965,0.028730420395731926,0.05027823522686958
1716735570418519000,6.01651904296875,9.771036148071289,0.035913024097681046,0.05746084079146385
1716735570428519200,6.026519287109375,9.778219223022461,0.033518824726343155,0.07422025501728058
1716735570438519000,6.03651904296875,9.783007621765137,0.040701430290937424,0.05506663769483566
1716735570448519200,6.046519287109375,9.775824546813965,0.023942016065120697,0.047884032130241394
1716735570458519000,6.05651904296875,9.778219223022461,0.028730420395731926,0.05506663769483566
1716735570468519200,6.066519287109375,9.775824546813965,0.0454898327589035,0.06464344263076782
1716735570478519000,6.07651904296875,9.783007621765137,0.033518824726343155,0.0694318488240242
1716735570488519200,6.086519287109375,9.792584419250488,0.038307227194309235,0.05267243832349777
1716735570498519000,6.09651904296875,9.785401344299316,0.043095629662275314,0.05985504388809204
1716735570508519200,6.106519287109375,9.778219223022461,0.033518824726343155,0.040701430290937424
1716735570518519000,6.11651904296875,9.790189743041992,0.033518824726343155,0.05746084079146385
1716735570528519200,6.126519287109375,9.778219223022461,0.028730420395731926,0.05985504388809204
1716735570538519000,6.13651904296875,9.792584419250488,0.040701430290937424,0.0454898327589035
1716735570548519200,6.146519287109375,9.785401344299316,0.043095629662275314,0.05267243832349777
1716735570558519000,6.15651904296875,9.783007621765137,0.023942016065120697,0.06703764945268631
1716735570568519200,6.166519287109375,9.783007621765137,0.0454898327589035,0.05985504388809204
1716735570578519000,6.17651904296875,9.78061294555664,0.033518824726343155,0.05985504388809204
1716735570588519200,6.186519287109375,9.682451248168945,0.033518824726343155,0.047884032130241394
1716735570598519000,6.19651904296875,9.974543571472168,0.031124621629714966,0.06224924325942993
1716735570608519200,6.206519287109375,9.71357536315918,0.0071826050989329815,0.05985504388809204
1716735570618519000,6.21651904296875,9.699210166931152,0.033518824726343155,0.06224924325942993
1716735570628519200,6.226519287109375,9.732728958129883,0.035913024097681046,0.08140286058187485
1716735570638519000,6.23651904296875,9.876380920410156,0.009576806798577309,0.07900865375995636
1716735570648519200,6.246519287109375,9.754277229309082,0.043095629662275314,0.07422025501728058
1716735570658519000,6.25651904296875,9.735123634338379,0.026336219161748886,0.05506663769483566
1716735570668519200,6.266519287109375,9.735123634338379,0.040701430290937424,0.06224924325942993
1716735570678519000,6.27651904296875,9.83568000793457,0.019153613597154617,0.05267243832349777
1716735570688519200,6.286519287109375,9.823708534240723,0.028730420395731926,0.05985504388809204
1716735570698519000,6.29651904296875,9.74709415435791,0.016759412363171577,0.05027823522686958
1716735570708519200,6.306519287109375,9.74470043182373,0.0454898327589035,0.06703764945268631
1716735570718519000,6.31651904296875,9.833285331726074,0.05746084079146385,0.05746084079146385
1716735570728519200,6.326519287109375,9.814131736755371,0.043095629662275314,0.05746084079146385
1716735570738519000,6.33651904296875,9.727940559387207,0.028730420395731926,0.05985504388809204
1716735570748519200,6.346519287109375,9.756670951843262,0.035913024097681046,0.040701430290937424
1716735570758519000,6.35651904296875,9.821314811706543,0.0454898327589035,0.05027823522686958
1716735570768519200,6.366519287109375,9.809343338012695,0.05027823522686958,0.0454898327589035
1716735570778519000,6.37651904296875,9.751882553100586,0.028730420395731926,0.07661445438861847
1716735570788519200,6.386519287109375,9.763854026794434,0.031124621629714966,0.05746084079146385
1716735570798519000,6.39651904296875,9.80216121673584,0.021547814831137657,0.06224924325942993
1716735570808519200,6.406519287109375,9.799766540527344,0.023942016065120697,0.0694318488240242
1716735570818519000,6.41651904296875,9.771036148071289,0.035913024097681046,0.0694318488240242
1716735570828519200,6.426519287109375,9.763854026794434,0.038307227194309235,0.05027823522686958
1716735570838519000,6.43651904296875,9.80216121673584,0.043095629662275314,0.05027823522686958
1716735570848519200,6.446519287109375,9.80455493927002,0.047884032130241394,0.05985504388809204
1716735570858519000,6.45651904296875,9.76864242553711,0.038307227194309235,0.05985504388809204
1716735570868519200,6.466519287109375,9.783007621765137,0.031124621629714966,0.05506663769483566
1716735570878519000,6.47651904296875,9.797372817993164,0.033518824726343155,0.05267243832349777
1716735570888519200,6.486519287109375,9.797372817993164,0.043095629662275314,0.033518824726343155
1716735570898519000,6.49651904296875,9.766247749328613,0.038307227194309235,0.06703764945268631
1716735570908519200,6.506519287109375,9.773430824279785,0.043095629662275314,0.05746084079146385
1716735570918519000,6.51651904296875,9.783007621765137,0.035913024097681046,0.05746084079146385
1716735570928519200,6.526519287109375,9.816526412963867,0.040701430290937424,0.0694318488240242
1716735570938519000,6.53651904296875,9.785401344299316,0.021547814831137657,0.040701430290937424
1716735570948519200,6.546519287109375,9.766247749328613,0.023942016065120697,0.06224924325942993
1716735570958519000,6.55651904296875,9.783007621765137,0.028730420395731926,0.05985504388809204
1716735570968519200,6.566519287109375,9.785401344299316,0.028730420395731926,0.05985504388809204
1716735570978519000,6.57651904296875,9.775824546813965,0.031124621629714966,0.05267243832349777
1716735570988519200,6.586519287109375,9.761459350585938,0.043095629662275314,0.05027823522686958
1716735570998519000,6.59651904296875,9.80455493927002,0.021547814831137657,0.07422025501728058
1716735571008519200,6.606519287109375,9.806949615478516,0.031124621629714966,0.0454898327589035
1716735571018519000,6.61651904296875,9.761459350585938,0.033518824726343155,0.06224924325942993
1716735571028519200,6.626519287109375,9.78061294555664,0.040701430290937424,0.06224924325942993
1716735571038519000,6.63651904296875,9.790189743041992,0.028730420395731926,0.05027823522686958
1716735571048519200,6.646519287109375,9.787796020507812,0.040701430290937424,0.05506663769483566
1716735571058519000,6.65651904296875,9.775824546813965,0.047884032130241394,0.0454898327589035
1716735571068519200,6.666519287109375,9.778219223022461,0.033518824726343155,0.05985504388809204
1716735571078519000,6.67651904296875,9.794978141784668,0.043095629662275314,0.06464344263076782
1716735571088519200,6.686519287109375,9.794978141784668,0.035913024097681046,0.05267243832349777
1716735571098519000,6.69651904296875,9.778219223022461,0.031124621629714966,0.05746084079146385
1716735571108519200,6.706519287109375,9.787796020507812,0.040701430290937424,0.047884032130241394
1716735571118519000,6.71651904296875,9.80455493927002,0.035913024097681046,0.0454898327589035
1716735571128519200,6.726519287109375,9.783007621765137,0.05027823522686958,0.07422025501728058
1716735571138519000,6.73651904296875,9.792584419250488,0.0454898327589035,0.05027823522686958
1716735571148519200,6.746519287109375,9.783007621765137,0.016759412363171577,0.05027823522686958
1716735571158519000,6.75651904296875,9.783007621765137,0.0454898327589035,0.05985504388809204
1716735571168519200,6.766519287109375,9.794978141784668,0.033518824726343155,0.05506663769483566
1716735571178519000,6.77651904296875,9.78061294555664,0.035913024097681046,0.05267243832349777
1716735571188519200,6.786519287109375,9.792584419250488,0.035913024097681046,0.05746084079146385
1716735571198519000,6.79651904296875,9.775824546813965,0.031124621629714966,0.047884032130241394
1716735571208519200,6.806519287109375,9.790189743041992,0.047884032130241394,0.047884032130241394
1716735571218519000,6.81651904296875,9.783007621765137,0.047884032130241394,0.0454898327589035
1716735571228519200,6.826519287109375,9.787796020507812,0.023942016065120697,0.047884032130241394
1716735571238519000,6.83651904296875,9.792584419250488,0.0454898327589035,0.07900865375995636
1716735571248519200,6.846519287109375,9.80455493927002,0.0454898327589035,0.06224924325942993
1716735571258519000,6.85651904296875,9.787796020507812,0.031124621629714966,0.05027823522686958
1716735571268519200,6.866519287109375,9.775824546813965,0.028730420395731926,0.040701430290937424
1716735571278519000,6.87651904296875,9.785401344299316,0.047884032130241394,0.05506663769483566
1716735571288519200,6.886519287109375,9.806949615478516,0.040701430290937424,0.06464344263076782
1716735571298519000,6.89651904296875,9.794978141784668,0.040701430290937424,0.0694318488240242
1716735571308519200,6.906519287109375,9.783007621765137,0.033518824726343155,0.06464344263076782
1716735571318519000,6.91651904296875,9.785401344299316,0.028730420395731926,0.05985504388809204
1716735571328519200,6.926519287109375,9.799766540527344,0.033518824726343155,0.05985504388809204
1716735571338519000,6.93651904296875,9.78061294555664,0.035913024097681046,0.06224924325942993
1716735571348519200,6.946519287109375,9.794978141784668,0.043095629662275314,0.047884032130241394
1716735571358519000,6.95651904296875,9.790189743041992,0.019153613597154617,0.05746084079146385
1716735571368519200,6.966519287109375,9.790189743041992,0.031124621629714966,0.05267243832349777
1716735571378519000,6.97651904296875,9.778219223022461,0.026336219161748886,0.05506663769483566
1716735571388519200,6.986519287109375,9.785401344299316,0.035913024097681046,0.043095629662275314
1716735571398519000,6.99651904296875,9.792584419250488,0.043095629662275314,0.035913024097681046
1716735571408519200,7.006519287109375,9.799766540527344,0.023942016065120697,0.05985504388809204
1716735571418519000,7.01651904296875,9.775824546813965,0.028730420395731926,0.0454898327589035
1716735571428519200,7.026519287109375,9.771036148071289,0.038307227194309235,0.035913024097681046
1716735571438519000,7.03651904296875,9.790189743041992,0.023942016065120697,0.05506663769483566
1716735571448519200,7.046519287109375,9.78061294555664,0.047884032130241394,0.031124621629714966
1716735571458519000,7.05651904296875,9.773430824279785,0.043095629662275314,0.05746084079146385
1716735571468519200,7.066519287109375,9.785401344299316,0.031124621629714966,0.05746084079146385
1716735571478519000,7.07651904296875,9.794978141784668,0.023942016065120697,0.06224924325942993
1716735571488519200,7.086519287109375,9.787796020507812,0.021547814831137657,0.043095629662275314
1716735571498519000,7.09651904296875,9.785401344299316,0.031124621629714966,0.05267243832349777
1716735571508519200,7.106519287109375,9.775824546813965,0.047884032130241394,0.05746084079146385
1716735571518519000,7.11651904296875,9.787796020507812,0.047884032130241394,0.05506663769483566
1716735571528519200,7.126519287109375,9.787796020507812,0.028730420395731926,0.0694318488240242
1716735571538519000,7.13651904296875,9.799766540527344,0.031124621629714966,0.05267243832349777
1716735571548519200,7.146519287109375,9.785401344299316,0.0454898327589035,0.05267243832349777
1716735571558519000,7.15651904296875,9.778219223022461,0.033518824726343155,0.06224924325942993
1716735571568519200,7.166519287109375,9.775824546813965,0.026336219161748886,0.06224924325942993
1716735571578519000,7.17651904296875,9.790189743041992,0.026336219161748886,0.05985504388809204
1716735571588519200,7.186519287109375,9.78061294555664,0.035913024097681046,0.0454898327589035
1716735571598519000,7.19651904296875,9.778219223022461,0.033518824726343155,0.05267243832349777
1716735571608519200,7.206519287109375,9.797372817993164,0.043095629662275314,0.05985504388809204
1716735571618519000,7.21651904296875,9.718363761901855,0.028730420395731926,0.043095629662275314
1716735571628519200,7.226519287109375,9.818920135498047,0.043095629662275314,0.05267243832349777
1716735571638519000,7.23651904296875,9.850045204162598,0.035913024097681046,0.05985504388809204
1716735571648519200,7.246519287109375,9.787796020507812,0.014365210197865963,0.05746084079146385
1716735571658519000,7.25651904296875,9.71357536315918,0.016759412363171577,0.06464344263076782
1716735571668519200,7.266519287109375,9.80455493927002,0.014365210197865963,0.05506663769483566
1716735571678519000,7.27651904296875,9.828496932983398,0.021547814831137657,0.06464344263076782
1716735571688519200,7.286519287109375,9.790189743041992,0.026336219161748886,0.05746084079146385
1716735571698519000,7.29651904296875,9.725546836853027,0.047884032130241394,0.07661445438861847
1716735571708519200,7.306519287109375,9.790189743041992,0.047884032130241394,0.05027823522686958
1716735571718519000,7.31651904296875,9.83568000793457,0.047884032130241394,0.0694318488240242
1716735571728519200,7.326519287109375,9.778219223022461,0.016759412363171577,0.05267243832349777
1716735571738519000,7.33651904296875,9.725546836853027,0.028730420395731926,0.040701430290937424
1716735571748519200,7.346519287109375,9.792584419250488,0.031124621629714966,0.06224924325942993
1716735571758519000,7.35651904296875,9.83807373046875,0.038307227194309235,0.05746084079146385
1716735571768519200,7.366519287109375,9.78061294555664,0.035913024097681046,0.05506663769483566
1716735571778519000,7.37651904296875,9.730335235595703,0.043095629662275314,0.05267243832349777
1716735571788519200,7.386519287109375,9.787796020507812,0.0454898327589035,0.0694318488240242
1716735571798519000,7.39651904296875,9.828496932983398,0.043095629662275314,0.05985504388809204
1716735571808519200,7.406519287109375,9.783007621765137,0.033518824726343155,0.06224924325942993
1716735571818519000,7.41651904296875,9.737517356872559,0.035913024097681046,0.05267243832349777
1716735571828519200,7.426519287109375,9.794978141784668,0.019153613597154617,0.05506663769483566
1716735571838519000,7.43651904296875,9.823708534240723,0.026336219161748886,0.05985504388809204
1716735571848519200,7.446519287109375,9.787796020507812,0.021547814831137657,0.06703764945268631
1716735571858519000,7.45651904296875,9.754277229309082,0.040701430290937424,0.07182604819536209
1716735571868519200,7.466519287109375,9.787796020507812,0.026336219161748886,0.05746084079146385
1716735571878519000,7.47651904296875,9.816526412963867,0.033518824726343155,0.043095629662275314
1716735571888519200,7.486519287109375,9.790189743041992,0.028730420395731926,0.06703764945268631
1716735571898519000,7.49651904296875,9.761459350585938,0.035913024097681046,0.05985504388809204
1716735571908519200,7.506519287109375,9.806949615478516,0.040701430290937424,0.06703764945268631
1716735571918519000,7.51651904296875,9.828496932983398,0.019153613597154617,0.06464344263076782
1716735571928519200,7.526519287109375,9.792584419250488,0.031124621629714966,0.05506663769483566
1716735571938519000,7.53651904296875,9.766247749328613,0.033518824726343155,0.06703764945268631
1716735571948519200,7.546519287109375,9.787796020507812,0.05027823522686958,0.040701430290937424
1716735571958519000,7.55651904296875,9.809343338012695,0.035913024097681046,0.05746084079146385
1716735571968519200,7.566519287109375,9.80216121673584,0.014365210197865963,0.040701430290937424
1716735571978519000,7.57651904296875,9.76864242553711,0.031124621629714966,0.043095629662275314
1716735571988519200,7.586519287109375,9.790189743041992,0.031124621629714966,0.05985504388809204
1716735571998519000,7.59651904296875,9.811738014221191,0.0454898327589035,0.047884032130241394
1716735572008519200,7.606519287109375,9.799766540527344,0.038307227194309235,0.040701430290937424
1716735572018519000,7.61651904296875,9.76864242553711,0.033518824726343155,0.05746084079146385
1716735572028519200,7.626519287109375,9.794978141784668,0.033518824726343155,0.05267243832349777
1716735572038519000,7.63651904296875,9.811738014221191,0.043095629662275314,0.06464344263076782
1716735572048519200,7.646519287109375,9.787796020507812,0.035913024097681046,0.05267243832349777
1716735572058519000,7.65651904296875,9.761459350585938,0.031124621629714966,0.05985504388809204
1716735572068519200,7.666519287109375,9.790189743041992,0.0454898327589035,0.05506663769483566
1716735572078519000,7.67651904296875,9.799766540527344,0.026336219161748886,0.07422025501728058
1716735572088519200,7.686519287109375,9.797372817993164,0.035913024097681046,0.040701430290937424
1716735572098519000,7.69651904296875,9.785401344299316,0.047884032130241394,0.047884032130241394
1716735572108519200,7.706519287109375,9.785401344299316,0.038307227194309235,0.06464344263076782
1716735572118519000,7.71651904296875,9.799766540527344,0.0454898327589035,0.0694318488240242
1716735572128519200,7.726519287109375,9.783007621765137,0.043095629662275314,0.05506663769483566
1716735572138519000,7.73651904296875,9.78061294555664,0.040701430290937424,0.043095629662275314
1716735572148519200,7.746519287109375,9.785401344299316,0.031124621629714966,0.05267243832349777
1716735572158519000,7.75651904296875,9.792584419250488,0.038307227194309235,0.06464344263076782
1716735572168519200,7.766519287109375,9.78061294555664,0.021547814831137657,0.05267243832349777
1716735572178519000,7.77651904296875,9.794978141784668,0.043095629662275314,0.07422025501728058
1716735572188519200,7.786519287109375,9.783007621765137,0.05267243832349777,0.05746084079146385
1716735572198519000,7.79651904296875,9.80216121673584,0.040701430290937424,0.05267243832349777
1716735572208519200,7.806519287109375,9.80216121673584,0.028730420395731926,0.05985504388809204
1716735572218519000,7.81651904296875,9.790189743041992,0.033518824726343155,0.06224924325942993
1716735572228519200,7.826519287109375,9.783007621765137,0.031124621629714966,0.06224924325942993
1716735572238519000,7.83651904296875,9.794978141784668,0.031124621629714966,0.05746084079146385
1716735572248519200,7.846519287109375,9.785401344299316,0.035913024097681046,0.05746084079146385
1716735572258519000,7.85651904296875,9.773430824279785,0.040701430290937424,0.05746084079146385
1716735572268519200,7.866519287109375,9.78061294555664,0.031124621629714966,0.06224924325942993
1716735572278519000,7.87651904296875,9.787796020507812,0.040701430290937424,0.05506663769483566
1716735572288519200,7.886519287109375,9.794978141784668,0.026336219161748886,0.06464344263076782
1716735572298519000,7.89651904296875,9.790189743041992,0.038307227194309235,0.05985504388809204
1716735572308519200,7.906519287109375,9.771036148071289,0.047884032130241394,0.05746084079146385
1716735572318519000,7.91651904296875,9.787796020507812,0.035913024097681046,0.05746084079146385
1716735572328519200,7.926519287109375,9.787796020507812,0.0454898327589035,0.05027823522686958
1716735572338519000,7.93651904296875,9.785401344299316,0.028730420395731926,0.05506663769483566
1716735572348519200,7.946519287109375,9.790189743041992,0.035913024097681046,0.043095629662275314
1716735572358519000,7.95651904296875,9.790189743041992,0.035913024097681046,0.043095629662275314
1716735572368519200,7.966519287109375,9.806949615478516,0.043095629662275314,0.047884032130241394
1716735572378519000,7.97651904296875,9.785401344299316,0.026336219161748886,0.05746084079146385
1716735572388519200,7.986519287109375,9.783007621765137,0.035913024097681046,0.0454898327589035
1716735572398519000,7.99651904296875,9.799766540527344,0.033518824726343155,0.06464344263076782
1716735572408519200,8.006519287109375,9.783007621765137,0.035913024097681046,0.07661445438861847
1716735572418519000,8.01651904296875,9.80216121673584,0.043095629662275314,0.05506663769483566
1716735572428519200,8.026519287109375,9.792584419250488,0.028730420395731926,0.035913024097681046
1716735572438519000,8.03651904296875,9.790189743041992,0.040701430290937424,0.05027823522686958
1716735572448519200,8.046519287109374,9.783007621765137,0.033518824726343155,0.05506663769483566
1716735572458519000,8.05651904296875,9.794978141784668,0.028730420395731926,0.05506663769483566
1716735572468519200,8.066519287109376,9.785401344299316,0.05267243832349777,0.043095629662275314
1716735572478519000,8.07651904296875,9.790189743041992,0.031124621629714966,0.05027823522686958
1716735572488519200,8.086519287109375,9.787796020507812,0.043095629662275314,0.05027823522686958
1716735572498519000,8.09651904296875,9.785401344299316,0.043095629662275314,0.05027823522686958
1716735572508519200,8.106519287109375,9.778219223022461,0.040701430290937424,0.05027823522686958
1716735572518519000,8.11651904296875,9.787796020507812,0.035913024097681046,0.06224924325942993
1716735572528519200,8.126519287109375,9.799766540527344,0.026336219161748886,0.05506663769483566
1716735572538519000,8.13651904296875,9.794978141784668,0.05027823522686958,0.0694318488240242
1716735572548519200,8.146519287109374,9.775824546813965,0.0454898327589035,0.05506663769483566
1716735572558519000,8.15651904296875,9.799766540527344,0.038307227194309235,0.047884032130241394
1716735572568519200,8.166519287109375,9.785401344299316,0.040701430290937424,0.040701430290937424
1716735572578519000,8.17651904296875,9.797372817993164,0.026336219161748886,0.05746084079146385
1716735572588519200,8.186519287109375,9.790189743041992,0.038307227194309235,0.043095629662275314
1716735572598519000,8.19651904296875,9.80455493927002,0.0454898327589035,0.05267243832349777
1716735572608519200,8.206519287109375,9.792584419250488,0.026336219161748886,0.0694318488240242
1716735572618519000,8.21651904296875,9.797372817993164,0.040701430290937424,0.05746084079146385
1716735572628519200,8.226519287109374,9.785401344299316,0.0454898327589035,0.0454898327589035
1716735572638519000,8.23651904296875,9.80216121673584,0.035913024097681046,0.0694318488240242
1716735572648519200,8.246519287109376,9.80216121673584,0.033518824726343155,0.07422025501728058
1716735572658519300,8.256519287109375,9.790189743041992,0.033518824726343155,0.05506663769483566
1716735572668519200,8.266519287109375,9.775824546813965,0.031124621629714966,0.07182604819536209
1716735572678519300,8.276519287109375,9.78061294555664,0.021547814831137657,0.040701430290937424
1716735572688519200,8.286519287109375,9.87159252166748,0.05746084079146385,0.040701430290937424
1716735572698519300,8.296519287109374,9.806949615478516,0.021547814831137657,0.06703764945268631
1716735572708519200,8.306519287109374,9.787796020507812,0.026336219161748886,0.0454898327589035
1716735572718519000,8.31651904296875,9.74709415435791,0.021547814831137657,0.06703764945268631
1716735572728519200,8.326519287109376,9.818920135498047,0.011971008032560349,0.035913024097681046
1716735572738519000,8.33651904296875,9.792584419250488,0.019153613597154617,0.07661445438861847
1716735572748519200,8.346519287109375,9.737517356872559,0.05267243832349777,0.05746084079146385
1716735572758519000,8.35651904296875,9.759065628051758,0.035913024097681046,0.05027823522686958
1716735572768519200,8.366519287109375,9.816526412963867,0.040701430290937424,0.0694318488240242
1716735572778519000,8.37651904296875,9.823708534240723,0.019153613597154617,0.05985504388809204
1716735572788519200,8.386519287109374,9.763854026794434,0.016759412363171577,0.0454898327589035
1716735572798519000,8.39651904296875,9.754277229309082,0.038307227194309235,0.07661445438861847
1716735572808519200,8.406519287109376,9.811738014221191,0.031124621629714966,0.05985504388809204
1716735572818519000,8.41651904296875,9.811738014221191,0.031124621629714966,0.05267243832349777
1716735572828519200,8.426519287109375,9.78061294555664,0.040701430290937424,0.05027823522686958
1716735572838519000,8.43651904296875,9.78061294555664,0.014365210197865963,0.06464344263076782
1716735572848519200,8.446519287109375,9.799766540527344,0.0454898327589035,0.038307227194309235
1716735572858519000,8.45651904296875,9.806949615478516,0.038307227194309235,0.0454898327589035
1716735572868519200,8.466519287109374,9.778219223022461,0.031124621629714966,0.05746084079146385
1716735572878519000,8.47651904296875,9.771036148071289,0.035913024097681046,0.0454898327589035
1716735572888519200,8.486519287109376,9.794978141784668,0.031124621629714966,0.06464344263076782
1716735572898519000,8.49651904296875,9.811738014221191,0.05267243832349777,0.047884032130241394
1716735572908519200,8.506519287109375,9.778219223022461,0.040701430290937424,0.05506663769483566
1716735572918519300,8.516519287109375,9.78061294555664,0.028730420395731926,0.07182604819536209
1716735572928519200,8.526519287109375,9.794978141784668,0.040701430290937424,0.0454898327589035
1716735572938519000,8.53651904296875,9.80216121673584,0.031124621629714966,0.033518824726343155
1716735572948519200,8.546519287109374,9.778219223022461,0.026336219161748886,0.06224924325942993
1716735572958519000,8.55651904296875,9.773430824279785,0.021547814831137657,0.05985504388809204
1716735572968519200,8.566519287109376,9.794978141784668,0.028730420395731926,0.05027823522686958
1716735572978519000,8.57651904296875,9.80216121673584,0.033518824726343155,0.05985504388809204
1716735572988519200,8.586519287109375,9.787796020507812,0.035913024097681046,0.05267243832349777
1716735572998519000,8.59651904296875,9.773430824279785,0.035913024097681046,0.047884032130241394
1716735573008519200,8.606519287109375,9.80216121673584,0.06464344263076782,0.05506663769483566
1716735573018519000,8.61651904296875,9.790189743041992,0.026336219161748886,0.06703764945268631
1716735573028519200,8.626519287109375,9.783007621765137,0.028730420395731926,0.0694318488240242
1716735573038519000,8.63651904296875,9.761459350585938,0.035913024097681046,0.047884032130241394
1716735573048519200,8.646519287109374,9.773430824279785,0.021547814831137657,0.05506663769483566
1716735573058519000,8.65651904296875,9.785401344299316,0.028730420395731926,0.05027823522686958
1716735573068519200,8.666519287109375,9.778219223022461,0.035913024097681046,0.047884032130241394
1716735573078519000,8.67651904296875,9.775824546813965,0.035913024097681046,0.05027823522686958
1716735573088519200,8.686519287109375,9.794978141784668,0.0454898327589035,0.05506663769483566
1716735573098519000,8.69651904296875,9.794978141784668,0.038307227194309235,0.040701430290937424
1716735573108519200,8.706519287109375,9.775824546813965,0.035913024097681046,0.07182604819536209
1716735573118519000,8.71651904296875,9.787796020507812,0.026336219161748886,0.0694318488240242
1716735573128519200,8.726519287109374,9.794978141784668,0.040701430290937424,0.05267243832349777
1716735573138519000,8.73651904296875,9.792584419250488,0.026336219161748886,0.05985504388809204
1716735573148519200,8.746519287109376,9.792584419250488,0.038307227194309235,0.06464344263076782
1716735573158519000,8.75651904296875,9.775824546813965,0.031124621629714966,0.05506663769483566
1716735573168519200,8.766519287109375,9.773430824279785,0.028730420395731926,0.040701430290937424
1716735573178519000,8.77651904296875,9.792584419250488,0.038307227194309235,0.040701430290937424
1716735573188519200,8.786519287109375,9.773430824279785,0.021547814831137657,0.06224924325942993
1716735573198519000,8.79651904296875,9.794978141784668,0.035913024097681046,0.05985504388809204
1716735573208519200,8.806519287109374,9.790189743041992,0.019153613597154617,0.05267243832349777
1716735573218519000,8.81651904296875,9.790189743041992,0.043095629662275314,0.05267243832349777
1716735573228519200,8.826519287109376,9.778219223022461,0.028730420395731926,0.05027823522686958
1716735573238519000,8.83651904296875,9.775824546813965,0.038307227194309235,0.06703764945268631
1716735573248519200,8.846519287109375,9.790189743041992,0.05267243832349777,0.05506663769483566
1716735573258519000,8.85651904296875,9.794978141784668,0.031124621629714966,0.06464344263076782
1716735573268519200,8.866519287109375,9.806949615478516,0.035913024097681046,0.07661445438861847
1716735573278519000,8.87651904296875,9.783007621765137,0.043095629662275314,0.0454898327589035
1716735573288519200,8.886519287109374,9.783007621765137,0.035913024097681046,0.06703764945268631
1716735573298519000,8.89651904296875,9.785401344299316,0.035913024097681046,0.06464344263076782
1716735573308519200,8.906519287109376,9.790189743041992,0.033518824726343155,0.06224924325942993
1716735573318519000,8.91651904296875,9.787796020507812,0.038307227194309235,0.05506663769483566
1716735573328519200,8.926519287109375,9.783007621765137,0.016759412363171577,0.05746084079146385
1716735573338519000,8.93651904296875,9.785401344299316,0.0454898327589035,0.07182604819536209
1716735573348519200,8.946519287109375,9.783007621765137,0.023942016065120697,0.05746084079146385
1716735573358519000,8.95651904296875,9.773430824279785,0.033518824726343155,0.06703764945268631
1716735573368519200,8.966519287109374,9.790189743041992,0.043095629662275314,0.05027823522686958
1716735573378519000,8.97651904296875,9.790189743041992,0.035913024097681046,0.043095629662275314
1716735573388519200,8.986519287109376,9.787796020507812,0.028730420395731926,0.05506663769483566
1716735573398519000,8.99651904296875,9.783007621765137,0.026336219161748886,0.05267243832349777
1716735573408519200,9.006519287109375,9.787796020507812,0.023942016065120697,0.0694318488240242
1716735573418519000,9.01651904296875,9.785401344299316,0.05027823522686958,0.05027823522686958
1716735573428519200,9.026519287109375,9.775824546813965,0.038307227194309235,0.06224924325942993
1716735573438519000,9.03651904296875,9.790189743041992,0.038307227194309235,0.05267243832349777
1716735573448519200,9.046519287109374,9.790189743041992,0.031124621629714966,0.05027823522686958
1716735573458519000,9.05651904296875,9.794978141784668,0.021547814831137657,0.06224924325942993
1716735573468519200,9.066519287109376,9.785401344299316,0.047884032130241394,0.047884032130241394
1716735573478519000,9.07651904296875,9.785401344299316,0.038307227194309235,0.05027823522686958
1716735573488519200,9.086519287109375,9.790189743041992,0.033518824726343155,0.047884032130241394
1716735573498519000,9.09651904296875,9.787796020507812,0.033518824726343155,0.05506663769483566
1716735573508519200,9.106519287109375,9.775824546813965,0.023942016065120697,0.05027823522686958
1716735573518519000,9.11651904296875,9.797372817993164,0.038307227194309235,0.043095629662275314
1716735573528519200,9.126519287109375,9.787796020507812,0.035913024097681046,0.05267243832349777
1716735573538519000,9.13651904296875,9.790189743041992,0.031124621629714966,0.0454898327589035
1716735573548519200,9.146519287109374,9.794978141784668,0.038307227194309235,0.05746084079146385
1716735573558519000,9.15651904296875,9.785401344299316,0.038307227194309235,0.05746084079146385
1716735573568519200,9.166519287109375,9.790189743041992,0.031124621629714966,0.047884032130241394
1716735573578519000,9.17651904296875,9.790189743041992,0.019153613597154617,0.05267243832349777
1716735573588519200,9.186519287109375,9.794978141784668,0.038307227194309235,0.05267243832349777
1716735573598519000,9.19651904296875,9.787796020507812,0.047884032130241394,0.05027823522686958
1716735573608519200,9.206519287109375,9.794978141784668,0.033518824726343155,0.043095629662275314
1716735573618519000,9.21651904296875,9.783007621765137,0.033518824726343155,0.05746084079146385
1716735573628519200,9.226519287109374,9.790189743041992,0.028730420395731926,0.05027823522686958
1716735573638519000,9.23651904296875,9.787796020507812,0.0454898327589035,0.05506663769483566
1716735573648519200,9.246519287109376,9.787796020507812,0.038307227194309235,0.07182604819536209
1716735573658519000,9.25651904296875,9.74709415435791,0.0071826050989329815,0.038307227194309235
1716735573668519200,9.266519287109375,9.9865140914917,0.06703764945268631,0.07182604819536209
1716735573678519000,9.27651904296875,9.687239646911621,0.021547814831137657,0.08140286058187485
1716735573688519200,9.286519287109375,9.711181640625,0.033518824726343155,0.05267243832349777
1716735573698519000,9.29651904296875,9.751882553100586,0.033518824726343155,0.0694318488240242
1716735573708519200,9.306519287109374,9.8691987991333,0.014365210197865963,0.05267243832349777
1716735573718519000,9.31651904296875,9.766247749328613,0.047884032130241394,0.05506663769483566
1716735573728519200,9.326519287109376,9.687239646911621,0.033518824726343155,0.06703764945268631
1716735573738519000,9.33651904296875,9.742305755615234,0.05267243832349777,0.05746084079146385
1716735573748519200,9.346519287109375,9.883563995361328,0.05267243832349777,0.05746084079146385
1716735573758519000,9.35651904296875,9.797372817993164,0.0454898327589035,0.05746084079146385
1716735573768519200,9.366519287109375,9.739912033081055,0.021547814831137657,0.0454898327589035
1716735573778519000,9.37651904296875,9.739912033081055,0.031124621629714966,0.05506663769483566
1716735573788519200,9.386519287109374,9.83568000793457,0.028730420395731926,0.0454898327589035
1716735573798519000,9.39651904296875,9.811738014221191,0.026336219161748886,0.043095629662275314
1716735573808519200,9.406519287109376,9.727940559387207,0.035913024097681046,0.07422025501728058
1716735573818519000,9.41651904296875,9.761459350585938,0.06703764945268631,0.035913024097681046
1716735573828519200,9.426519287109375,9.83568000793457,0.043095629662275314,0.05027823522686958
1716735573838519000,9.43651904296875,9.797372817993164,0.043095629662275314,0.06703764945268631
1716735573848519200,9.446519287109375,9.725546836853027,0.033518824726343155,0.035913024097681046
1716735573858519000,9.45651904296875,9.766247749328613,0.021547814831137657,0.047884032130241394
1716735573868519200,9.466519287109374,9.823708534240723,0.023942016065120697,0.05746084079146385
1716735573878519000,9.47651904296875,9.80216121673584,0.038307227194309235,0.05746084079146385
1716735573888519200,9.486519287109376,9.756670951843262,0.038307227194309235,0.06224924325942993
1716735573898519000,9.49651904296875,9.778219223022461,0.043095629662275314,0.05985504388809204
1716735573908519200,9.506519287109375,9.811738014221191,0.035913024097681046,0.06703764945268631
1716735573918519000,9.51651904296875,9.80455493927002,0.043095629662275314,0.047884032130241394
1716735573928519200,9.526519287109375,9.749488830566406,0.035913024097681046,0.06464344263076782
1716735573938519000,9.53651904296875,9.749488830566406,0.023942016065120697,0.05746084079146385
1716735573948519200,9.546519287109374,9.799766540527344,0.014365210197865963,0.05027823522686958
1716735573958519000,9.55651904296875,9.80216121673584,0.043095629662275314,0.06224924325942993
1716735573968519200,9.566519287109376,9.756670951843262,0.035913024097681046,0.06464344263076782
1716735573978519000,9.57651904296875,9.766247749328613,0.047884032130241394,0.06464344263076782
1716735573988519200,9.586519287109375,9.814131736755371,0.038307227194309235,0.05027823522686958
1716735573998519000,9.59651904296875,9.797372817993164,0.033518824726343155,0.05506663769483566
1716735574008519200,9.606519287109375,9.785401344299316,0.035913024097681046,0.06224924325942993
1716735574018519000,9.61651904296875,9.773430824279785,0.023942016065120697,0.05027823522686958
1716735574028519200,9.626519287109375,9.797372817993164,0.028730420395731926,0.07900865375995636
1716735574038519000,9.63651904296875,9.806949615478516,0.043095629662275314,0.07422025501728058
1716735574048519200,9.646519287109374,9.771036148071289,0.038307227194309235,0.06703764945268631
1716735574058519000,9.65651904296875,9.775824546813965,0.011971008032560349,0.05267243832349777
1716735574068519200,9.666519287109375,9.792584419250488,0.047884032130241394,0.05027823522686958
1716735574078519000,9.67651904296875,9.790189743041992,0.0454898327589035,0.06224924325942993
1716735574088519200,9.686519287109375,9.785401344299316,0.043095629662275314,0.06224924325942993
1716735574098519000,9.69651904296875,9.761459350585938,0.026336219161748886,0.06224924325942993
1716735574108519200,9.706519287109375,9.794978141784668,0.026336219161748886,0.06224924325942993
1716735574118519000,9.71651904296875,9.787796020507812,0.031124621629714966,0.0454898327589035
1716735574128519200,9.726519287109374,9.771036148071289,0.033518824726343155,0.05027823522686958
1716735574138519000,9.73651904296875,9.775824546813965,0.043095629662275314,0.047884032130241394
1716735574148519200,9.746519287109376,9.797372817993164,0.047884032130241394,0.07182604819536209
1716735574158519000,9.75651904296875,9.787796020507812,0.043095629662275314,0.05506663769483566
1716735574168519200,9.766519287109375,9.775824546813965,0.021547814831137657,0.05985504388809204
1716735574178519000,9.77651904296875,9.775824546813965,0.038307227194309235,0.047884032130241394
1716735574188519200,9.786519287109375,9.797372817993164,0.033518824726343155,0.047884032130241394
1716735574198519000,9.79651904296875,9.799766540527344,0.040701430290937424,0.043095629662275314
1716735574208519200,9.806519287109374,9.775824546813965,0.038307227194309235,0.0694318488240242
1716735574218519000,9.81651904296875,9.778219223022461,0.026336219161748886,0.06703764945268631
1716735574228519200,9.826519287109376,9.771036148071289,0.019153613597154617,0.07422025501728058
1716735574238519000,9.83651904296875,9.797372817993164,0.028730420395731926,0.07182604819536209
1716735574248519200,9.846519287109375,9.778219223022461,0.016759412363171577,0.038307227194309235
1716735574258519000,9.85651904296875,9.775824546813965,0.028730420395731926,0.05267243832349777
1716735574268519200,9.866519287109375,9.787796020507812,0.028730420395731926,0.035913024097681046
1716735574278519000,9.87651904296875,9.773430824279785,0.0454898327589035,0.06464344263076782
1716735574288519200,9.886519287109374,9.778219223022461,0.043095629662275314,0.05746084079146385
1716735574298519000,9.89651904296875,9.792584419250488,0.031124621629714966,0.06224924325942993
1716735574308519200,9.906519287109376,9.778219223022461,0.026336219161748886,0.06224924325942993
1716735574318519000,9.91651904296875,9.792584419250488,0.047884032130241394,0.05506663769483566
1716735574328519200,9.926519287109375,9.792584419250488,0.035913024097681046,0.06464344263076782
1716735574338519000,9.93651904296875,9.78061294555664,0.035913024097681046,0.05985504388809204
1716735574348519200,9.946519287109375,9.792584419250488,0.040701430290937424,0.05746084079146385
1716735574358519000,9.95651904296875,9.792584419250488,0.05267243832349777,0.05027823522686958
1716735574368519200,9.966519287109374,9.785401344299316,0.026336219161748886,0.043095629662275314
1716735574378519000,9.97651904296875,9.78061294555664,0.031124621629714966,0.05027823522686958
1716735574388519200,9.986519287109376,9.783007621765137,0.033518824726343155,0.043095629662275314
1716735574398519000,9.99651904296875,9.783007621765137,0.035913024097681046,0.05985504388809204
1716735574408519200,10.006519287109375,9.785401344299316,0.035913024097681046,0.05506663769483566
1716735574418519000,10.01651904296875,9.790189743041992,0.038307227194309235,0.047884032130241394
1716735574428519200,10.026519287109375,9.787796020507812,0.028730420395731926,0.06224924325942993
1716735574438519000,10.03651904296875,9.78061294555664,0.026336219161748886,0.05027823522686958
1716735574448519200,10.046519287109374,9.790189743041992,0.031124621629714966,0.0694318488240242
1716735574458519000,10.05651904296875,9.787796020507812,0.031124621629714966,0.05027823522686958
1716735574468519200,10.066519287109376,9.799766540527344,0.023942016065120697,0.05746084079146385
1716735574478519000,10.07651904296875,9.78061294555664,0.031124621629714966,0.06464344263076782
1716735574488519200,10.086519287109375,9.78061294555664,0.035913024097681046,0.047884032130241394
1716735574498519000,10.09651904296875,9.778219223022461,0.047884032130241394,0.05985504388809204
1716735574508519200,10.106519287109375,9.783007621765137,0.05267243832349777,0.06224924325942993
1716735574518519000,10.11651904296875,9.787796020507812,0.038307227194309235,0.05746084079146385
1716735574528519200,10.126519287109375,9.773430824279785,0.05267243832349777,0.05027823522686958
1716735574538519000,10.13651904296875,9.78061294555664,0.043095629662275314,0.047884032130241394
1716735574548519200,10.146519287109374,9.783007621765137,0.040701430290937424,0.06703764945268631
1716735574558519000,10.15651904296875,9.792584419250488,0.031124621629714966,0.05267243832349777
1716735574568519200,10.166519287109375,9.778219223022461,0.028730420395731926,0.06224924325942993
1716735574578519000,10.17651904296875,9.775824546813965,0.033518824726343155,0.05506663769483566
1716735574588519200,10.186519287109375,9.790189743041992,0.040701430290937424,0.05746084079146385
1716735574598519000,10.19651904296875,9.785401344299316,0.028730420395731926,0.05506663769483566
1716735574608519200,10.206519287109375,9.775824546813965,0.040701430290937424,0.05985504388809204
1716735574618519000,10.21651904296875,9.783007621765137,0.023942016065120697,0.07900865375995636
1716735574628519200,10.226519287109374,9.771036148071289,0.031124621629714966,0.0694318488240242
1716735574638519000,10.23651904296875,9.766247749328613,0.043095629662275314,0.05027823522686958
1716735574648519200,10.246519287109376,9.785401344299316,0.040701430290937424,0.07182604819536209
1716735574658519000,10.25651904296875,9.783007621765137,0.038307227194309235,0.06703764945268631
1716735574668519200,10.266519287109375,9.787796020507812,0.043095629662275314,0.06464344263076782
1716735574678519000,10.27651904296875,9.78061294555664,0.05027823522686958,0.05506663769483566
1716735574688519200,10.286519287109375,9.775824546813965,0.043095629662275314,0.08140286058187485
1716735574698519000,10.29651904296875,9.778219223022461,0.038307227194309235,0.07422025501728058
1716735574708519200,10.306519287109374,9.785401344299316,0.023942016065120697,0.043095629662275314
1716735574718519000,10.31651904296875,9.790189743041992,0.038307227194309235,0.05267243832349777
1716735574728519200,10.326519287109376,9.790189743041992,0.031124621629714966,0.05746084079146385
1716735574738519000,10.33651904296875,9.771036148071289,0.033518824726343155,0.040701430290937424
1716735574748519200,10.346519287109375,9.783007621765137,0.05027823522686958,0.06464344263076782
1716735574758519000,10.35651904296875,9.783007621765137,0.014365210197865963,0.06224924325942993
1716735574768519200,10.366519287109375,9.763854026794434,0.06464344263076782,0.033518824726343155
1716735574778519000,10.37651904296875,9.957783699035645,0.0454898327589035,0.043095629662275314
1716735574788519200,10.386519287109374,9.845256805419922,0.023942016065120697,0.043095629662275314
1716735574798519000,10.39651904296875,9.742305755615234,0.026336219161748886,0.0694318488240242
1716735574808519200,10.406519287109376,9.80455493927002,0.040701430290937424,0.0454898327589035
1716735574818519000,10.41651904296875,9.840468406677246,0.023942016065120697,0.05506663769483566
1716735574828519200,10.426519287109375,9.754277229309082,0.05746084079146385,0.05746084079146385
1716735574838519000,10.43651904296875,9.739912033081055,0.05027823522686958,0.06464344263076782
1716735574848519200,10.446519287109375,9.823708534240723,0.026336219161748886,0.05746084079146385
1716735574858519000,10.45651904296875,9.83568000793457,0.033518824726343155,0.06224924325942993
1716735574868519200,10.466519287109374,9.761459350585938,0.028730420395731926,0.0454898327589035
1716735574878519000,10.47651904296875,9.727940559387207,0.028730420395731926,0.06703764945268631
1716735574888519200,10.486519287109376,9.818920135498047,0.043095629662275314,0.06464344263076782
1716735574898519000,10.49651904296875,9.814131736755371,0.004788403399288654,0.05506663769483566
1716735574908519200,10.506519287109375,9.76864242553711,0.038307227194309235,0.06703764945268631
1716735574918519000,10.51651904296875,9.74709415435791,0.028730420395731926,0.043095629662275314
1716735574928519200,10.526519287109375,9.80455493927002,0.031124621629714966,0.06464344263076782
1716735574938519000,10.53651904296875,9.823708534240723,0.014365210197865963,0.05985504388809204
1716735574948519200,10.546519287109374,9.773430824279785,0.043095629662275314,0.0454898327589035
1716735574958519000,10.55651904296875,9.742305755615234,0.033518824726343155,0.05506663769483566
1716735574968519200,10.566519287109376,9.80455493927002,0.031124621629714966,0.05985504388809204
1716735574978519000,10.57651904296875,9.823708534240723,0.023942016065120697,0.047884032130241394
1716735574988519200,10.586519287109375,9.761459350585938,0.038307227194309235,0.05985504388809204
1716735574998519000,10.59651904296875,9.763854026794434,0.05506663769483566,0.05746084079146385
1716735575008519200,10.606519287109375,9.785401344299316,0.035913024097681046,0.05267243832349777
1716735575018519000,10.61651904296875,9.828496932983398,0.05027823522686958,0.05746084079146385
1716735575028519200,10.626519287109375,9.775824546813965,0.021547814831137657,0.05267243832349777
1716735575038519000,10.63651904296875,9.754277229309082,0.021547814831137657,0.05746084079146385
1716735575048519200,10.646519287109374,9.794978141784668,0.035913024097681046,0.05267243832349777
1716735575058519000,10.65651904296875,9.806949615478516,0.033518824726343155,0.05027823522686958
1716735575068519200,10.666519287109375,9.785401344299316,0.028730420395731926,0.05746084079146385
1716735575078519000,10.67651904296875,9.763854026794434,0.026336219161748886,0.06224924325942993
1716735575088519200,10.686519287109375,9.785401344299316,0.033518824726343155,0.05506663769483566
1716735575098519000,10.69651904296875,9.794978141784668,0.035913024097681046,0.05985504388809204
1716735575108519200,10.706519287109375,9.775824546813965,0.038307227194309235,0.05027823522686958
1716735575118519000,10.71651904296875,9.78061294555664,0.031124621629714966,0.07661445438861847
1716735575128519200,10.726519287109374,9.785401344299316,0.019153613597154617,0.06224924325942993
1716735575138519000,10.73651904296875,9.806949615478516,0.0454898327589035,0.05985504388809204
1716735575148519200,10.746519287109376,9.775824546813965,0.043095629662275314,0.06464344263076782
1716735575158519000,10.75651904296875,9.797372817993164,0.0454898327589035,0.06703764945268631
1716735575168519200,10.766519287109375,9.775824546813965,0.038307227194309235,0.05985504388809204
1716735575178519000,10.77651904296875,9.80455493927002,0.05267243832349777,0.05027823522686958
1716735575188519200,10.786519287109375,9.799766540527344,0.038307227194309235,0.05027823522686958
1716735575198519000,10.79651904296875,9.771036148071289,0.028730420395731926,0.05985504388809204
1716735575208519200,10.806519287109374,9.775824546813965,0.033518824726343155,0.0454898327589035
1716735575218519000,10.81651904296875,9.80455493927002,0.026336219161748886,0.05506663769483566
1716735575228519200,10.826519287109376,9.787796020507812,0.028730420395731926,0.07182604819536209
1716735575238519000,10.83651904296875,9.773430824279785,0.040701430290937424,0.06703764945268631
1716735575248519200,10.846519287109375,9.787796020507812,0.028730420395731926,0.05027823522686958
1716735575258519000,10.85651904296875,9.797372817993164,0.05267243832349777,0.043095629662275314
1716735575268519200,10.866519287109375,9.792584419250488,0.0454898327589035,0.038307227194309235
1716735575278519000,10.87651904296875,9.775824546813965,0.033518824726343155,0.0694318488240242
1716735575288519200,10.886519287109374,9.785401344299316,0.035913024097681046,0.05267243832349777
1716735575298519000,10.89651904296875,9.790189743041992,0.023942016065120697,0.06703764945268631
1716735575308519200,10.906519287109376,9.778219223022461,0.05027823522686958,0.06464344263076782
1716735575318519000,10.91651904296875,9.766247749328613,0.043095629662275314,0.047884032130241394
1716735575328519200,10.926519287109375,9.783007621765137,0.035913024097681046,0.05506663769483566
1716735575338519000,10.93651904296875,9.785401344299316,0.028730420395731926,0.047884032130241394
1716735575348519200,10.946519287109375,9.785401344299316,0.040701430290937424,0.047884032130241394
1716735575358519000,10.95651904296875,9.78061294555664,0.038307227194309235,0.06464344263076782
1716735575368519200,10.966519287109374,9.783007621765137,0.05267243832349777,0.06464344263076782
1716735575378519000,10.97651904296875,9.783007621765137,0.033518824726343155,0.040701430290937424
1716735575388519200,10.986519287109376,9.790189743041992,0.0454898327589035,0.06464344263076782
1716735575398519000,10.99651904296875,9.771036148071289,0.026336219161748886,0.05985504388809204
1716735575408519200,11.006519287109375,9.787796020507812,0.035913024097681046,0.06703764945268631
1716735575418519300,11.016519287109375,9.794978141784668,0.05027823522686958,0.06224924325942993
1716735575428519200,11.026519287109375,9.785401344299316,0.047884032130241394,0.06703764945268631
1716735575438519300,11.036519287109375,9.785401344299316,0.031124621629714966,0.05985504388809204
1716735575448519200,11.046519287109374,9.775824546813965,0.038307227194309235,0.05267243832349777
1716735575458519000,11.05651904296875,9.773430824279785,0.031124621629714966,0.05985504388809204
1716735575468519200,11.066519287109376,9.799766540527344,0.038307227194309235,0.05027823522686958
1716735575478519000,11.07651904296875,9.773430824279785,0.043095629662275314,0.05027823522686958
1716735575488519200,11.086519287109375,9.785401344299316,0.047884032130241394,0.06224924325942993
1716735575498519000,11.09651904296875,9.787796020507812,0.026336219161748886,0.06224924325942993
1716735575508519200,11.106519287109375,9.78061294555664,0.0454898327589035,0.05985504388809204
1716735575518519000,11.11651904296875,9.773430824279785,0.040701430290937424,0.05506663769483566
1716735575528519200,11.126519287109375,9.785401344299316,0.002394201699644327,0.06703764945268631
1716735575538519000,11.13651904296875,9.794978141784668,0.023942016065120697,0.06703764945268631
1716735575548519200,11.146519287109374,9.783007621765137,0.0454898327589035,0.05027823522686958
1716735575558519000,11.15651904296875,9.787796020507812,0.0454898327589035,0.035913024097681046
1716735575568519200,11.166519287109375,9.78061294555664,0.023942016065120697,0.05985504388809204
1716735575578519000,11.17651904296875,9.787796020507812,0.0454898327589035,0.05506663769483566
1716735575588519200,11.186519287109375,9.778219223022461,0.035913024097681046,0.05027823522686958
1716735575598519000,11.19651904296875,9.775824546813965,0.031124621629714966,0.047884032130241394
1716735575608519200,11.206519287109375,9.773430824279785,0.043095629662275314,0.040701430290937424
1716735575618519000,11.21651904296875,9.785401344299316,0.05027823522686958,0.05027823522686958
1716735575628519200,11.226519287109374,9.799766540527344,0.038307227194309235,0.05985504388809204
1716735575638519000,11.23651904296875,9.778219223022461,0.033518824726343155,0.038307227194309235
1716735575648519200,11.246519287109376,9.797372817993164,0.040701430290937424,0.047884032130241394
1716735575658519300,11.256519287109375,9.785401344299316,0.023942016065120697,0.05746084079146385
1716735575668519200,11.266519287109375,9.787796020507812,0.038307227194309235,0.043095629662275314
1716735575678519300,11.276519287109375,9.783007621765137,0.026336219161748886,0.06703764945268631
1716735575688519200,11.286519287109375,9.783007621765137,0.043095629662275314,0.038307227194309235
1716735575698519300,11.296519287109374,9.773430824279785,0.031124621629714966,0.06224924325942993
1716735575708519200,11.306519287109374,9.78061294555664,0.040701430290937424,0.06464344263076782
1716735575718519000,11.31651904296875,9.785401344299316,0.028730420395731926,0.07182604819536209
1716735575728519200,11.326519287109376,9.790189743041992,0.040701430290937424,0.06224924325942993
1716735575738519000,11.33651904296875,9.787796020507812,0.038307227194309235,0.047884032130241394
1716735575748519200,11.346519287109375,9.778219223022461,0.019153613597154617,0.05267243832349777
1716735575758519000,11.35651904296875,9.78061294555664,0.026336219161748886,0.06224924325942993
1716735575768519200,11.366519287109375,9.778219223022461,0.043095629662275314,0.05746084079146385
1716735575778519000,11.37651904296875,9.787796020507812,0.038307227194309235,0.05267243832349777
1716735575788519200,11.386519287109374,9.787796020507812,0.040701430290937424,0.040701430290937424
1716735575798519000,11.39651904296875,9.785401344299316,0.035913024097681046,0.06703764945268631
1716735575808519200,11.406519287109376,9.785401344299316,0.031124621629714966,0.035913024097681046
1716735575818519000,11.41651904296875,9.794978141784668,0.05267243832349777,0.05267243832349777
1716735575828519200,11.426519287109375,9.80455493927002,-0.0071826050989329815,0.031124621629714966
1716735575838519000,11.43651904296875,9.991303443908691,0.05506663769483566,0.040701430290937424
1716735575848519200,11.446519287109375,9.763854026794434,0.023942016065120697,0.05985504388809204
1716735575858519000,11.45651904296875,9.771036148071289,0.031124621629714966,0.05506663769483566
1716735575868519200,11.466519287109374,9.787796020507812,0.031124621629714966,0.06703764945268631
1716735575878519000,11.47651904296875,9.811738014221191,0.040701430290937424,0.05267243832349777
1716735575888519200,11.486519287109376,9.818920135498047,0.028730420395731926,0.05746084079146385
1716735575898519000,11.49651904296875,9.708786964416504,0.06224924325942993,0.06464344263076782
1716735575908519200,11.506519287109375,9.735123634338379,0.0454898327589035,0.038307227194309235
1716735575918519000,11.51651904296875,9.878775596618652,0.033518824726343155,0.07422025501728058
1716735575928519200,11.526519287109375,9.847650527954102,0.033518824726343155,0.05267243832349777
1716735575938519000,11.53651904296875,9.725546836853027,0.016759412363171577,0.05027823522686958
1716735575948519200,11.546519287109374,9.715970039367676,0.033518824726343155,0.040701430290937424
1716735575958519000,11.55651904296875,9.862015724182129,0.028730420395731926,0.043095629662275314
1716735575968519200,11.566519287109376,9.83807373046875,0.0454898327589035,0.05746084079146385
1716735575978519000,11.57651904296875,9.74709415435791,0.031124621629714966,0.07661445438861847
1716735575988519200,11.586519287109375,9.742305755615234,0.028730420395731926,0.047884032130241394
1716735575998519000,11.59651904296875,9.818920135498047,0.047884032130241394,0.038307227194309235
1716735576008519200,11.606519287109375,9.826103210449219,0.05267243832349777,0.0454898327589035
1716735576018519000,11.61651904296875,9.749488830566406,0.038307227194309235,0.047884032130241394
1716735576028519200,11.626519287109375,9.749488830566406,0.033518824726343155,0.0454898327589035
1716735576038519000,11.63651904296875,9.811738014221191,0.033518824726343155,0.05027823522686958
1716735576048519200,11.646519287109374,9.833285331726074,0.023942016065120697,0.05506663769483566
1716735576058519000,11.65651904296875,9.759065628051758,0.043095629662275314,0.040701430290937424
1716735576068519200,11.666519287109375,9.749488830566406,0.033518824726343155,0.035913024097681046
1716735576078519000,11.67651904296875,9.806949615478516,0.019153613597154617,0.06464344263076782
1716735576088519200,11.686519287109375,9.833285331726074,0.0071826050989329815,0.06224924325942993
1716735576098519000,11.69651904296875,9.766247749328613,0.019153613597154617,0.07422025501728058
1716735576108519200,11.706519287109375,9.756670951843262,0.009576806798577309,0.07661445438861847
1716735576118519000,11.71651904296875,9.799766540527344,0.043095629662275314,0.033518824726343155
1716735576128519200,11.726519287109374,9.814131736755371,0.05267243832349777,0.05027823522686958
1716735576138519000,11.73651904296875,9.761459350585938,0.040701430290937424,0.06224924325942993
1716735576148519200,11.746519287109376,9.76864242553711,0.05027823522686958,0.05027823522686958
1716735576158519000,11.75651904296875,9.80455493927002,0.038307227194309235,0.05267243832349777
1716735576168519200,11.766519287109375,9.823708534240723,0.021547814831137657,0.043095629662275314
1716735576178519000,11.77651904296875,9.771036148071289,0.031124621629714966,0.05506663769483566
1716735576188519200,11.786519287109375,9.766247749328613,0.0454898327589035,0.026336219161748886
1716735576198519000,11.79651904296875,9.787796020507812,0.05027823522686958,0.043095629662275314
1716735576208519200,11.806519287109374,9.821314811706543,0.033518824726343155,0.05027823522686958
1716735576218519000,11.81651904296875,9.785401344299316,0.033518824726343155,0.05506663769483566
1716735576228519200,11.826519287109376,9.771036148071289,0.026336219161748886,0.07422025501728058
1716735576238519000,11.83651904296875,9.797372817993164,0.0454898327589035,0.0454898327589035
1716735576248519200,11.846519287109375,9.80455493927002,0.033518824726343155,0.06464344263076782
1716735576258519000,11.85651904296875,9.783007621765137,0.0454898327589035,0.07900865375995636
1716735576268519200,11.866519287109375,9.771036148071289,0.031124621629714966,0.038307227194309235
1716735576278519000,11.87651904296875,9.794978141784668,0.0454898327589035,0.05027823522686958
1716735576288519200,11.886519287109374,9.811738014221191,0.031124621629714966,0.08379705995321274
1716735576298519000,11.89651904296875,9.783007621765137,0.033518824726343155,0.05506663769483566
1716735576308519200,11.906519287109376,9.763854026794434,0.035913024097681046,0.05506663769483566
1716735576318519000,11.91651904296875,9.783007621765137,0.047884032130241394,0.05746084079146385
1716735576328519200,11.926519287109375,9.814131736755371,0.019153613597154617,0.05506663769483566
1716735576338519000,11.93651904296875,9.783007621765137,0.031124621629714966,0.06464344263076782
1716735576348519200,11.946519287109375,9.766247749328613,0.035913024097681046,0.05267243832349777
1716735576358519000,11.95651904296875,9.792584419250488,0.028730420395731926,0.043095629662275314
1716735576368519200,11.966519287109374,9.794978141784668,0.019153613597154617,0.06703764945268631
1716735576378519000,11.97651904296875,9.783007621765137,0.05027823522686958,0.06464344263076782
1716735576388519200,11.986519287109376,9.766247749328613,0.035913024097681046,0.05506663769483566
1716735576398519000,11.99651904296875,9.794978141784668,0.026336219161748886,0.05506663769483566
1716735576408519200,12.006519287109375,9.785401344299316,0.038307227194309235,0.043095629662275314
1716735576418519000,12.01651904296875,9.773430824279785,0.035913024097681046,0.047884032130241394
1716735576428519200,12.026519287109375,9.775824546813965,0.035913024097681046,0.07182604819536209
1716735576438519000,12.03651904296875,9.783007621765137,0.023942016065120697,0.05027823522686958
1716735576448519200,12.046519287109374,9.794978141784668,0.021547814831137657,0.05027823522686958
1716735576458519000,12.05651904296875,9.78061294555664,0.031124621629714966,0.06703764945268631
1716735576468519200,12.066519287109376,9.78061294555664,0.031124621629714966,0.05506663769483566
1716735576478519000,12.07651904296875,9.783007621765137,0.047884032130241394,0.05985504388809204
1716735576488519200,12.086519287109375,9.80216121673584,0.031124621629714966,0.047884032130241394
1716735576498519000,12.09651904296875,9.794978141784668,0.028730420395731926,0.040701430290937424
1716735576508519200,12.106519287109375,9.794978141784668,0.028730420395731926,0.05746084079146385
1716735576518519000,12.11651904296875,9.797372817993164,0.047884032130241394,0.05267243832349777
1716735576528519200,12.126519287109375,9.790189743041992,0.035913024097681046,0.05985504388809204
1716735576538519000,12.13651904296875,9.785401344299316,0.033518824726343155,0.0694318488240242
1716735576548519200,12.146519287109374,9.78061294555664,0.040701430290937424,0.05985504388809204
1716735576558519000,12.15651904296875,9.775824546813965,0.040701430290937424,0.05027823522686958
1716735576568519200,12.166519287109375,9.783007621765137,0.033518824726343155,0.043095629662275314
1716735576578519000,12.17651904296875,9.778219223022461,0.028730420395731926,0.05985504388809204
1716735576588519700,12.186519775390625,9.778219223022461,0.035913024097681046,0.047884032130241394
1716735576598519600,12.19651953125,9.787796020507812,0.035913024097681046,0.05506663769483566
1716735576608519700,12.206519775390625,9.799766540527344,0.038307227194309235,0.06703764945268631
1716735576618519600,12.21651953125,9.783007621765137,0.047884032130241394,0.05027823522686958
1716735576628519700,12.226519775390624,9.778219223022461,0.0454898327589035,0.06464344263076782
1716735576638519600,12.23651953125,9.790189743041992,0.023942016065120697,0.0694318488240242
1716735576648519700,12.246519775390626,9.799766540527344,0.040701430290937424,0.06224924325942993
1716735576658519600,12.25651953125,9.794978141784668,0.023942016065120697,0.05027823522686958
1716735576668519700,12.266519775390625,9.775824546813965,0.033518824726343155,0.06224924325942993
1716735576678519600,12.27651953125,9.778219223022461,0.026336219161748886,0.06464344263076782
1716735576688519700,12.286519775390625,9.794978141784668,0.05027823522686958,0.05985504388809204
1716735576698519600,12.29651953125,9.80455493927002,0.0454898327589035,0.05506663769483566
1716735576708519700,12.306519775390624,9.78061294555664,0.028730420395731926,0.05985504388809204
1716735576718519600,12.31651953125,9.773430824279785,0.023942016065120697,0.035913024097681046
1716735576728519700,12.326519775390626,9.794978141784668,0.040701430290937424,0.06464344263076782
1716735576738519600,12.33651953125,9.792584419250488,0.031124621629714966,0.05506663769483566
1716735576748519700,12.346519775390625,9.78061294555664,0.031124621629714966,0.06703764945268631
1716735576758519600,12.35651953125,9.785401344299316,0.023942016065120697,0.05506663769483566
1716735576768519700,12.366519775390625,9.792584419250488,0.033518824726343155,0.0454898327589035
1716735576778519600,12.37651953125,9.787796020507812,0.028730420395731926,0.05506663769483566
1716735576788519700,12.386519775390624,9.78061294555664,0.043095629662275314,0.06224924325942993
1716735576798519600,12.39651953125,9.797372817993164,0.0454898327589035,0.06464344263076782
1716735576808519700,12.406519775390626,9.799766540527344,0.033518824726343155,0.05506663769483566
1716735576818519600,12.41651953125,9.797372817993164,0.023942016065120697,0.07900865375995636
1716735576828519700,12.426519775390625,9.794978141784668,0.028730420395731926,0.05267243832349777
1716735576838519600,12.43651953125,9.783007621765137,0.043095629662275314,0.05027823522686958
1716735576848519700,12.446519775390625,9.78061294555664,0.040701430290937424,0.05506663769483566
1716735576858519600,12.45651953125,9.783007621765137,0.040701430290937424,0.05267243832349777
1716735576868519700,12.466519775390625,9.790189743041992,0.0454898327589035,0.05267243832349777
1716735576878519600,12.47651953125,9.792584419250488,0.028730420395731926,0.05027823522686958
1716735576888519200,12.486519287109376,9.787796020507812,0.040701430290937424,0.05746084079146385
1716735576898519000,12.49651904296875,9.785401344299316,0.026336219161748886,0.0454898327589035
1716735576908519200,12.506519287109375,9.708786964416504,0.009576806798577309,0.0454898327589035
1716735576918519000,12.51651904296875,9.857227325439453,0.031124621629714966,0.06224924325942993
1716735576928519200,12.526519287109375,9.814131736755371,0.033518824726343155,0.05027823522686958
1716735576938519000,12.53651904296875,9.778219223022461,0.023942016065120697,0.05267243832349777
1716735576948519200,12.546519287109374,9.742305755615234,0.033518824726343155,0.06224924325942993
1716735576958519000,12.55651904296875,9.809343338012695,0.023942016065120697,0.040701430290937424
1716735576968519200,12.566519287109376,9.814131736755371,0.0454898327589035,0.05267243832349777
1716735576978519000,12.57651904296875,9.76864242553711,0.035913024097681046,0.05267243832349777
1716735576988519200,12.586519287109375,9.74709415435791,0.028730420395731926,0.05506663769483566
1716735576998519000,12.59651904296875,9.816526412963867,0.031124621629714966,0.0454898327589035
1716735577008519200,12.606519287109375,9.818920135498047,0.035913024097681046,0.06703764945268631
1716735577018519000,12.61651904296875,9.778219223022461,0.035913024097681046,0.05267243832349777
1716735577028519200,12.626519287109375,9.771036148071289,0.016759412363171577,0.05746084079146385
1716735577038519000,12.63651904296875,9.814131736755371,0.035913024097681046,0.06224924325942993
1716735577048519200,12.646519287109374,9.80216121673584,0.038307227194309235,0.043095629662275314
1716735577058519000,12.65651904296875,9.775824546813965,0.033518824726343155,0.05506663769483566
1716735577068519200,12.666519287109375,9.759065628051758,0.0454898327589035,0.07422025501728058
1716735577078519000,12.67651904296875,9.799766540527344,0.040701430290937424,0.0694318488240242
1716735577088519200,12.686519287109375,9.806949615478516,0.031124621629714966,0.06464344263076782
1716735577098519000,12.69651904296875,9.787796020507812,0.028730420395731926,0.038307227194309235
1716735577108519200,12.706519287109375,9.771036148071289,0.031124621629714966,0.040701430290937424
1716735577118519000,12.71651904296875,9.799766540527344,0.021547814831137657,0.05506663769483566
1716735577128519200,12.726519287109374,9.806949615478516,0.038307227194309235,0.07900865375995636
1716735577138519000,12.73651904296875,9.778219223022461,0.043095629662275314,0.05267243832349777
1716735577148519200,12.746519287109376,9.775824546813965,0.0454898327589035,0.05746084079146385
1716735577158519000,12.75651904296875,9.799766540527344,0.06703764945268631,0.06224924325942993
1716735577168519200,12.766519287109375,9.809343338012695,0.06464344263076782,0.05027823522686958
1716735577178519000,12.77651904296875,9.787796020507812,0.043095629662275314,0.07661445438861847
1716735577188519200,12.786519287109375,9.775824546813965,0.019153613597154617,0.06224924325942993
1716735577198519000,12.79651904296875,9.799766540527344,0.031124621629714966,0.047884032130241394
1716735577208519200,12.806519287109374,9.806949615478516,0.031124621629714966,0.06464344263076782
1716735577218519000,12.81651904296875,9.790189743041992,0.05506663769483566,0.05985504388809204
1716735577228519200,12.826519287109376,9.76864242553711,0.043095629662275314,0.06703764945268631
1716735577238519000,12.83651904296875,9.797372817993164,0.033518824726343155,0.05267243832349777
1716735577248519200,12.846519287109375,9.797372817993164,0.05027823522686958,0.05746084079146385
1716735577258519000,12.85651904296875,9.787796020507812,0.031124621629714966,0.05027823522686958
1716735577268519200,12.866519287109375,9.773430824279785,0.047884032130241394,0.05506663769483566
1716735577278519000,12.87651904296875,9.792584419250488,0.028730420395731926,0.05985504388809204
1716735577288519200,12.886519287109374,9.80216121673584,0.0454898327589035,0.05746084079146385
1716735577298519000,12.89651904296875,9.80216121673584,0.023942016065120697,0.07182604819536209
1716735577308519200,12.906519287109376,9.787796020507812,0.040701430290937424,0.05506663769483566
1716735577318519000,12.91651904296875,9.80216121673584,0.05027823522686958,0.05027823522686958
