time,seconds_elapsed,z,y,x
1717857504619769000,0.21076904296875,9.8319387550354,0.29613281784057616,0.057610477447509766
1717857504629810200,0.22081005859375,9.835380419921874,0.2958335426330566,0.04668693237304687
1717857504639852300,0.230852294921875,9.818321733093262,0.28700492401123046,0.04474164352416992
1717857504649893400,0.240893310546875,9.815179343414306,0.30181904678344723,0.04384381790161133
1717857504659935200,0.250935302734375,9.829544553375243,0.31064766540527344,0.031573534393310544
1717857504669976300,0.260976318359375,9.840917011260986,0.2979284690856933,0.035763387298583985
1717857504680017200,0.27101708984375,9.82505542526245,0.29089550170898437,0.027682956695556638
1717857504690059300,0.281059326171875,9.815478618621826,0.28730419921875,0.04908113403320312
1717857504700100000,0.29110009765625,9.824756150054931,0.2919429649353027,0.044292730712890624
1717857504710141200,0.30114111328125,9.846004689788817,0.29269115295410153,0.04474164352416992
1717857504720183000,0.31118310546875,9.823858324432372,0.29179332733154295,0.04863222122192382
1717857504730224000,0.32122412109375,9.82535470046997,0.30780455093383785,0.04519055633544922
1717857504740266000,0.331265869140625,9.822810861206055,0.3081038261413574,0.04504091873168945
1717857504750307000,0.34130712890625,9.824307237243652,0.297479556274414,0.05162497329711914
1717857504760348200,0.35134814453125,9.830442378997802,0.29179332733154295,0.036361937713623046
1717857504770390300,0.361390380859375,9.83134020462036,0.28790274963378903,0.03965396499633789
1717857504780431400,0.371431396484375,9.831040929412842,0.29568390502929687,0.04369418029785156
1717857504790473200,0.38147314453125,9.809942027282714,0.29134441452026366,0.01975216369628906
1717857504800514300,0.391514404296875,9.833734406280517,0.29343934097290036,0.039354689788818356
1717857504810555100,0.40155517578125,9.835530057525634,0.2941875289916992,0.04025251541137695
1717857504820597200,0.41159716796875,9.821164847564697,0.29269115295410153,0.050727147674560547
1717857504830638000,0.42163818359375,9.826851076507568,0.3010708587646484,0.05686228942871093
1717857504840679200,0.43167919921875,9.821015209960937,0.2871545616149902,0.04803367080688476
1717857504850721000,0.441720947265625,9.819668471527098,0.29568390502929687,0.04534019393920898
1717857504860762000,0.45176220703125,9.836278245544433,0.3028665100097656,0.03456628646850586
1717857504870804200,0.46180419921875,9.82580361328125,0.2991255699157715,0.038756139373779294
1717857504880846000,0.47184619140625,9.825953250885009,0.2882020248413086,0.04548983154296875
1717857504890887000,0.481886962890625,9.822960498809813,0.289848038482666,0.04159925384521484
1717857504900929000,0.491928955078125,9.839270997619629,0.2937386161804199,0.05132569808959961
1717857504910969900,0.501969970703125,9.830442378997802,0.29014731369018554,0.042945992279052735
1717857504921012000,0.512011962890625,9.823708686828613,0.3058592620849609,0.04384381790161133
1717857504931052800,0.522052734375,9.829694190979003,0.2989759323120117,0.03980360260009765
1717857504941094000,0.532093994140625,9.821763397979735,0.2959831802368164,0.038756139373779294
1717857504951136000,0.542135986328125,9.818770645904541,0.29074586410522457,0.037110125732421874
1717857504961177000,0.552177001953125,9.829843828582764,0.2823661582946777,0.04713584518432617
1717857504971219000,0.562218994140625,9.820267021942138,0.28805238723754883,0.04339490509033203
1717857504981260000,0.572260009765625,9.821613760375977,0.30151977157592774,0.03666121292114258
1717857504991301000,0.582301025390625,9.818770645904541,0.2947860794067383,0.03411737365722656
1717857505001343000,0.592343017578125,9.836128607940672,0.3085527389526367,0.03890577697753906
1717857505011384000,0.602384033203125,9.821763397979735,0.3012204963684082,0.047884033203124995
1717857505021426000,0.612426025390625,9.817872820281982,0.2861070983886719,0.04159925384521484
1717857505031467000,0.622467041015625,9.811737678527832,0.2888005752563476,0.04534019393920898
1717857505041507800,0.6325078125,9.817723182678222,0.29553426742553707,0.042646717071533204
1717857505051550000,0.642550048828125,9.803058697509766,0.3007715835571289,0.03860650177001953
1717857505061591000,0.652591064453125,9.788394212341307,0.29658173065185545,0.04085106582641601
1717857505071632100,0.662632080078125,9.795576817321777,0.2883516624450683,0.041748891448974604
1717857505081674000,0.672674072265625,9.860669174957275,0.2932897033691406,0.04279635467529297
1717857505091715000,0.682715087890625,9.928455009460448,0.3091512893676758,0.034715924072265626
1717857505101757000,0.6927568359375,9.908104295349121,0.3112462158203125,0.023044190979003905
1717857505111798000,0.702798095703125,9.832986218261718,0.3058592620849609,0.03486556167602539
1717857505121839000,0.712839111328125,9.78689783630371,0.3028665100097656,0.04908113403320312
1717857505131881000,0.722880859375,9.8189202835083,0.29972412033081053,0.04997895965576172
1717857505141922000,0.732922119140625,9.86336265182495,0.2920926025390625,0.04668693237304687
1717857505151964000,0.7429638671875,9.824307237243652,0.28745383682250975,0.05357026214599609
1717857505162005000,0.7530048828125,9.803058697509766,0.29433716659545894,0.037708676147460936
1717857505172045800,0.7630458984375,9.813533329772948,0.31393969268798827,0.03127425918579101
1717857505182088200,0.773088134765625,9.819818109130859,0.29568390502929687,0.02558803024291992
1717857505192129000,0.78312890625,9.833435131072997,0.296881005859375,0.024091654205322263
1717857505202171100,0.793171142578125,9.807098912811279,0.2885013000488281,0.03920505218505859
1717857505212212000,0.8032119140625,9.809792389678954,0.3024175971984863,0.04863222122192382
1717857505222253000,0.813253173828125,9.813832604980469,0.31663316955566406,0.037409400939941405
1717857505232295000,0.823294921875,9.842712662506102,0.3042132484436035,0.04025251541137695
1717857505242336000,0.8333359375,9.840019185638427,0.30256723480224607,0.03531447448730469
1717857505252378000,0.843378173828125,9.837624983978271,0.29882629470825195,0.03247136001586914
1717857505262419000,0.8534189453125,9.820865572357176,0.29224224014282224,0.040402153015136714
1717857505272460000,0.8634599609375,9.824307237243652,0.28790274963378903,0.046238019561767575
1717857505282502000,0.873501953125,9.83134020462036,0.28909985046386716,0.04249707946777344
1717857505292543000,0.88354296875,9.828048177337646,0.29703064346313474,0.05282207412719726
1717857505302585000,0.893585205078125,9.81278514175415,0.3124433166503906,0.04548983154296875
1717857505312626200,0.903626220703125,9.817573545074461,0.30092122116088865,0.04025251541137695
1717857505322667000,0.9136669921875,9.845406139373779,0.304512523651123,0.04115034103393554
1717857505332709000,0.923709228515625,9.847351428222655,0.299424845123291,0.04833294601440429
1717857505342750000,0.93375,9.830592016601562,0.2947860794067383,0.03845686416625976
1717857505352791000,0.943791015625,9.815478618621826,0.2856581855773926,0.03486556167602539
1717857505362833000,0.9538330078125,9.819818109130859,0.29089550170898437,0.042048166656494135
1717857505372874000,0.9638740234375,9.834183319091796,0.30196868438720703,0.03127425918579101
1717857505382916000,0.973916015625,9.834781869506836,0.2998737579345703,0.030825346374511717
1717857505392957000,0.98395703125,9.820117384338378,0.2904465888977051,0.04025251541137695
1717857505402998000,0.993998046875,9.81951883392334,0.2952349922180176,0.03995324020385742
1717857505413039900,1.004039794921875,9.811438403320311,0.2995744827270508,0.03980360260009765
1717857505423081000,1.0140810546875,9.834781869506836,0.29718028106689454,0.04833294601440429
1717857505433123000,1.024123046875,9.837325708770752,0.3028665100097656,0.032920272827148434
1717857505443164200,1.0341640625,9.818022457885741,0.30316578521728516,0.028880057525634766
1717857505453205000,1.044205078125,9.821164847564697,0.30092122116088865,0.03755903854370117
1717857505463247000,1.0542470703125,9.821613760375977,0.2947860794067383,0.040701428222656245
1717857505473288000,1.064287841796875,9.837176071166992,0.30137013397216794,0.04159925384521484
1717857505483330000,1.074330078125,9.834781869506836,0.30406361083984373,0.0430956298828125
1717857505493371100,1.08437109375,9.816974994659423,0.29089550170898437,0.044292730712890624
1717857505503412000,1.094411865234375,9.820715934753418,0.28042086944580075,0.03366846084594726
1717857505513454000,1.1044541015625,9.82580361328125,0.2931400657653808,0.04144961624145507
1717857505523495000,1.114494873046875,9.832836580657958,0.2964320930480957,0.036062662506103516
1717857505533536000,1.124535888671875,9.820865572357176,0.29388825378417965,0.0330699104309082
1717857505543578000,1.134578125,9.83134020462036,0.28446108474731446,0.04025251541137695
1717857505553619200,1.144619140625,9.83807389678955,0.29658173065185545,0.04683656997680664
1717857505563661000,1.1546611328125,9.810390940093994,0.3022679595947265,0.05132569808959961
1717857505573702100,1.1647021484375,9.811588040924072,0.29613281784057616,0.05596446380615234
1717857505583743000,1.174742919921875,9.820566297149657,0.30750527572631836,0.037708676147460936
1717857505593785000,1.18478515625,9.843460850524902,0.2976291938781738,0.042646717071533204
1717857505603826000,1.194825927734375,9.836427883148193,0.29089550170898437,0.03516483688354492
1717857505613868000,1.204867919921875,9.83822353439331,0.2998737579345703,0.036361937713623046
1717857505623909000,1.2149091796875,9.839869548034667,0.3076549133300781,0.03037643356323242
1717857505633950000,1.224949951171875,9.815179343414306,0.28969840087890625,0.027533319091796873
1717857505643992000,1.234991943359375,9.828347452545165,0.3024175971984863,0.03890577697753906
1717857505654033000,1.245032958984375,9.843610488128661,0.30780455093383785,0.03815758895874023
1717857505664074000,1.255073974609375,9.826551801300049,0.3055599868774414,0.030226795959472655
1717857505674116000,1.2651162109375,9.819818109130859,0.309001651763916,0.04279635467529297
1717857505684157200,1.2751572265625,9.840917011260986,0.3000233955383301,0.036062662506103516
1717857505694199000,1.285198974609375,9.834183319091796,0.29224224014282224,0.03247136001586914
1717857505704240000,1.295240234375,9.828946002960205,0.28969840087890625,0.03501519927978516
1717857505714281000,1.305281005859375,9.797821381378172,0.2962824554443359,0.032920272827148434
1717857505724323000,1.315322998046875,9.791835877227783,0.2904465888977051,0.0383072265625
1717857505734364200,1.3253642578125,9.828197814941406,0.2883516624450683,0.05132569808959961
1717857505744405000,1.335405029296875,9.832836580657958,0.2967313682556152,0.04234744186401367
1717857505754447000,1.345447021484375,9.829993466186522,0.29358897857666016,0.04085106582641601
1717857505764488000,1.355488037109375,9.794230078887939,0.3067570877075195,0.040402153015136714
1717857505774530000,1.365530029296875,9.85169091873169,0.29718028106689454,0.050128597259521485
1717857505784571000,1.37557080078125,9.885060104370117,0.2995744827270508,0.035464112091064454
1717857505794612000,1.385612060546875,9.90825393295288,0.30735563812255856,0.02319382858276367
1717857505804654000,1.395654052734375,9.837624983978271,0.3010708587646484,0.03007715835571289
1717857505814695200,1.405695068359375,9.756072489929199,0.3006219459533691,0.03800795135498047
1717857505824736000,1.415736083984375,9.763255094909667,0.30181904678344723,0.0526724365234375
1717857505834778000,1.425778076171875,9.845855052185058,0.2989759323120117,0.048931496429443354
1717857505844819000,1.43581884765625,9.875333660125731,0.3087023765563965,0.03681085052490234
1717857505854861000,1.445861083984375,9.829694190979003,0.3113958534240722,0.03995324020385742
1717857505864902100,1.455902099609375,9.783905084228515,0.29658173065185545,0.04234744186401367
1717857505874943000,1.46594287109375,9.792584065246581,0.2840121719360351,0.034715924072265626
1717857505884984300,1.475984375,9.846453602600096,0.2856581855773926,0.04638765716552734
1717857505895025200,1.486025146484375,9.87054525680542,0.29134441452026366,0.050427872467041016
1717857505905067300,1.4960673828125,9.819219558715819,0.28805238723754883,0.04414309310913086
1717857505915108000,1.506108154296875,9.808296013641357,0.3087023765563965,0.03247136001586914
1717857505925149200,1.516149169921875,9.837176071166992,0.3093009269714355,0.029927520751953124
1717857505935191000,1.52619091796875,9.856628959655762,0.311545491027832,0.04219780426025391
1717857505945232100,1.536232177734375,9.835530057525634,0.303913973236084,0.05461772537231445
1717857505955273200,1.546273193359375,9.791536602020264,0.2888005752563476,0.03860650177001953
1717857505965315000,1.556315185546875,9.796624280548095,0.297479556274414,0.0469862075805664
1717857505975356200,1.566356201171875,9.832686943054199,0.29403789138793945,0.03516483688354492
1717857505985398000,1.57639794921875,9.8442090385437,0.2840121719360351,0.029328970336914062
1717857505995439000,1.586439208984375,9.835230782318115,0.2905962265014648,0.032920272827148434
1717857506005480000,1.59647998046875,9.815179343414306,0.28999767608642574,0.044592005920410155
1717857506015522300,1.606522216796875,9.816526081848144,0.29493571701049803,0.04504091873168945
1717857506025563100,1.616563232421875,9.83837317199707,0.29433716659545894,0.05716156463623046
1717857506035604200,1.626604248046875,9.859472074127197,0.30466216125488277,0.03142389678955078
1717857506045646000,1.63664599609375,9.842712662506102,0.3007715835571289,0.03127425918579101
1717857506055687200,1.646687255859375,9.79991630783081,0.2980781066894531,0.0326209976196289
1717857506065728300,1.656728271484375,9.808894564056397,0.2958335426330566,0.03142389678955078
1717857506075770000,1.66677001953125,9.832986218261718,0.30361469802856444,0.03755903854370117
1717857506085811200,1.676811279296875,9.854234757995606,0.2867056488037109,0.031124621582031248
1717857506095853000,1.68685302734375,9.839121360015868,0.2941875289916992,0.03755903854370117
1717857506105894100,1.69689404296875,9.822062673187256,0.3042132484436035,0.03681085052490234
1717857506115935000,1.70693505859375,9.816077169036864,0.30840310134887694,0.041000703430175776
1717857506125977000,1.71697705078125,9.840917011260986,0.2976291938781738,0.035464112091064454
1717857506136018000,1.727017822265625,9.843011937713623,0.3016694091796875,0.04638765716552734
1717857506146059300,1.737059326171875,9.840468098449707,0.29284079055786133,0.03995324020385742
1717857506156101000,1.74710107421875,9.824007962036132,0.29882629470825195,0.04129997863769531
1717857506166142200,1.75714208984375,9.819818109130859,0.29433716659545894,0.030974983978271482
1717857506176184000,1.76718408203125,9.83208839263916,0.2910451393127441,0.031124621582031248
1717857506186225200,1.77722509765625,9.828497090148925,0.2989759323120117,0.04563946914672851
1717857506196266200,1.787266357421875,9.81936919631958,0.2911947769165039,0.03995324020385742
1717857506206308000,1.79730810546875,9.80575217437744,0.3012204963684082,0.03621230010986328
1717857506216349200,1.80734912109375,9.81936919631958,0.30196868438720703,0.03561374969482422
1717857506226390000,1.81739013671875,9.815777893829345,0.30092122116088865,0.037708676147460936
1717857506236432100,1.82743212890625,9.828946002960205,0.28969840087890625,0.0383072265625
1717857506246473000,1.837472900390625,9.83792425918579,0.2932897033691406,0.03860650177001953
1717857506256515300,1.847515380859375,9.834632231903075,0.2868552864074707,0.04055179061889648
1717857506266556200,1.85755615234375,9.829843828582764,0.3022679595947265,0.0282815071105957
1717857506276597200,1.86759716796875,9.828946002960205,0.289848038482666,0.03800795135498047
1717857506286639000,1.87763916015625,9.821164847564697,0.297479556274414,0.04997895965576172
1717857506296680200,1.88768017578125,9.834632231903075,0.3076549133300781,0.040102877807617184
1717857506306721300,1.89772119140625,9.834482594299315,0.2979284690856933,0.04115034103393554
1717857506316763100,1.90776318359375,9.821613760375977,0.30705636291503907,0.033219548034667964
1717857506326804200,1.91780419921875,9.829843828582764,0.2832639839172363,0.04548983154296875
1717857506336846000,1.92784619140625,9.839420635223387,0.296881005859375,0.027533319091796873
1717857506346887200,1.93788720703125,9.824905787658691,0.3060088996887207,0.04908113403320312
1717857506356928000,1.947927978515625,9.828048177337646,0.3001730331420898,0.036062662506103516
1717857506366970000,1.95797021484375,9.822361948394775,0.30361469802856444,0.04339490509033203
1717857506377011000,1.968010986328125,9.816226806640625,0.2985270195007324,0.036361937713623046
1717857506387052000,1.978052001953125,9.817573545074461,0.30271687240600587,0.040402153015136714
1717857506397094100,1.98809423828125,9.823858324432372,0.29343934097290036,0.03501519927978516
1717857506407135200,1.99813525390625,9.83238766784668,0.30196868438720703,0.03456628646850586
1717857506417177000,2.008177001953125,9.835829332733153,0.29927520751953124,0.04279635467529297
1717857506427218200,2.01821826171875,9.840318460845946,0.29433716659545894,0.03127425918579101
1717857506437259300,2.02825927734375,9.82610288848877,0.29343934097290036,0.04234744186401367
1717857506447301000,2.038301025390625,9.813832604980469,0.3001730331420898,0.0469862075805664
1717857506457342200,2.04834228515625,9.824756150054931,0.3042132484436035,0.04279635467529297
1717857506467383000,2.058383056640625,9.830592016601562,0.28535891036987304,0.046238019561767575
1717857506477425200,2.068425048828125,9.824157599639893,0.2932897033691406,0.03950432739257812
1717857506487466000,2.078466064453125,9.827150351715087,0.299424845123291,0.041748891448974604
1717857506497507000,2.088507080078125,9.830741654205323,0.2893991256713867,0.04833294601440429
1717857506507549000,2.098548828125,9.81996774673462,0.30301614761352536,0.03651157531738281
1717857506517590000,2.108590087890625,9.82565397567749,0.3055599868774414,0.04608838195800781
1717857506527632100,2.118632080078125,9.83223803024292,0.29448680419921874,0.04219780426025391
1717857506537673200,2.128673095703125,9.82565397567749,0.30151977157592774,0.04713584518432617
1717857506547714300,2.13871435546875,9.820715934753418,0.29777883148193357,0.04159925384521484
1717857506557756200,2.148756103515625,9.820715934753418,0.2989759323120117,0.038756139373779294
1717857506567797200,2.15879736328125,9.829993466186522,0.3082534637451172,0.04055179061889648
1717857506577838000,2.168838134765625,9.814580792999267,0.2989759323120117,0.04548983154296875
1717857506587880200,2.178880126953125,9.830891291809081,0.29927520751953124,0.03127425918579101
1717857506597921000,2.188921142578125,9.835679695129395,0.3016694091796875,0.04249707946777344
1717857506607963100,2.198963134765625,9.842413387298583,0.29777883148193357,0.045938744354248044
1717857506618004000,2.20900390625,9.821464122772216,0.29568390502929687,0.03456628646850586
1717857506628045000,2.219045166015625,9.813084416961669,0.30181904678344723,0.03067570877075195
1717857506638087200,2.229087158203125,9.824456874847412,0.29284079055786133,0.04025251541137695
1717857506648128300,2.239128173828125,9.82535470046997,0.2937386161804199,0.047285482788085934
1717857506658169300,2.24916943359375,9.837325708770752,0.2825157958984375,0.050427872467041016
1717857506668211200,2.259211181640625,9.796923555755615,0.2859574607849121,0.042048166656494135
1717857506678252300,2.269252197265625,9.760860893249511,0.29613281784057616,0.03980360260009765
1717857506688293000,2.279293212890625,9.786149648284912,0.2973299186706543,0.049230771636962885
1717857506698335200,2.289335205078125,9.902567704010009,0.30181904678344723,0.04025251541137695
1717857506708376000,2.2993759765625,9.923816243743897,0.3024175971984863,0.033219548034667964
1717857506718418200,2.309418212890625,9.900921690368651,0.29882629470825195,0.028730419921875
1717857506728459000,2.319458984375,9.846453602600096,0.29403789138793945,0.03501519927978516
1717857506738500000,2.3295,9.74200655517578,0.3076549133300781,0.023942016601562498
1717857506748542000,2.3395419921875,9.717465988159178,0.30092122116088865,0.031573534393310544
1717857506758583000,2.3495830078125,9.823559049224853,0.30795418853759765,0.035763387298583985
1717857506768624000,2.3596240234375,9.885359379577636,0.299424845123291,0.02633621826171875
1717857506778666200,2.369666259765625,9.837624983978271,0.3067570877075195,0.03920505218505859
1717857506788707300,2.379707275390625,9.802609784698486,0.2941875289916992,0.04085106582641601
1717857506798749200,2.389749267578125,9.818172095489501,0.2882020248413086,0.03800795135498047
1717857506808790300,2.399790283203125,9.860968450164794,0.2840121719360351,0.031124621582031248
1717857506818831000,2.4098310546875,9.866205766296385,0.2925415153503418,0.04129997863769531
1717857506828873200,2.419873291015625,9.816376444244383,0.29343934097290036,0.04548983154296875
1717857506838914000,2.4299140625,9.783156896209716,0.30466216125488277,0.04219780426025391
1717857506848955100,2.439955078125,9.815179343414306,0.2979284690856933,0.047285482788085934
1717857506858997000,2.4499970703125,9.861567000579834,0.2989759323120117,0.04848258361816406
1717857506869038000,2.4600380859375,9.84450831375122,0.3021183219909668,0.04938040924072265
1717857506879080000,2.470079833984375,9.81996774673462,0.3076549133300781,0.05416881256103515
1717857506889122300,2.480122314453125,9.797671743774414,0.3006219459533691,0.03815758895874023
1717857506899163100,2.4901630859375,9.828946002960205,0.3016694091796875,0.03441664886474609
1717857506909205200,2.500205322265625,9.83882208480835,0.2867056488037109,0.031872809600830075
1717857506919246000,2.51024609375,9.81996774673462,0.28999767608642574,0.03621230010986328
1717857506929287200,2.520287109375,9.800814133453368,0.29179332733154295,0.03860650177001953
1717857506939329000,2.5303291015625,9.81248586654663,0.2893991256713867,0.03621230010986328
1717857506949370000,2.5403701171875,9.848398891448975,0.3055599868774414,0.04548983154296875
1717857506959411200,2.5504111328125,9.841964474487304,0.30885201416015623,0.04339490509033203
1717857506969453000,2.560453125,9.821015209960937,0.3006219459533691,0.041748891448974604
1717857506979494100,2.570494140625,9.822661223602294,0.2877531120300293,0.032920272827148434
1717857506989536000,2.580535888671875,9.827599264526366,0.29448680419921874,0.03531447448730469
1717857506999577000,2.5905771484375,9.833734406280517,0.29239187774658204,0.0383072265625
1717857507009618000,2.600617919921875,9.829993466186522,0.3082534637451172,0.04444236831665039
1717857507019660300,2.610660400390625,9.8319387550354,0.299424845123291,0.039354689788818356
1717857507029701000,2.620701171875,9.820715934753418,0.3007715835571289,0.04444236831665039
1717857507039742200,2.6307421875,9.832686943054199,0.30526071166992186,0.03696048812866211
1717857507049784000,2.6407841796875,9.82565397567749,0.2962824554443359,0.04938040924072265
1717857507059825200,2.6508251953125,9.826252526092528,0.2964320930480957,0.050427872467041016
1717857507069867000,2.660866943359375,9.827299989318847,0.29224224014282224,0.040701428222656245
1717857507079908000,2.670908203125,9.825953250885009,0.2929904281616211,0.04129997863769531
1717857507089949200,2.68094921875,9.828646727752686,0.29388825378417965,0.029328970336914062
1717857507099991000,2.690990966796875,9.821164847564697,0.30047230834960936,0.039055414581298825
1717857507110032100,2.7010322265625,9.829095640563965,0.2995744827270508,0.039055414581298825
1717857507120073000,2.711072998046875,9.818172095489501,0.30196868438720703,0.03950432739257812
1717857507130115300,2.721115234375,9.821913035583496,0.3022679595947265,0.031573534393310544
1717857507140156200,2.73115625,9.841515561676024,0.2967313682556152,0.051774610900878905
1717857507150197200,2.741197265625,9.822960498809813,0.2911947769165039,0.05132569808959961
1717857507160239000,2.751239013671875,9.821763397979735,0.2856581855773926,0.04159925384521484
1717857507170280200,2.7612802734375,9.829544553375243,0.29553426742553707,0.040701428222656245
1717857507180322000,2.771322021484375,9.827299989318847,0.2877531120300293,0.02693476867675781
1717857507190363100,2.781363037109375,9.828347452545165,0.2941875289916992,0.03845686416625976
1717857507200404200,2.791404296875,9.818022457885741,0.3024175971984863,0.04608838195800781
1717857507210446000,2.801446044921875,9.82460651245117,0.3081038261413574,0.04668693237304687
1717857507220487200,2.811487060546875,9.829245278167724,0.30840310134887694,0.047584757995605464
1717857507230528000,2.821528076171875,9.832686943054199,0.30630817489624024,0.03651157531738281
1717857507240570000,2.831570068359375,9.832686943054199,0.2946364418029785,0.04144961624145507
1717857507250611000,2.84161083984375,9.823858324432372,0.29658173065185545,0.03965396499633789
1717857507260653300,2.8516533203125,9.83178911743164,0.28924948806762696,0.03621230010986328
1717857507270694100,2.861694091796875,9.811588040924072,0.2962824554443359,0.04369418029785156
1717857507280735200,2.8717353515625,9.827449626922608,0.2902969512939453,0.04219780426025391
1717857507290777000,2.881777099609375,9.836876795959473,0.2995744827270508,0.040701428222656245
1717857507300818200,2.891818115234375,9.832686943054199,0.28865093765258787,0.03965396499633789
1717857507310859300,2.901859375,9.815179343414306,0.2916436897277832,0.04279635467529297
1717857507320901000,2.911901123046875,9.82580361328125,0.3024175971984863,0.03995324020385742
1717857507330942200,2.921942138671875,9.845855052185058,0.297479556274414,0.043544542694091797
1717857507340984000,2.931984130859375,9.829544553375243,0.29822774429321286,0.03995324020385742
1717857507351025200,2.942025146484375,9.827150351715087,0.3016694091796875,0.040402153015136714
1717857507361066000,2.95206591796875,9.834033681488037,0.30840310134887694,0.04878185882568359
1717857507371108000,2.962108154296875,9.826252526092528,0.31319150466918944,0.044592005920410155
1717857507381149000,2.97214892578125,9.832986218261718,0.3064578125,0.03127425918579101
1717857507391190000,2.98218994140625,9.836427883148193,0.3003226707458496,0.04803367080688476
1717857507401232100,2.992232177734375,9.813832604980469,0.29972412033081053,0.026186580657958983
1717857507411273200,3.002273193359375,9.82565397567749,0.3124433166503906,0.04055179061889648
1717857507421314300,3.012314208984375,9.821314485168456,0.29343934097290036,0.038756139373779294
1717857507431356200,3.022356201171875,9.821464122772216,0.29927520751953124,0.042646717071533204
1717857507441397200,3.032397216796875,9.834183319091796,0.2980781066894531,0.03486556167602539
1717857507451439000,3.042439208984375,9.83223803024292,0.28206688308715816,0.042646717071533204
1717857507461480200,3.052480224609375,9.833884043884277,0.2946364418029785,0.032172084808349606
1717857507471521000,3.06252099609375,9.82610288848877,0.29777883148193357,0.03486556167602539
1717857507481563100,3.072563232421875,9.840468098449707,0.29822774429321286,0.042048166656494135
1717857507491604000,3.08260400390625,9.836577520751952,0.30346506042480464,0.0383072265625
1717857507501645000,3.09264501953125,9.823409411621093,0.2998737579345703,0.04085106582641601
1717857507511687200,3.102687255859375,9.828796365356444,0.3028665100097656,0.03651157531738281
1717857507521728000,3.11272802734375,9.835230782318115,0.29658173065185545,0.0383072265625
1717857507531769000,3.12276904296875,9.837624983978271,0.30256723480224607,0.038756139373779294
1717857507541811200,3.132811279296875,9.813832604980469,0.29658173065185545,0.040102877807617184
1717857507551852300,3.142852294921875,9.8189202835083,0.2905962265014648,0.04115034103393554
1717857507561894100,3.15289404296875,9.836727158355712,0.2991255699157715,0.04713584518432617
1717857507571935200,3.162935302734375,9.848249253845214,0.3049614364624023,0.03651157531738281
1717857507581976000,3.17297607421875,9.821763397979735,0.2979284690856933,0.04339490509033203
1717857507592018200,3.18301806640625,9.747692784118652,0.304512523651123,0.03950432739257812
1717857507602059000,3.19305908203125,9.707440268707275,0.27832594299316404,0.035464112091064454
1717857507612100000,3.20310009765625,9.887603943634033,0.28730419921875,0.06554127044677734
1717857507622142000,3.213141845703125,9.95239702606201,0.2882020248413086,0.039354689788818356
1717857507632183000,3.22318310546875,9.919327115631104,0.31259295425415035,0.02528875503540039
1717857507642225200,3.23322509765625,9.846303964996338,0.3037643356323242,0.041748891448974604
1717857507652266200,3.243266357421875,9.728090258026123,0.3000233955383301,0.028131869506835935
1717857507662307300,3.253307373046875,9.722553666687011,0.29343934097290036,0.042048166656494135
1717857507672349200,3.26334912109375,9.820566297149657,0.2958335426330566,0.06105214233398437
1717857507682390300,3.273390380859375,9.865307940673828,0.29568390502929687,0.04534019393920898
1717857507692431000,3.28343115234375,9.829245278167724,0.29239187774658204,0.04339490509033203
1717857507702473200,3.29347314453125,9.805153623962402,0.2855085479736328,0.04055179061889648
1717857507712514000,3.30351416015625,9.827898539733885,0.30705636291503907,0.03561374969482422
1717857507722555100,3.31355517578125,9.83897172241211,0.31259295425415035,0.01975216369628906
1717857507732597000,3.323596923828125,9.869797068786621,0.296881005859375,0.050427872467041016
1717857507742638000,3.33363818359375,9.841365924072266,0.28969840087890625,0.046537294769287106
1717857507752680000,3.343679931640625,9.808894564056397,0.30316578521728516,0.04129997863769531
1717857507762721000,3.353720947265625,9.820267021942138,0.30047230834960936,0.055066638183593745
1717857507772762000,3.36376220703125,9.83777462158203,0.29433716659545894,0.0430956298828125
1717857507782804200,3.37380419921875,9.839869548034667,0.30137013397216794,0.03920505218505859
1717857507792845300,3.38384521484375,9.82610288848877,0.2959831802368164,0.03651157531738281
1717857507802886100,3.39388623046875,9.819219558715819,0.2834136215209961,0.042945992279052735
1717857507812928300,3.40392822265625,9.827150351715087,0.29777883148193357,0.0378583137512207
1717857507822969000,3.413968994140625,9.866505041503906,0.2911947769165039,0.043544542694091797
1717857507833011200,3.42401123046875,9.822960498809813,0.30181904678344723,0.05955576629638672
1717857507843052000,3.434052001953125,9.813682967376709,0.29089550170898437,0.026485855865478514
1717857507853093000,3.444093017578125,9.812036953735351,0.3016694091796875,0.04534019393920898
1717857507863135000,3.454135009765625,9.83792425918579,0.2941875289916992,0.04399345550537109
1717857507873176000,3.464176025390625,9.840617736053467,0.29777883148193357,0.04189852905273437
1717857507883216400,3.47421630859375,9.8311905670166,0.29089550170898437,0.04504091873168945
1717857507893258200,3.48425830078125,9.835081144714355,0.29493571701049803,0.04384381790161133
1717857507903299300,3.49429931640625,9.833285493469237,0.29718028106689454,0.04144961624145507
1717857507913340400,3.50434033203125,9.835978970336914,0.29822774429321286,0.037409400939941405
1717857507923382300,3.51438232421875,9.840168823242188,0.3098994773864746,0.04713584518432617
1717857507933423400,3.52442333984375,9.829544553375243,0.29134441452026366,0.03725976333618164
1717857507943465200,3.53446533203125,9.813533329772948,0.2991255699157715,0.03172317199707031
1717857507953506300,3.54450634765625,9.830442378997802,0.299424845123291,0.041000703430175776
1717857507963547100,3.554547119140625,9.845406139373779,0.29822774429321286,0.05162497329711914
1717857507973589200,3.56458935546875,9.824307237243652,0.3054103492736816,0.04578910675048828
1717857507983630000,3.574630126953125,9.819668471527098,0.3001730331420898,0.031124621582031248
1717857507993671200,3.584671142578125,9.827898539733885,0.2991255699157715,0.020500351715087888
1717857508003713300,3.59471337890625,9.826551801300049,0.29703064346313474,0.04863222122192382
1717857508013754400,3.60475439453125,9.82535470046997,0.299424845123291,0.04474164352416992
1717857508023796200,3.614796142578125,9.821164847564697,0.2885013000488281,0.041000703430175776
1717857508033837300,3.62483740234375,9.829394915771484,0.3003226707458496,0.029328970336914062
1717857508043878400,3.63487841796875,9.822062673187256,0.29613281784057616,0.030825346374511717
1717857508053920300,3.644920166015625,9.835380419921874,0.29553426742553707,0.03621230010986328
1717857508063961300,3.65496142578125,9.830592016601562,0.3010708587646484,0.03845686416625976
1717857508074002200,3.665002197265625,9.827299989318847,0.2937386161804199,0.04863222122192382
1717857508084044300,3.675044189453125,9.822661223602294,0.29074586410522457,0.02902969512939453
1717857508094085000,3.685085205078125,9.821015209960937,0.2883516624450683,0.03591302490234375
1717857508104126200,3.695126220703125,9.83897172241211,0.3058592620849609,0.03860650177001953
1717857508114168000,3.70516796875,9.827599264526366,0.30735563812255856,0.04234744186401367
1717857508124209200,3.715209228515625,9.824007962036132,0.2959831802368164,0.035464112091064454
1717857508134251300,3.725251220703125,9.818022457885741,0.3001730331420898,0.035763387298583985
1717857508144292400,3.735292236328125,9.828197814941406,0.2952349922180176,0.05970540390014648
1717857508154333400,3.74533349609375,9.82565397567749,0.29343934097290036,0.04773439559936523
1717857508164375300,3.755375244140625,9.827299989318847,0.2958335426330566,0.03755903854370117
1717857508174416400,3.76541650390625,9.823259774017334,0.29837738189697266,0.03591302490234375
1717857508184457200,3.775457275390625,9.827748902130127,0.3003226707458496,0.04234744186401367
1717857508194499300,3.785499267578125,9.830442378997802,0.2976291938781738,0.04219780426025391
1717857508204540200,3.7955400390625,9.82520506286621,0.28924948806762696,0.03336918563842773
1717857508214582300,3.805582275390625,9.823259774017334,0.2877531120300293,0.03725976333618164
1717857508224623000,3.815623046875,9.820416659545899,0.3067570877075195,0.04773439559936523
1717857508234664200,3.825664306640625,9.818770645904541,0.2904465888977051,0.036361937713623046
1717857508244706300,3.835706298828125,9.83178911743164,0.2811690574645996,0.03666121292114258
1717857508254747400,3.845747314453125,9.83792425918579,0.29074586410522457,0.04938040924072265
1717857508264788500,3.85578857421875,9.830292741394043,0.29837738189697266,0.044592005920410155
1717857508274830300,3.865830322265625,9.8189202835083,0.296881005859375,0.033818098449707026
1717857508284871400,3.875871337890625,9.824456874847412,0.3081038261413574,0.04548983154296875
1717857508294912300,3.885912353515625,9.833435131072997,0.3101987525939941,0.04339490509033203
1717857508304954400,3.895954345703125,9.841665199279785,0.2946364418029785,0.03396773605346679
1717857508314995200,3.9059951171875,9.832986218261718,0.3033154228210449,0.03621230010986328
1717857508325037300,3.916037353515625,9.820117384338378,0.2925415153503418,0.044592005920410155
1717857508335078100,3.926078125,9.835829332733153,0.2976291938781738,0.04055179061889648
1717857508345119200,3.936119140625,9.83163947982788,0.28924948806762696,0.0469862075805664
1717857508355161000,3.9461611328125,9.830143103790283,0.30361469802856444,0.04339490509033203
1717857508365202200,3.9562021484375,9.839270997619629,0.2989759323120117,0.044891281127929686
1717857508375243300,3.9662431640625,9.82460651245117,0.30151977157592774,0.03621230010986328
1717857508385285400,3.976285400390625,9.836577520751952,0.30301614761352536,0.04713584518432617
1717857508395326500,3.986326416015625,9.823259774017334,0.3142389678955078,0.03336918563842773
1717857508405368300,3.996368408203125,9.822511585998535,0.30181904678344723,0.03366846084594726
1717857508415409400,4.006409423828125,9.822960498809813,0.29822774429321286,0.03396773605346679
1717857508425450200,4.0164501953125,9.820416659545899,0.29074586410522457,0.03696048812866211
1717857508435492400,4.026492431640625,9.832836580657958,0.2937386161804199,0.040102877807617184
1717857508445533200,4.036533203125,9.834033681488037,0.3033154228210449,0.04668693237304687
1717857508455574300,4.04657421875,9.856479322052001,0.2920926025390625,0.04159925384521484
1717857508465616100,4.0566162109375,9.859621711730956,0.2959831802368164,0.038756139373779294
1717857508475657200,4.0666572265625,9.816526081848144,0.28969840087890625,0.03995324020385742
1717857508485698300,4.0766982421875,9.764452195739745,0.29134441452026366,0.043245267486572266
1717857508495740200,4.086740234375,9.790489138793944,0.28266543350219725,0.03456628646850586
1717857508505781200,4.09678125,9.827599264526366,0.28865093765258787,0.04683656997680664
1717857508515823400,4.1068232421875,9.771634800720214,0.2855085479736328,0.04563946914672851
1717857508525864400,4.116864501953125,9.837026433563231,0.2967313682556152,0.043245267486572266
1717857508535905300,4.1269052734375,9.980229620361328,0.28865093765258787,0.06434416961669921
1717857508545947400,4.136947509765625,9.937133990478515,0.3012204963684082,0.0330699104309082
1717857508555988200,4.14698828125,9.847351428222655,0.29972412033081053,0.04773439559936523
1717857508566029300,4.157029296875,9.719710552215576,0.3054103492736816,0.052073886108398436
1717857508576071200,4.1670712890625,9.724798230743408,0.3016694091796875,0.023792378997802732
1717857508586112300,4.1771123046875,9.8189202835083,0.30137013397216794,0.023792378997802732
1717857508596153300,4.1871533203125,9.912144510650634,0.311545491027832,0.02528875503540039
1717857508606195200,4.1971953125,9.854683670806883,0.3016694091796875,0.02558803024291992
1717857508616236300,4.207236328125,9.803357972717285,0.297479556274414,0.03232172241210937
1717857508626278100,4.217278076171875,9.813982242584228,0.3067570877075195,0.05117606048583984
1717857508636319500,4.227319580078125,9.8449572265625,0.29179332733154295,0.032920272827148434
1717857508646360300,4.2373603515625,9.883563728332518,0.30570962448120115,0.03666121292114258
1717857508656402400,4.24740234375,9.838672447204589,0.29882629470825195,0.03980360260009765
1717857508666443300,4.257443359375,9.77358008956909,0.3054103492736816,0.027383681488037107
1717857508676484400,4.267484375,9.783456171417235,0.30780455093383785,0.04878185882568359
1717857508686526200,4.277526123046875,9.846752877807617,0.3151367935180664,0.04773439559936523
1717857508696567300,4.2875673828125,9.862315188598632,0.3001730331420898,0.041000703430175776
1717857508706609200,4.297609130859375,9.826851076507568,0.2925415153503418,0.03441664886474609
1717857508716650200,4.307650146484375,9.79333225326538,0.29777883148193357,0.04519055633544922
1717857508726691300,4.31769140625,9.820865572357176,0.28954876327514645,0.03815758895874023
1717857508736733200,4.327733154296875,9.8702459815979,0.29433716659545894,0.02079962692260742
1717857508746774300,4.337774169921875,9.83747534637451,0.28730419921875,0.04159925384521484
1717857508756815000,4.347815185546875,9.796923555755615,0.2905962265014648,0.04863222122192382
1717857508766857500,4.357857421875,9.789441675567627,0.3043628860473633,0.05027823486328125
1717857508776898300,4.367898193359375,9.834332956695556,0.3016694091796875,0.04504091873168945
1717857508786939400,4.377939453125,9.852439106750488,0.29882629470825195,0.040102877807617184
1717857508796981200,4.387981201171875,9.835081144714355,0.2995744827270508,0.03411737365722656
1717857508807022300,4.398022216796875,9.81293477935791,0.3085527389526367,0.04369418029785156
1717857508817064200,4.408064208984375,9.82535470046997,0.2919429649353027,0.034715924072265626
1717857508827105300,4.418105224609375,9.814131880187988,0.2962824554443359,0.033818098449707026
1717857508837146400,4.428146484375,9.8311905670166,0.29822774429321286,0.0430956298828125
1717857508847188200,4.438188232421875,9.8449572265625,0.3012204963684082,0.03127425918579101
1717857508857229300,4.448229248046875,9.829544553375243,0.30466216125488277,0.02798223190307617
1717857508867270100,4.458270263671875,9.82520506286621,0.3021183219909668,0.04444236831665039
1717857508877312300,4.468312255859375,9.809942027282714,0.29433716659545894,0.05521627578735351
1717857508887355100,4.478355224609375,9.821164847564697,0.31064766540527344,0.03860650177001953
1717857508897396000,4.48839599609375,9.827000714111328,0.2991255699157715,0.03516483688354492
1717857508907438000,4.49843798828125,9.822960498809813,0.2929904281616211,0.03037643356323242
1717857508917479000,4.50847900390625,9.832537305450439,0.2925415153503418,0.040701428222656245
1717857508927521000,4.51852099609375,9.829394915771484,0.2950853546142578,0.037110125732421874
1717857508937562000,4.52856201171875,9.83897172241211,0.29822774429321286,0.03621230010986328
1717857508947603000,4.53860302734375,9.82505542526245,0.3087023765563965,0.031573534393310544
1717857508957645000,4.54864501953125,9.839719910430908,0.3024175971984863,0.028730419921875
1717857508967686100,4.55868603515625,9.824756150054931,0.29837738189697266,0.025438392639160156
1717857508977727200,4.568727294921875,9.817423907470703,0.3098994773864746,0.04638765716552734
1717857508987769000,4.57876904296875,9.82610288848877,0.2985270195007324,0.04474164352416992
1717857508997810200,4.58881005859375,9.83882208480835,0.28924948806762696,0.03501519927978516
1717857509007852000,4.59885205078125,9.831040929412842,0.29343934097290036,0.03441664886474609
1717857509017893000,4.60889306640625,9.81338369216919,0.2919429649353027,0.03426701126098632
1717857509027934000,4.618933837890625,9.83134020462036,0.2888005752563476,0.030825346374511717
1717857509037976000,4.62897607421875,9.828048177337646,0.2931400657653808,0.030526071166992186
1717857509048017200,4.63901708984375,9.82505542526245,0.28924948806762696,0.04369418029785156
1717857509058058000,4.64905810546875,9.821164847564697,0.297479556274414,0.050427872467041016
1717857509068100000,4.65910009765625,9.830143103790283,0.3060088996887207,0.043544542694091797
1717857509078141000,4.669140869140625,9.822062673187256,0.28924948806762696,0.040102877807617184
1717857509088182000,4.67918212890625,9.824456874847412,0.3028665100097656,0.03860650177001953
1717857509098224000,4.68922412109375,9.83178911743164,0.2920926025390625,0.045938744354248044
1717857509108265200,4.69926513671875,9.827299989318847,0.29568390502929687,0.025887305450439452
1717857509118307000,4.70930712890625,9.8311905670166,0.30361469802856444,0.026036943054199218
1717857509128348200,4.71934814453125,9.826701438903807,0.29882629470825195,0.02902969512939453
1717857509138389000,4.729388916015625,9.820416659545899,0.30750527572631836,0.028730419921875
1717857509148431000,4.73943115234375,9.828347452545165,0.3087023765563965,0.026785131072998045
1717857509158472000,4.749471923828125,9.820117384338378,0.2953846298217773,0.04279635467529297
1717857509168513000,4.759512939453125,9.821164847564697,0.28431144714355466,0.044592005920410155
1717857509178555100,4.76955517578125,9.83134020462036,0.2856581855773926,0.036062662506103516
1717857509188596000,4.779595947265625,9.828497090148925,0.29837738189697266,0.047285482788085934
1717857509198638000,4.78963818359375,9.82550433807373,0.3000233955383301,0.05117606048583984
1717857509208679000,4.799678955078125,9.830292741394043,0.29403789138793945,0.04384381790161133
1717857509218720000,4.809719970703125,9.816226806640625,0.2823661582946777,0.03845686416625976
1717857509228762000,4.81976220703125,9.8311905670166,0.28969840087890625,0.045938744354248044
1717857509238803200,4.82980322265625,9.83134020462036,0.29867665710449215,0.051475335693359374
1717857509248844000,4.839843994140625,9.816226806640625,0.3051110740661621,0.055066638183593745
1717857509258886100,4.84988623046875,9.815628256225585,0.29718028106689454,0.0474351203918457
1717857509268927000,4.859927001953125,9.82460651245117,0.299424845123291,0.03591302490234375
1717857509278968000,4.869968017578125,9.82520506286621,0.2916436897277832,0.04414309310913086
1717857509289010000,4.880010009765625,9.837026433563231,0.28999767608642574,0.03202244720458984
1717857509299051000,4.890051025390625,9.83178911743164,0.29777883148193357,0.04444236831665039
1717857509309093000,4.900093017578125,9.81188731613159,0.2929904281616211,0.04414309310913086
1717857509319134000,4.910134033203125,9.813682967376709,0.2962824554443359,0.05087678527832031
1717857509329175000,4.920175048828125,9.827449626922608,0.2995744827270508,0.03486556167602539
1717857509339217200,4.930217041015625,9.83163947982788,0.309001651763916,0.04848258361816406
1717857509349258200,4.94025830078125,9.82460651245117,0.3076549133300781,0.030526071166992186
1717857509359299000,4.950299072265625,9.832986218261718,0.28490999755859375,0.03755903854370117
1717857509369341200,4.960341064453125,9.841964474487304,0.29343934097290036,0.04115034103393554
1717857509379382000,4.970382080078125,9.847351428222655,0.29658173065185545,0.04444236831665039
1717857509389423000,4.980423095703125,9.836727158355712,0.29493571701049803,0.04608838195800781
1717857509399465000,4.99046484375,9.81293477935791,0.28969840087890625,0.03037643356323242
1717857509409506000,5.000506103515625,9.782408708190918,0.29224224014282224,0.043544542694091797
1717857509419548200,5.010548095703125,9.769988787078857,0.3049614364624023,0.05581482620239257
1717857509429589000,5.020589111328125,9.784353997039794,0.2953846298217773,0.03336918563842773
1717857509439630000,5.030630126953125,9.92217023010254,0.29343934097290036,0.04159925384521484
1717857509449672000,5.040671875,9.909600671386718,0.2888005752563476,0.023044190979003905
1717857509459713000,5.050713134765625,9.82535470046997,0.30301614761352536,0.0282815071105957
1717857509469753900,5.06075390625,9.843909763336182,0.29568390502929687,0.047584757995605464
1717857509479796200,5.070796142578125,9.818770645904541,0.28909985046386716,0.027084406280517576
1717857509489837000,5.080837158203125,9.77402900238037,0.29718028106689454,0.030526071166992186
1717857509499878100,5.090878173828125,9.787646024322509,0.30705636291503907,0.04638765716552734
1717857509509920000,5.100919921875,9.833285493469237,0.3021183219909668,0.04129997863769531
1717857509519961000,5.110961181640625,9.83134020462036,0.3012204963684082,0.038756139373779294
1717857509530003000,5.1210029296875,9.85094273071289,0.3076549133300781,0.050727147674560547
1717857509540044000,5.1310439453125,9.834482594299315,0.2964320930480957,0.041748891448974604
1717857509550085000,5.141085205078125,9.812186591339112,0.296881005859375,0.023044190979003905
1717857509560127000,5.151126953125,9.824456874847412,0.28924948806762696,0.03232172241210937
1717857509570168000,5.16116796875,9.830741654205323,0.29224224014282224,0.031872809600830075
1717857509580209000,5.171208984375,9.796923555755615,0.2856581855773926,0.029478607940673827
1717857509590251000,5.1812509765625,9.834482594299315,0.3049614364624023,0.05132569808959961
1717857509600291800,5.191291748046875,9.822511585998535,0.29493571701049803,0.04339490509033203
1717857509610333000,5.2013330078125,9.82460651245117,0.2947860794067383,0.039354689788818356
1717857509620375000,5.211375,9.828197814941406,0.3112462158203125,0.04474164352416992
1717857509630416100,5.221416015625,9.831489842224121,0.3022679595947265,0.031573534393310544
1717857509640458000,5.2314580078125,9.819818109130859,0.28999767608642574,0.03411737365722656
1717857509650499000,5.2414990234375,9.82505542526245,0.3012204963684082,0.03336918563842773
1717857509660540200,5.2515400390625,9.83223803024292,0.29358897857666016,0.04384381790161133
1717857509670582000,5.26158203125,9.822960498809813,0.29284079055786133,0.039354689788818356
1717857509680623000,5.271623046875,9.822511585998535,0.30137013397216794,0.039354689788818356
1717857509690664000,5.281663818359375,9.847501065826416,0.2964320930480957,0.0570119270324707
1717857509700706000,5.2917060546875,9.829544553375243,0.2946364418029785,0.04833294601440429
1717857509710747000,5.301746826171875,9.829544553375243,0.3001730331420898,0.04848258361816406
1717857509720788000,5.3117880859375,9.817274269866942,0.3022679595947265,0.05192424850463867
1717857509730830000,5.321830078125,9.82565397567749,0.2947860794067383,0.036062662506103516
1717857509740871200,5.33187109375,9.827150351715087,0.29358897857666016,0.04159925384521484
1717857509750913000,5.3419130859375,9.834332956695556,0.29972412033081053,0.04668693237304687
1717857509760954000,5.3519541015625,9.837026433563231,0.2902969512939453,0.037708676147460936
1717857509770995200,5.3619951171875,9.831040929412842,0.3058592620849609,0.040701428222656245
1717857509781037000,5.372037109375,9.817423907470703,0.3145382431030273,0.04504091873168945
1717857509791078100,5.382078125,9.819219558715819,0.29882629470825195,0.04085106582641601
1717857509801119000,5.392118896484375,9.820416659545899,0.29927520751953124,0.041000703430175776
1717857509811161000,5.4021611328125,9.839121360015868,0.2952349922180176,0.05357026214599609
1717857509821202000,5.412201904296875,9.831489842224121,0.30406361083984373,0.04908113403320312
1717857509831243000,5.422242919921875,9.82610288848877,0.3051110740661621,0.028431144714355466
1717857509841284900,5.432284912109375,9.81293477935791,0.2916436897277832,0.04085106582641601
1717857509851326000,5.442325927734375,9.822960498809813,0.2964320930480957,0.040402153015136714
1717857509861368000,5.4523681640625,9.836278245544433,0.2931400657653808,0.047584757995605464
1717857509871409200,5.4624091796875,9.841216286468505,0.2950853546142578,0.04638765716552734
1717857509881450200,5.4724501953125,9.829993466186522,0.2976291938781738,0.043245267486572266
1717857509891490600,5.482490478515625,9.813982242584228,0.2876034744262695,0.03920505218505859
1717857509901531400,5.492531494140625,9.821464122772216,0.28924948806762696,0.037110125732421874
1717857509911572500,5.502572509765625,9.836427883148193,0.29822774429321286,0.044292730712890624
1717857509921614300,5.5126142578125,9.829095640563965,0.30271687240600587,0.0430956298828125
1717857509931655400,5.522655517578125,9.834632231903075,0.28535891036987304,0.0326209976196289
1717857509941697300,5.532697265625,9.839719910430908,0.2967313682556152,0.03666121292114258
1717857509951738400,5.54273828125,9.815777893829345,0.2979284690856933,0.02858078231811523
1717857509961779500,5.552779541015625,9.823259774017334,0.303913973236084,0.032172084808349606
1717857509971821300,5.5628212890625,9.822361948394775,0.3001730331420898,0.02902969512939453
1717857509981862400,5.5728623046875,9.821763397979735,0.2958335426330566,0.048183308410644526
1717857509991903200,5.5829033203125,9.820715934753418,0.29553426742553707,0.03441664886474609
1717857510001945600,5.592945556640625,9.830891291809081,0.29284079055786133,0.029927520751953124
1717857510011986400,5.602986328125,9.829544553375243,0.30570962448120115,0.042945992279052735
1717857510022027500,5.613027587890625,9.836727158355712,0.30301614761352536,0.03396773605346679
1717857510032069400,5.6230693359375,9.83792425918579,0.2919429649353027,0.033518823242187495
1717857510042110500,5.6331103515625,9.82565397567749,0.303913973236084,0.04279635467529297
1717857510052151600,5.643151611328125,9.81278514175415,0.3028665100097656,0.049530046844482416
1717857510062193400,5.653193359375,9.817573545074461,0.29239187774658204,0.03651157531738281
1717857510072234500,5.663234375,9.826252526092528,0.2910451393127441,0.040102877807617184
1717857510082276400,5.6732763671875,9.821913035583496,0.2941875289916992,0.0378583137512207
1717857510092317400,5.6833173828125,9.834482594299315,0.2998737579345703,0.03621230010986328
1717857510102358300,5.693358154296875,9.834332956695556,0.3054103492736816,0.04025251541137695
1717857510112400400,5.703400390625,9.83163947982788,0.2946364418029785,0.045938744354248044
1717857510122441200,5.713441162109375,9.827449626922608,0.30137013397216794,0.027682956695556638
1717857510132482300,5.723482421875,9.827898539733885,0.29284079055786133,0.037409400939941405
1717857510142524400,5.7335244140625,9.824756150054931,0.29179332733154295,0.04369418029785156
1717857510152565500,5.7435654296875,9.834632231903075,0.29448680419921874,0.04249707946777344
1717857510162606600,5.753606689453125,9.829394915771484,0.2916436897277832,0.0330699104309082
1717857510172648400,5.7636484375,9.829843828582764,0.29448680419921874,0.03516483688354492
1717857510182689500,5.773689453125,9.836128607940672,0.29343934097290036,0.03142389678955078
1717857510192731400,5.7837314453125,9.836128607940672,0.29089550170898437,0.03007715835571289
1717857510202772500,5.7937724609375,9.826402163696288,0.29718028106689454,0.04713584518432617
1717857510212813300,5.803813232421875,9.827748902130127,0.2846107223510742,0.03501519927978516
1717857510222855400,5.81385546875,9.828796365356444,0.3043628860473633,0.03845686416625976
1717857510232896300,5.823896240234375,9.824456874847412,0.30196868438720703,0.03920505218505859
1717857510242937300,5.833937255859375,9.819219558715819,0.30630817489624024,0.03411737365722656
1717857510252979500,5.8439794921875,9.820267021942138,0.2964320930480957,0.033518823242187495
1717857510263020500,5.8540205078125,9.817124632263184,0.2814683326721191,0.04938040924072265
1717857510273061600,5.8640615234375,9.829394915771484,0.2867056488037109,0.0469862075805664
1717857510283103500,5.874103515625,9.837176071166992,0.296881005859375,0.04339490509033203
1717857510293144600,5.88414453125,9.830143103790283,0.2931400657653808,0.036361937713623046
1717857510303186400,5.8941865234375,9.828497090148925,0.2910451393127441,0.048183308410644526
1717857510313227500,5.9042275390625,9.795127904510498,0.2991255699157715,0.03277063522338867
1717857510323268400,5.914268310546875,9.797671743774414,0.28730419921875,0.032172084808349606
1717857510333310500,5.924310546875,9.81233622894287,0.29014731369018554,0.03516483688354492
1717857510343351300,5.934351318359375,9.837176071166992,0.2964320930480957,0.031573534393310544
1717857510353392400,5.944392333984375,9.930849211120606,0.2929904281616211,0.055066638183593745
1717857510363434200,5.954434326171875,9.858574248504638,0.28640637359619137,0.0330699104309082
1717857510373475300,5.964475341796875,9.79333225326538,0.29927520751953124,0.03995324020385742
1717857510383516400,5.974516357421875,9.827449626922608,0.30780455093383785,0.040102877807617184
1717857510393558500,5.98455859375,9.80724855041504,0.29927520751953124,0.027234043884277342
1717857510403599600,5.994599609375,9.782109432983399,0.28909985046386716,0.042646717071533204
1717857510413641500,6.004641357421875,9.8189202835083,0.29269115295410153,0.05626373901367187
1717857510423682600,6.0146826171875,9.818770645904541,0.29343934097290036,0.04085106582641601
1717857510433723400,6.024723388671875,9.848698166656494,0.29613281784057616,0.0383072265625
1717857510443765500,6.034765625,9.85109236831665,0.30316578521728516,0.04339490509033203
1717857510453806300,6.044806396484375,9.813832604980469,0.3151367935180664,0.03561374969482422
1717857510463847400,6.054847412109375,9.809942027282714,0.28535891036987304,0.03920505218505859
1717857510473889300,6.06488916015625,9.824905787658691,0.2920926025390625,0.04713584518432617
1717857510483930400,6.074930419921875,9.829993466186522,0.2958335426330566,0.05027823486328125
1717857510493971500,6.084971435546875,9.820117384338378,0.30795418853759765,0.03860650177001953
1717857510504013300,6.095013427734375,9.830592016601562,0.3082534637451172,0.042945992279052735
1717857510514054400,6.105054443359375,9.826402163696288,0.29882629470825195,0.04519055633544922
1717857510524095200,6.11509521484375,9.816077169036864,0.3043628860473633,0.04115034103393554
1717857510534137600,6.1251376953125,9.843760125732421,0.30795418853759765,0.04519055633544922
1717857510544178400,6.135178466796875,9.838672447204589,0.29777883148193357,0.038756139373779294
1717857510554220500,6.145220458984375,9.827898539733885,0.3021183219909668,0.03860650177001953
1717857510564261400,6.155261474609375,9.816226806640625,0.30137013397216794,0.028431144714355466
1717857510574302500,6.165302490234375,9.828497090148925,0.2976291938781738,0.0282815071105957
1717857510584344300,6.17534423828125,9.818022457885741,0.30301614761352536,0.05237316131591797
1717857510594385400,6.185385498046875,9.81996774673462,0.30840310134887694,0.041748891448974604
1717857510604426500,6.195426513671875,9.835978970336914,0.3066074501037597,0.03890577697753906
1717857510614468400,6.20546826171875,9.830292741394043,0.3012204963684082,0.052073886108398436
1717857510624509400,6.215509521484375,9.821164847564697,0.3058592620849609,0.037409400939941405
1717857510634550300,6.22555029296875,9.820416659545899,0.2962824554443359,0.028431144714355466
1717857510644592600,6.235592529296875,9.818770645904541,0.28805238723754883,0.036062662506103516
1717857510654633500,6.245633544921875,9.836278245544433,0.28909985046386716,0.04548983154296875
1717857510664675600,6.255675537109375,9.835380419921874,0.2998737579345703,0.03965396499633789
1717857510674716400,6.26571630859375,9.836128607940672,0.30750527572631836,0.03681085052490234
1717857510684757500,6.275757568359375,9.818022457885741,0.2998737579345703,0.02902969512939453
1717857510694799400,6.28579931640625,9.829245278167724,0.2979284690856933,0.03651157531738281
1717857510704840400,6.29584033203125,9.813682967376709,0.2916436897277832,0.04519055633544922
1717857510714881500,6.305881591796875,9.824905787658691,0.289848038482666,0.03725976333618164
1717857510724923400,6.31592333984375,9.829993466186522,0.29358897857666016,0.04219780426025391
1717857510734964500,6.325964599609375,9.830741654205323,0.28805238723754883,0.04339490509033203
1717857510745005300,6.33600537109375,9.830292741394043,0.29972412033081053,0.034715924072265626
1717857510755047400,6.34604736328125,9.82580361328125,0.30406361083984373,0.03411737365722656
1717857510765088300,6.356088134765625,9.82535470046997,0.31049802780151364,0.03456628646850586
1717857510775129300,6.36612939453125,9.821015209960937,0.31214404144287106,0.050427872467041016
1717857510785171500,6.37617138671875,9.829394915771484,0.30137013397216794,0.04025251541137695
1717857510795212500,6.386212646484375,9.824456874847412,0.28909985046386716,0.03920505218505859
1717857510805254400,6.39625439453125,9.82535470046997,0.29837738189697266,0.031573534393310544
1717857510815295500,6.40629541015625,9.840019185638427,0.2823661582946777,0.044292730712890624
1717857510825336600,6.416336669921875,9.823259774017334,0.2976291938781738,0.047285482788085934
1717857510835378400,6.42637841796875,9.823559049224853,0.29837738189697266,0.04219780426025391
1717857510845419500,6.43641943359375,9.824007962036132,0.29553426742553707,0.0474351203918457
1717857510855460400,6.44646044921875,9.823110136413574,0.28969840087890625,0.049230771636962885
1717857510865502500,6.45650244140625,9.823559049224853,0.29269115295410153,0.037409400939941405
1717857510875543300,6.466543212890625,9.837624983978271,0.2959831802368164,0.034715924072265626
1717857510885585000,6.4765849609375,9.82535470046997,0.2959831802368164,0.030526071166992186
1717857510895626800,6.486626708984375,9.828646727752686,0.28655601119995117,0.048183308410644526
1717857510905667800,6.496667724609375,9.836727158355712,0.3051110740661621,0.04159925384521484
1717857510915708700,6.506708740234375,9.830292741394043,0.30570962448120115,0.047285482788085934
1717857510925750800,6.516750732421875,9.837624983978271,0.29343934097290036,0.030974983978271482
1717857510935791600,6.52679150390625,9.830442378997802,0.29448680419921874,0.03965396499633789
1717857510945834000,6.536833984375,9.819668471527098,0.2980781066894531,0.054468087768554684
1717857510955874800,6.546874755859375,9.822511585998535,0.29867665710449215,0.03890577697753906
1717857510965916000,6.556916015625,9.83238766784668,0.29718028106689454,0.03277063522338867
1717857510975957800,6.566957763671875,9.829993466186522,0.2932897033691406,0.044592005920410155
1717857510985998800,6.576998779296875,9.827599264526366,0.2985270195007324,0.03037643356323242
1717857510996040000,6.5870400390625,9.830741654205323,0.2953846298217773,0.043245267486572266
1717857511006081800,6.597081787109375,9.82565397567749,0.30256723480224607,0.04534019393920898
1717857511016123000,6.607122802734375,9.814730430603026,0.29388825378417965,0.04444236831665039
1717857511026163700,6.617163818359375,9.822810861206055,0.29613281784057616,0.040102877807617184
1717857511036205800,6.627205810546875,9.830741654205323,0.2959831802368164,0.04339490509033203
1717857511046246700,6.63724658203125,9.833285493469237,0.29239187774658204,0.027682956695556638
1717857511056287700,6.647287841796875,9.827898539733885,0.3010708587646484,0.044592005920410155
1717857511066329600,6.65732958984375,9.83178911743164,0.29074586410522457,0.04159925384521484
1717857511076370700,6.66737060546875,9.83822353439331,0.2941875289916992,0.033518823242187495
1717857511086412800,6.677412841796875,9.830891291809081,0.2937386161804199,0.03950432739257812
1717857511096454000,6.687453857421875,9.830292741394043,0.2885013000488281,0.040402153015136714
1717857511106495000,6.697494873046875,9.817573545074461,0.30570962448120115,0.032172084808349606
1717857511116536800,6.707536865234375,9.824756150054931,0.30271687240600587,0.049530046844482416
1717857511126578000,6.717577880859375,9.83223803024292,0.2919429649353027,0.04683656997680664
1717857511136618800,6.72761865234375,9.824157599639893,0.2868552864074707,0.04085106582641601
1717857511146660900,6.737660888671875,9.824456874847412,0.28999767608642574,0.046238019561767575
1717857511156701700,6.74770166015625,9.836727158355712,0.2985270195007324,0.048183308410644526
1717857511166742800,6.75774267578125,9.82460651245117,0.29837738189697266,0.03621230010986328
1717857511176784600,6.76778466796875,9.830741654205323,0.2937386161804199,0.0330699104309082
1717857511186825700,6.77782568359375,9.809343476867674,0.2962824554443359,0.0522235237121582
1717857511196866800,6.78786669921875,9.825953250885009,0.2964320930480957,0.03561374969482422
1717857511206909000,6.797908935546875,9.827000714111328,0.30406361083984373,0.03202244720458984
1717857511216950000,6.807949951171875,9.828646727752686,0.2995744827270508,0.04249707946777344
1717857511226991900,6.817991943359375,9.826402163696288,0.2947860794067383,0.03980360260009765
1717857511237033000,6.828032958984375,9.818022457885741,0.29718028106689454,0.035763387298583985
1717857511247073800,6.83807373046875,9.815328981018066,0.29269115295410153,0.03486556167602539
1717857511257116000,6.848115966796875,9.827599264526366,0.30137013397216794,0.021697452545166016
1717857511267156700,6.85815673828125,9.823708686828613,0.3001730331420898,0.04234744186401367
1717857511277197800,6.86819775390625,9.8319387550354,0.3022679595947265,0.0430956298828125
1717857511287239700,6.87823974609375,9.829394915771484,0.30151977157592774,0.03666121292114258
1717857511297280800,6.88828076171875,9.811737678527832,0.29927520751953124,0.043544542694091797
1717857511307321900,6.89832177734375,9.816675719451904,0.2883516624450683,0.041000703430175776
1717857511317363700,6.90836376953125,9.815328981018066,0.30181904678344723,0.047285482788085934
1717857511327404800,6.91840478515625,9.82580361328125,0.2882020248413086,0.04534019393920898
1717857511337445600,6.928445556640625,9.827150351715087,0.3003226707458496,0.048931496429443354
1717857511347488000,6.938488037109375,9.828347452545165,0.2979284690856933,0.04563946914672851
1717857511357528800,6.94852880859375,9.836577520751952,0.29089550170898437,0.04055179061889648
1717857511367571000,6.958571044921875,9.835230782318115,0.29089550170898437,0.03396773605346679
1717857511377611800,6.96861181640625,9.852888019561767,0.2979284690856933,0.030526071166992186
1717857511387652900,6.97865283203125,9.835380419921874,0.29493571701049803,0.04578910675048828
1717857511397694700,6.98869482421875,9.787496386718749,0.29284079055786133,0.03800795135498047
1717857511407735800,6.99873583984375,9.78166052017212,0.2823661582946777,0.040701428222656245
1717857511417777000,7.00877685546875,9.76175871887207,0.2856581855773926,0.03441664886474609
1717857511427818800,7.01881884765625,9.809792389678954,0.30196868438720703,0.041000703430175776
1717857511437859800,7.02885986328125,9.904363355255127,0.3021183219909668,0.052073886108398436
1717857511447900700,7.038900634765625,9.909151758575439,0.29239187774658204,0.0326209976196289
1717857511457942800,7.04894287109375,9.87683003616333,0.29343934097290036,0.02858078231811523
1717857511467983600,7.058983642578125,9.833584768676758,0.29927520751953124,0.038756139373779294
1717857511478024700,7.069024658203125,9.779565593719482,0.29718028106689454,0.04384381790161133
1717857511488066800,7.07906689453125,9.759065242004393,0.30840310134887694,0.035464112091064454
1717857511498108000,7.08910791015625,9.803507610321045,0.3081038261413574,0.040701428222656245
1717857511508149000,7.09914892578125,9.834931507110594,0.2964320930480957,0.027084406280517576
1717857511518190800,7.10919091796875,9.839121360015868,0.2941875289916992,0.044292730712890624
1717857511528232000,7.11923193359375,9.834781869506836,0.29403789138793945,0.04234744186401367
1717857511538273800,7.129273681640625,9.823259774017334,0.28580782318115233,0.03666121292114258
1717857511548315000,7.13931494140625,9.827449626922608,0.2959831802368164,0.033518823242187495
1717857511558355700,7.149355712890625,9.8572275100708,0.2962824554443359,0.04713584518432617
1717857511568397800,7.159397705078125,9.828197814941406,0.2832639839172363,0.041748891448974604
1717857511578438700,7.169438720703125,9.804106160736083,0.304512523651123,0.03441664886474609
1717857511588479700,7.179479736328125,9.81338369216919,0.3016694091796875,0.0378583137512207
1717857511598521600,7.189521484375,9.829095640563965,0.29403789138793945,0.04129997863769531
1717857511608562700,7.199562744140625,9.831040929412842,0.299424845123291,0.036361937713623046
1717857511618603800,7.209603759765625,9.835679695129395,0.30316578521728516,0.0378583137512207
1717857511628646000,7.21964599609375,9.820117384338378,0.2952349922180176,0.03755903854370117
1717857511638687000,7.22968701171875,9.810839852905273,0.29448680419921874,0.031573534393310544
1717857511648727800,7.239727783203125,9.83223803024292,0.3000233955383301,0.04878185882568359
1717857511658770000,7.24977001953125,9.833584768676758,0.3021183219909668,0.04474164352416992
1717857511668810800,7.259810791015625,9.82535470046997,0.2883516624450683,0.04159925384521484
1717857511678852900,7.269852783203125,9.819219558715819,0.30092122116088865,0.0430956298828125
1717857511688893700,7.279893798828125,9.823110136413574,0.2998737579345703,0.04219780426025391
1717857511698934800,7.289934814453125,9.82520506286621,0.2998737579345703,0.04189852905273437
1717857511708976600,7.2999765625,9.822661223602294,0.29074586410522457,0.058657940673828124
1717857511719017700,7.310017822265625,9.832986218261718,0.28520927276611324,0.053121349334716794
1717857511729058800,7.320058837890625,9.831489842224121,0.3028665100097656,0.047285482788085934
1717857511739101000,7.330100830078125,9.828646727752686,0.3001730331420898,0.02633621826171875
1717857511749142000,7.34014208984375,9.825953250885009,0.28446108474731446,0.0326209976196289
1717857511759182800,7.350182861328125,9.835829332733153,0.2911947769165039,0.03561374969482422
1717857511769225000,7.360224853515625,9.829394915771484,0.2905962265014648,0.03666121292114258
1717857511779265800,7.370265869140625,9.829694190979003,0.2911947769165039,0.03486556167602539
1717857511789307000,7.380306884765625,9.823708686828613,0.296881005859375,0.040701428222656245
1717857511799348700,7.3903486328125,9.836727158355712,0.29568390502929687,0.03845686416625976
1717857511809389800,7.400389892578125,9.8189202835083,0.2991255699157715,0.03426701126098632
1717857511819431700,7.410431640625,9.823858324432372,0.2919429649353027,0.04249707946777344
1717857511829472800,7.42047265625,9.83822353439331,0.2962824554443359,0.04833294601440429
1717857511839513900,7.430513916015625,9.830292741394043,0.303913973236084,0.04938040924072265
1717857511849555700,7.4405556640625,9.833734406280517,0.3094505645751953,0.03681085052490234
1717857511859596800,7.4505966796875,9.828946002960205,0.2980781066894531,0.03995324020385742
1717857511869637600,7.4606376953125,9.836427883148193,0.3003226707458496,0.036361937713623046
1717857511879680000,7.470679931640625,9.830292741394043,0.2867056488037109,0.036361937713623046
1717857511889720300,7.48072021484375,9.837026433563231,0.2931400657653808,0.04713584518432617
1717857511899761400,7.490761474609375,9.821464122772216,0.2925415153503418,0.04234744186401367
1717857511909803500,7.500803466796875,9.82565397567749,0.29718028106689454,0.03995324020385742
1717857511919844600,7.5108447265625,9.833285493469237,0.30780455093383785,0.042945992279052735
1717857511929885700,7.5208857421875,9.82505542526245,0.29433716659545894,0.04668693237304687
1717857511939927600,7.530927490234375,9.820715934753418,0.2840121719360351,0.049230771636962885
1717857511949968600,7.54096875,9.812186591339112,0.30047230834960936,0.04878185882568359
1717857511960009500,7.551009521484375,9.835829332733153,0.29224224014282224,0.047584757995605464
1717857511970051600,7.561051513671875,9.827449626922608,0.2947860794067383,0.037409400939941405
1717857511980092400,7.571092529296875,9.823559049224853,0.28969840087890625,0.03501519927978516
1717857511990133500,7.581133544921875,9.824307237243652,0.28954876327514645,0.04399345550537109
1717857512000175400,7.59117529296875,9.829843828582764,0.3016694091796875,0.044592005920410155
1717857512010216400,7.601216552734375,9.825953250885009,0.28745383682250975,0.04234744186401367
1717857512020258300,7.61125830078125,9.835829332733153,0.2925415153503418,0.04444236831665039
1717857512030299400,7.62129931640625,9.826551801300049,0.2967313682556152,0.04504091873168945
1717857512040340500,7.631340576171875,9.829544553375243,0.30271687240600587,0.034715924072265626
1717857512050382600,7.641382568359375,9.823559049224853,0.28954876327514645,0.03277063522338867
1717857512060423700,7.651423583984375,9.827449626922608,0.29553426742553707,0.044592005920410155
1717857512070464500,7.661464599609375,9.830442378997802,0.2985270195007324,0.03681085052490234
1717857512080506600,7.671506591796875,9.828646727752686,0.29867665710449215,0.042048166656494135
1717857512090547500,7.68154736328125,9.82535470046997,0.289848038482666,0.03336918563842773
1717857512100588500,7.691588623046875,9.830891291809081,0.28745383682250975,0.03411737365722656
1717857512110630400,7.70163037109375,9.827748902130127,0.29239187774658204,0.0526724365234375
1717857512120671500,7.71167138671875,9.842263749694824,0.2964320930480957,0.047285482788085934
1717857512130712600,7.721712646484375,9.831489842224121,0.3028665100097656,0.034715924072265626
1717857512140754400,7.73175439453125,9.834781869506836,0.309001651763916,0.03202244720458984
1717857512150795500,7.74179541015625,9.820117384338378,0.30795418853759765,0.03441664886474609
1717857512160837400,7.75183740234375,9.827599264526366,0.303913973236084,0.0383072265625
1717857512170878700,7.761878662109375,9.827299989318847,0.29493571701049803,0.03411737365722656
1717857512180919600,7.77191943359375,9.828497090148925,0.2991255699157715,0.03725976333618164
1717857512190961700,7.781961669921875,9.814131880187988,0.29403789138793945,0.02124853973388672
1717857512201002500,7.79200244140625,9.829694190979003,0.2871545616149902,0.04129997863769531
1717857512211043600,7.802043701171875,9.82580361328125,0.3093009269714355,0.04159925384521484
1717857512221085400,7.81208544921875,9.81996774673462,0.3098994773864746,0.035464112091064454
1717857512231126500,7.82212646484375,9.834033681488037,0.2877531120300293,0.040701428222656245
1717857512241167600,7.832167724609375,9.842114112091064,0.29179332733154295,0.0469862075805664
1717857512251209500,7.84220947265625,9.830442378997802,0.29284079055786133,0.03127425918579101
1717857512261250600,7.85225048828125,9.837026433563231,0.28909985046386716,0.022744915771484374
1717857512271291400,7.86229150390625,9.843760125732421,0.3037643356323242,0.03411737365722656
1717857512281333500,7.87233349609375,9.830891291809081,0.2889502128601074,0.033518823242187495
1717857512291374300,7.882374267578125,9.829993466186522,0.2950853546142578,0.0474351203918457
1717857512301415400,7.89241552734375,9.827150351715087,0.3097498397827148,0.04025251541137695
1717857512311457500,7.90245751953125,9.828197814941406,0.3037643356323242,0.044592005920410155
1717857512321498600,7.91249853515625,9.829993466186522,0.30181904678344723,0.052073886108398436
1717857512331540500,7.92254052734375,9.821015209960937,0.3003226707458496,0.04339490509033203
1717857512341581600,7.93258154296875,9.827449626922608,0.30092122116088865,0.033219548034667964
1717857512351622700,7.94262255859375,9.829245278167724,0.297479556274414,0.04144961624145507
1717857512361664500,7.95266455078125,9.826551801300049,0.296881005859375,0.04848258361816406
1717857512371705600,7.96270556640625,9.81847137069702,0.29972412033081053,0.04369418029785156
1717857512381746400,7.972746337890625,9.828048177337646,0.2941875289916992,0.05027823486328125
1717857512391788500,7.98278857421875,9.8311905670166,0.2937386161804199,0.044292730712890624
1717857512401829400,7.992829345703125,9.829245278167724,0.2813186950683594,0.044292730712890624
1717857512411870500,8.002870361328124,9.826252526092528,0.29433716659545894,0.03920505218505859
1717857512421912300,8.012912353515626,9.836427883148193,0.29388825378417965,0.033219548034667964
1717857512431953400,8.022953369140625,9.826252526092528,0.2964320930480957,0.03516483688354492
1717857512441994500,8.032994384765624,9.828197814941406,0.29134441452026366,0.043544542694091797
1717857512452036600,8.04303662109375,9.830442378997802,0.3051110740661621,0.04144961624145507
1717857512462077700,8.05307763671875,9.8319387550354,0.2995744827270508,0.04249707946777344
1717857512472118500,8.063118408203126,9.824756150054931,0.2859574607849121,0.0378583137512207
1717857512482160600,8.07316064453125,9.81233622894287,0.2893991256713867,0.05327098693847656
1717857512492201500,8.083201416015624,9.829544553375243,0.29867665710449215,0.03666121292114258
1717857512502243600,8.09324365234375,9.821763397979735,0.3021183219909668,0.04534019393920898
1717857512512284400,8.103284423828125,9.815179343414306,0.29074586410522457,0.030825346374511717
1717857512522325500,8.113325439453124,9.828197814941406,0.2841618095397949,0.04085106582641601
1717857512532367400,8.123367431640625,9.833435131072997,0.28999767608642574,0.03800795135498047
1717857512542408400,8.133408447265625,9.829544553375243,0.29658173065185545,0.033518823242187495
1717857512552449500,8.143449462890626,9.834781869506836,0.29658173065185545,0.039055414581298825
1717857512562491400,8.153491455078125,9.828197814941406,0.29134441452026366,0.041748891448974604
1717857512572532500,8.163532470703124,9.835829332733153,0.29358897857666016,0.04803367080688476
1717857512582573300,8.1735732421875,9.820117384338378,0.3076549133300781,0.029478607940673827
1717857512592615700,8.18361572265625,9.829394915771484,0.2920926025390625,0.042945992279052735
1717857512602656500,8.193656494140624,9.83238766784668,0.2929904281616211,0.04144961624145507
1717857512612697600,8.203697509765625,9.817124632263184,0.2991255699157715,0.04369418029785156
1717857512622739500,8.213739501953125,9.820117384338378,0.30705636291503907,0.03860650177001953
1717857512632780500,8.223780517578126,9.823858324432372,0.2958335426330566,0.043544542694091797
1717857512642821600,8.233821533203125,9.818022457885741,0.2995744827270508,0.040402153015136714
1717857512652863500,8.243863525390625,9.827000714111328,0.28954876327514645,0.0474351203918457
1717857512662904600,8.253904541015626,9.829095640563965,0.3003226707458496,0.032920272827148434
1717857512672945400,8.2639453125,9.833734406280517,0.297479556274414,0.047884033203124995
1717857512682987500,8.273987548828124,9.815179343414306,0.3012204963684082,0.03755903854370117
1717857512693028400,8.2840283203125,9.821763397979735,0.3101987525939941,0.039354689788818356
1717857512703070700,8.29407080078125,9.82535470046997,0.2995744827270508,0.03007715835571289
1717857512713111600,8.304111572265626,9.827748902130127,0.29613281784057616,0.03127425918579101
1717857512723152600,8.314152587890625,9.839420635223387,0.29927520751953124,0.031872809600830075
1717857512733194500,8.324194580078125,9.831489842224121,0.29269115295410153,0.02528875503540039
1717857512743235600,8.334235595703126,9.817573545074461,0.2919429649353027,0.05117606048583984
1717857512753276700,8.344276611328125,9.827150351715087,0.29867665710449215,0.04159925384521484
1717857512763318500,8.354318603515624,9.837176071166992,0.2964320930480957,0.049230771636962885
1717857512773359600,8.364359619140625,9.827599264526366,0.29224224014282224,0.04668693237304687
1717857512783400400,8.374400390625,9.827299989318847,0.30361469802856444,0.03755903854370117
1717857512793442600,8.384442626953126,9.815628256225585,0.29179332733154295,0.030226795959472655
1717857512803483400,8.3944833984375,9.8319387550354,0.2950853546142578,0.040402153015136714
1717857512813524500,8.4045244140625,9.826252526092528,0.2985270195007324,0.035763387298583985
1717857512823566300,8.41456640625,9.829843828582764,0.29433716659545894,0.030526071166992186
1717857512833607400,8.424607421875,9.813982242584228,0.29837738189697266,0.026186580657958983
1717857512843648500,8.4346484375,9.821314485168456,0.29224224014282224,0.04339490509033203
1717857512853690600,8.444690673828125,9.829394915771484,0.2941875289916992,0.03815758895874023
1717857512863731700,8.454731689453125,9.827299989318847,0.2929904281616211,0.03037643356323242
1717857512873772500,8.4647724609375,9.817723182678222,0.303913973236084,0.029478607940673827
1717857512883814700,8.474814697265625,9.834332956695556,0.30151977157592774,0.038756139373779294
1717857512893855500,8.48485546875,9.838672447204589,0.2950853546142578,0.027234043884277342
1717857512903896600,8.494896484375,9.846303964996338,0.2962824554443359,0.03755903854370117
1717857512913938400,8.5049384765625,9.840318460845946,0.3021183219909668,0.039055414581298825
1717857512923979500,8.5149794921875,9.821763397979735,0.2947860794067383,0.035763387298583985
1717857512934021400,8.525021484375,9.81951883392334,0.2929904281616211,0.03486556167602539
1717857512944062500,8.5350625,9.810390940093994,0.30271687240600587,0.05117606048583984
1717857512954103600,8.545103515625,9.80051485824585,0.29927520751953124,0.038756139373779294
1717857512964145700,8.555145751953125,9.785401460266113,0.29703064346313474,0.03366846084594726
1717857512974186800,8.565186767578124,9.847052153015136,0.30346506042480464,0.04115034103393554
1717857512984227600,8.5752275390625,9.888352131652832,0.2952349922180176,0.03591302490234375
1717857512994269700,8.585269775390625,9.83163947982788,0.2958335426330566,0.03815758895874023
1717857513004310500,8.595310546875,9.819818109130859,0.3067570877075195,0.03561374969482422
1717857513014351600,8.6053515625,9.849895267486572,0.297479556274414,0.04713584518432617
1717857513024393500,8.6153935546875,9.812036953735351,0.2876034744262695,0.03815758895874023
1717857513034434600,8.6254345703125,9.79393080368042,0.29403789138793945,0.036361937713623046
1717857513044475600,8.6354755859375,9.809193839263916,0.3146878807067871,0.05102642288208008
1717857513054517500,8.645517578125,9.830741654205323,0.2980781066894531,0.04384381790161133
1717857513064558600,8.65555859375,9.838672447204589,0.29224224014282224,0.040701428222656245
1717857513074599400,8.665599365234375,9.832836580657958,0.2941875289916992,0.050128597259521485
1717857513084641500,8.6756416015625,9.8319387550354,0.2989759323120117,0.028730419921875
1717857513094682400,8.685682373046875,9.821913035583496,0.3101987525939941,0.04025251541137695
1717857513104723500,8.695723388671874,9.829993466186522,0.30466216125488277,0.04279635467529297
1717857513114765600,8.705765625,9.809942027282714,0.30481179885864257,0.03800795135498047
1717857513124806700,8.715806640625,9.800963771057129,0.29343934097290036,0.03666121292114258
1717857513134848500,8.7258486328125,9.823409411621093,0.2932897033691406,0.049530046844482416
1717857513144889600,8.7358896484375,9.827299989318847,0.29403789138793945,0.033818098449707026
1717857513154930700,8.7459306640625,9.815777893829345,0.30196868438720703,0.0383072265625
1717857513164972500,8.75597265625,9.816825357055663,0.29703064346313474,0.04504091873168945
1717857513175013600,8.766013671875,9.822511585998535,0.2932897033691406,0.037110125732421874
1717857513185054500,8.776054443359374,9.830143103790283,0.28371289672851563,0.03277063522338867
1717857513195096600,8.7860966796875,9.840617736053467,0.3064578125,0.035763387298583985
1717857513205137400,8.796137451171875,9.820416659545899,0.297479556274414,0.050128597259521485
1717857513215178500,8.806178466796876,9.811588040924072,0.30256723480224607,0.0430956298828125
1717857513225220600,8.816220703125,9.82580361328125,0.309001651763916,0.04279635467529297
1717857513235261700,8.82626171875,9.839121360015868,0.2989759323120117,0.0330699104309082
1717857513245302800,8.836302734375,9.840318460845946,0.30092122116088865,0.047285482788085934
1717857513255344600,8.8463447265625,9.828646727752686,0.2919429649353027,0.037110125732421874
1717857513265385700,8.8563857421875,9.814131880187988,0.2953846298217773,0.04189852905273437
1717857513275426600,8.866426513671875,9.815777893829345,0.2910451393127441,0.04414309310913086
1717857513285468700,8.87646875,9.83178911743164,0.29718028106689454,0.05027823486328125
1717857513295509500,8.886509521484374,9.839570272827148,0.28969840087890625,0.03202244720458984
1717857513305550600,8.896550537109375,9.822511585998535,0.30047230834960936,0.04055179061889648
1717857513315592400,8.906592529296875,9.827599264526366,0.29493571701049803,0.03980360260009765
1717857513325633500,8.916633544921876,9.815328981018066,0.29284079055786133,0.03995324020385742
1717857513335674600,8.926674560546875,9.829544553375243,0.2920926025390625,0.03980360260009765
1717857513345716500,8.936716552734374,9.83178911743164,0.2958335426330566,0.029927520751953124
1717857513355757600,8.946757568359375,9.822361948394775,0.2871545616149902,0.0330699104309082
1717857513365799700,8.956799560546875,9.820267021942138,0.2929904281616211,0.03172317199707031
1717857513375840800,8.9668408203125,9.824157599639893,0.3010708587646484,0.04219780426025391
1717857513385881600,8.976881591796875,9.82535470046997,0.3022679595947265,0.03696048812866211
1717857513395923700,8.986923828125,9.841665199279785,0.30615853729248044,0.03561374969482422
1717857513405964500,8.996964599609376,9.837624983978271,0.29777883148193357,0.04534019393920898
1717857513416005600,9.007005615234375,9.811288765716553,0.2876034744262695,0.05491700057983398
1717857513426047500,9.017047607421874,9.811438403320311,0.29703064346313474,0.04249707946777344
1717857513436088600,9.027088623046875,9.831040929412842,0.3006219459533691,0.03965396499633789
1717857513446129700,9.037129638671875,9.832686943054199,0.30526071166992186,0.054767362976074214
1717857513456171500,9.047171630859374,9.824756150054931,0.3006219459533691,0.04548983154296875
1717857513466212600,9.057212646484375,9.823110136413574,0.2953846298217773,0.056114101409912104
1717857513476253400,9.06725341796875,9.821164847564697,0.3033154228210449,0.042945992279052735
1717857513486295600,9.077295654296876,9.820566297149657,0.29224224014282224,0.040402153015136714
1717857513496336400,9.08733642578125,9.82550433807373,0.30316578521728516,0.042945992279052735
1717857513506377500,9.09737744140625,9.830292741394043,0.2937386161804199,0.06045359191894531
1717857513516419600,9.107419677734375,9.836577520751952,0.29269115295410153,0.031573534393310544
1717857513526460700,9.117460693359375,9.832986218261718,0.2991255699157715,0.044592005920410155
1717857513536501800,9.127501708984376,9.81338369216919,0.2941875289916992,0.03666121292114258
1717857513546543600,9.137543701171875,9.827898539733885,0.28580782318115233,0.03456628646850586
1717857513556584700,9.147584716796874,9.840917011260986,0.29343934097290036,0.039055414581298825
1717857513566625500,9.15762548828125,9.834332956695556,0.2989759323120117,0.04085106582641601
1717857513576667600,9.167667724609375,9.822661223602294,0.30196868438720703,0.031573534393310544
1717857513586708500,9.17770849609375,9.82535470046997,0.303913973236084,0.03441664886474609
1717857513596749600,9.18774951171875,9.8311905670166,0.2964320930480957,0.04144961624145507
1717857513606791400,9.19779150390625,9.836577520751952,0.29014731369018554,0.04548983154296875
1717857513616832500,9.20783251953125,9.834332956695556,0.2905962265014648,0.04129997863769531
1717857513626874600,9.21787451171875,9.833135855865478,0.2958335426330566,0.05027823486328125
1717857513636915700,9.227915771484374,9.830292741394043,0.2838625343322754,0.037409400939941405
1717857513646956800,9.237956787109376,9.827898539733885,0.2916436897277832,0.033518823242187495
1717857513656998700,9.24799853515625,9.816825357055663,0.29613281784057616,0.03561374969482422
1717857513667039700,9.258039794921874,9.822960498809813,0.29568390502929687,0.04129997863769531
1717857513677080600,9.26808056640625,9.821164847564697,0.2910451393127441,0.05117606048583984
1717857513687122700,9.278122802734375,9.826252526092528,0.30181904678344723,0.04399345550537109
1717857513697163500,9.28816357421875,9.82520506286621,0.3000233955383301,0.044891281127929686
1717857513707204600,9.29820458984375,9.820117384338378,0.2902969512939453,0.04668693237304687
1717857513717246500,9.30824658203125,9.839270997619629,0.3003226707458496,0.050427872467041016
1717857513727287600,9.31828759765625,9.821164847564697,0.2931400657653808,0.037110125732421874
1717857513737328600,9.32832861328125,9.82610288848877,0.3054103492736816,0.028880057525634766
1717857513747370500,9.33837060546875,9.830891291809081,0.29568390502929687,0.04997895965576172
1717857513757411600,9.34841162109375,9.82550433807373,0.3049614364624023,0.04803367080688476
1717857513767452400,9.358452392578124,9.829993466186522,0.30705636291503907,0.032920272827148434
1717857513777494800,9.368494873046876,9.836128607940672,0.2867056488037109,0.03426701126098632
1717857513787535600,9.37853564453125,9.829245278167724,0.2914940521240234,0.04414309310913086
1717857513797576700,9.38857666015625,9.824157599639893,0.3042132484436035,0.03426701126098632
1717857513807618600,9.39861865234375,9.816974994659423,0.2967313682556152,0.04638765716552734
1717857513817659600,9.40865966796875,9.828048177337646,0.29284079055786133,0.033518823242187495
1717857513827700700,9.41870068359375,9.83238766784668,0.29867665710449215,0.027234043884277342
1717857513837742600,9.42874267578125,9.82460651245117,0.3010708587646484,0.03232172241210937
1717857513847783700,9.43878369140625,9.8189202835083,0.3058592620849609,0.04129997863769531
1717857513857824500,9.448824462890625,9.809942027282714,0.2885013000488281,0.049829322052001954
1717857513867866600,9.45886669921875,9.823858324432372,0.30181904678344723,0.03845686416625976
1717857513877907500,9.468907470703124,9.832836580657958,0.2932897033691406,0.0565630142211914
1717857513887949600,9.478949462890625,9.809493114471435,0.29284079055786133,0.042646717071533204
1717857513897990100,9.488990234375,9.82520506286621,0.29433716659545894,0.03007715835571289
1717857513908031200,9.49903125,9.81936919631958,0.296881005859375,0.042048166656494135
1717857513918073000,9.509072998046875,9.830741654205323,0.2979284690856933,0.03396773605346679
1717857513928114200,9.5191142578125,9.842263749694824,0.29703064346313474,0.03232172241210937
1717857513938155300,9.5291552734375,9.83882208480835,0.2893991256713867,0.035464112091064454
1717857513948197000,9.539197021484375,9.837026433563231,0.29658173065185545,0.03980360260009765
1717857513958238200,9.54923828125,9.8311905670166,0.2932897033691406,0.05297171173095703
1717857513968279000,9.559279052734375,9.824157599639893,0.3021183219909668,0.037708676147460936
1717857513978321200,9.569321044921875,9.79961703262329,0.2947860794067383,0.03247136001586914
1717857513988362000,9.579362060546876,9.804555073547363,0.2964320930480957,0.033518823242187495
1717857513998403000,9.589403076171875,9.823858324432372,0.28640637359619137,0.03591302490234375
1717857514008445200,9.599445068359374,9.823409411621093,0.3064578125,0.04534019393920898
1717857514018486300,9.609486328125,9.798719207000731,0.2932897033691406,0.04339490509033203
1717857514028527400,9.61952734375,9.848698166656494,0.3085527389526367,0.03621230010986328
1717857514038569200,9.6295693359375,9.887454306030273,0.2991255699157715,0.04967968444824218
1717857514048610300,9.6396103515625,9.858424610900878,0.30750527572631836,0.020949264526367185
1717857514058651100,9.649651123046874,9.846004689788817,0.3082534637451172,0.0378583137512207
1717857514068693200,9.659693359375,9.835679695129395,0.30570962448120115,0.03621230010986328
1717857514078734000,9.669734130859375,9.788693487548828,0.2883516624450683,0.03426701126098632
1717857514088775200,9.679775146484374,9.789292037963866,0.30690672531127927,0.03725976333618164
1717857514098817000,9.689817138671875,9.824456874847412,0.29658173065185545,0.03860650177001953
1717857514108858000,9.699858154296875,9.853187294769286,0.29343934097290036,0.03277063522338867
1717857514118899200,9.709899169921876,9.840917011260986,0.29882629470825195,0.044891281127929686
1717857514128941000,9.719941162109375,9.823409411621093,0.2856581855773926,0.04548983154296875
1717857514138982100,9.729982177734374,9.823858324432372,0.2784755805969238,0.03172317199707031
1717857514149023000,9.74002294921875,9.845705414581298,0.29358897857666016,0.04189852905273437
1717857514159065300,9.7500654296875,9.854833308410644,0.2920926025390625,0.03456628646850586
1717857514169106200,9.760106201171874,9.808146376037596,0.30047230834960936,0.033818098449707026
1717857514179147300,9.770147216796875,9.795277542114258,0.30092122116088865,0.026785131072998045
1717857514189189000,9.780189208984375,9.819668471527098,0.2855085479736328,0.04563946914672851
1717857514199230200,9.790230224609376,9.833435131072997,0.2877531120300293,0.03815758895874023
1717857514209272000,9.80027197265625,9.830891291809081,0.3016694091796875,0.054767362976074214
1717857514219313200,9.810313232421874,9.83238766784668,0.29568390502929687,0.03725976333618164
1717857514229354200,9.820354248046876,9.823110136413574,0.2916436897277832,0.040402153015136714
1717857514239396000,9.83039599609375,9.817274269866942,0.2959831802368164,0.03426701126098632
1717857514249437200,9.840437255859374,9.836278245544433,0.2813186950683594,0.03920505218505859
1717857514259478000,9.85047802734375,9.83163947982788,0.2916436897277832,0.056114101409912104
1717857514269520100,9.86052001953125,9.808744926452636,0.2964320930480957,0.050427872467041016
1717857514279561000,9.87056103515625,9.817872820281982,0.29358897857666016,0.04129997863769531
1717857514289602000,9.88060205078125,9.823409411621093,0.30181904678344723,0.0378583137512207
1717857514299644200,9.89064404296875,9.8319387550354,0.30301614761352536,0.042048166656494135
1717857514309685200,9.900685302734376,9.841216286468505,0.30301614761352536,0.035763387298583985
1717857514319726300,9.910726318359375,9.818321733093262,0.2979284690856933,0.028431144714355466
1717857514329768200,9.920768310546874,9.818321733093262,0.29089550170898437,0.021098902130126954
1717857514339809300,9.930809326171875,9.829394915771484,0.3049614364624023,0.03845686416625976
1717857514349850000,9.94085009765625,9.82505542526245,0.2929904281616211,0.049230771636962885
1717857514359892200,9.950892333984376,9.847800341033935,0.29403789138793945,0.03501519927978516
1717857514369933000,9.96093310546875,9.824307237243652,0.30137013397216794,0.037708676147460936
1717857514379974100,9.97097412109375,9.828497090148925,0.299424845123291,0.04249707946777344
1717857514390016000,9.98101611328125,9.83897172241211,0.29927520751953124,0.04025251541137695
1717857514400057000,9.99105712890625,9.829245278167724,0.30526071166992186,0.03336918563842773
1717857514410098200,10.00109814453125,9.822361948394775,0.30196868438720703,0.03531447448730469
1717857514420140300,10.011140380859375,9.817872820281982,0.2904465888977051,0.03845686416625976
1717857514430181400,10.021181396484375,9.824905787658691,0.2998737579345703,0.030825346374511717
1717857514440222200,10.03122216796875,9.839270997619629,0.2979284690856933,0.03277063522338867
1717857514450264300,10.041264404296875,9.842114112091064,0.29837738189697266,0.038756139373779294
1717857514460305200,10.05130517578125,9.83134020462036,0.29703064346313474,0.04848258361816406
1717857514470346200,10.06134619140625,9.834482594299315,0.3010708587646484,0.043245267486572266
1717857514480388000,10.07138818359375,9.821763397979735,0.30047230834960936,0.03591302490234375
1717857514490429200,10.08142919921875,9.822212310791015,0.2991255699157715,0.032172084808349606
1717857514500470300,10.09147021484375,9.825953250885009,0.2914940521240234,0.03965396499633789
1717857514510512000,10.10151220703125,9.83882208480835,0.3022679595947265,0.030226795959472655
1717857514520553200,10.11155322265625,9.83223803024292,0.3058592620849609,0.037409400939941405
1717857514530595000,10.121594970703125,9.824756150054931,0.3006219459533691,0.042048166656494135
1717857514540636200,10.13163623046875,9.835679695129395,0.30151977157592774,0.04339490509033203
1717857514550677000,10.141677001953125,9.824905787658691,0.2932897033691406,0.04085106582641601
1717857514560719400,10.15171923828125,9.829544553375243,0.2962824554443359,0.052073886108398436
1717857514570760200,10.16176025390625,9.817573545074461,0.2941875289916992,0.04384381790161133
1717857514580801300,10.17180126953125,9.8311905670166,0.29014731369018554,0.04803367080688476
1717857514590843100,10.181843017578124,9.834632231903075,0.29224224014282224,0.04129997863769531
1717857514600884200,10.19188427734375,9.826851076507568,0.30526071166992186,0.037409400939941405
1717857514610925300,10.20192529296875,9.820715934753418,0.2868552864074707,0.041748891448974604
1717857514620967200,10.21196728515625,9.815478618621826,0.2995744827270508,0.040701428222656245
1717857514631008300,10.22200830078125,9.819219558715819,0.3007715835571289,0.04339490509033203
1717857514641049000,10.232049072265625,9.833884043884277,0.3007715835571289,0.03516483688354492
1717857514651091200,10.24209130859375,9.829095640563965,0.29284079055786133,0.04608838195800781
1717857514661132000,10.252132080078125,9.828048177337646,0.28865093765258787,0.031124621582031248
1717857514671173000,10.262173095703124,9.829245278167724,0.2902969512939453,0.03845686416625976
1717857514681215000,10.272215087890626,9.830292741394043,0.2914940521240234,0.03860650177001953
1717857514691256000,10.282256103515625,9.824456874847412,0.30346506042480464,0.04189852905273437
1717857514701297200,10.292297119140626,9.821164847564697,0.29403789138793945,0.03681085052490234
1717857514711339300,10.30233935546875,9.826851076507568,0.3003226707458496,0.041000703430175776
1717857514721380400,10.31238037109375,9.824157599639893,0.29388825378417965,0.042646717071533204
1717857514731421200,10.322421142578126,9.827449626922608,0.2919429649353027,0.04548983154296875
1717857514741463300,10.33246337890625,9.831489842224121,0.30526071166992186,0.040102877807617184
1717857514751504100,10.342504150390624,9.82550433807373,0.2980781066894531,0.027832594299316404
1717857514761545200,10.352545166015625,9.828646727752686,0.30361469802856444,0.03441664886474609
1717857514771587000,10.362587158203125,9.81936919631958,0.2919429649353027,0.039354689788818356
1717857514781628200,10.372628173828126,9.819668471527098,0.30137013397216794,0.042945992279052735
1717857514791669200,10.382669189453125,9.82520506286621,0.2980781066894531,0.04085106582641601
1717857514801711000,10.392711181640625,9.824756150054931,0.3007715835571289,0.033818098449707026
1717857514811752200,10.402752197265626,9.83882208480835,0.3006219459533691,0.04189852905273437
1717857514821793000,10.41279296875,9.83134020462036,0.3021183219909668,0.04504091873168945
1717857514831835400,10.42283544921875,9.817124632263184,0.29134441452026366,0.03501519927978516
1717857514841876200,10.432876220703125,9.824456874847412,0.2976291938781738,0.04833294601440429
1717857514851917300,10.442917236328125,9.830592016601562,0.30196868438720703,0.05087678527832031
1717857514861959200,10.452959228515626,9.830143103790283,0.28640637359619137,0.0469862075805664
1717857514872000300,10.463000244140625,9.827748902130127,0.29777883148193357,0.0282815071105957
1717857514882041000,10.473041015625,9.820416659545899,0.2950853546142578,0.0474351203918457
1717857514892083700,10.483083740234376,9.832686943054199,0.3033154228210449,0.03980360260009765
1717857514902124500,10.49312451171875,9.821613760375977,0.2991255699157715,0.0378583137512207
1717857514912165600,10.50316552734375,9.820267021942138,0.3049614364624023,0.03815758895874023
1717857514922207500,10.51320751953125,9.808445651245117,0.30137013397216794,0.041000703430175776
1717857514932248600,10.52324853515625,9.823858324432372,0.2947860794067383,0.0526724365234375
1717857514942289700,10.53328955078125,9.836278245544433,0.30047230834960936,0.038756139373779294
1717857514952331800,10.543331787109375,9.824756150054931,0.303913973236084,0.04279635467529297
1717857514962372900,10.553372802734375,9.83134020462036,0.29448680419921874,0.043245267486572266
1717857514972413700,10.56341357421875,9.83208839263916,0.3028665100097656,0.05327098693847656
1717857514982455800,10.573455810546875,9.810839852905273,0.3091512893676758,0.04399345550537109
1717857514992496600,10.58349658203125,9.816675719451904,0.3003226707458496,0.03621230010986328
1717857515002538800,10.593538818359375,9.821913035583496,0.2958335426330566,0.04668693237304687
1717857515012579600,10.60357958984375,9.830143103790283,0.3028665100097656,0.04519055633544922
1717857515022620700,10.61362060546875,9.83822353439331,0.2929904281616211,0.03366846084594726
1717857515032662500,10.62366259765625,9.842114112091064,0.3042132484436035,0.039354689788818356
1717857515042703600,10.63370361328125,9.842114112091064,0.2995744827270508,0.040402153015136714
1717857515052744700,10.64374462890625,9.789441675567627,0.2958335426330566,0.03232172241210937
1717857515062786600,10.65378662109375,9.823110136413574,0.3028665100097656,0.0378583137512207
1717857515072828000,10.663827880859374,9.867253229522705,0.2871545616149902,0.060303954315185544
1717857515082868700,10.67386865234375,9.861567000579834,0.28999767608642574,0.028431144714355466
1717857515092910800,10.683910888671875,9.86351228942871,0.3112462158203125,0.03396773605346679
1717857515102951700,10.69395166015625,9.840019185638427,0.2989759323120117,0.040402153015136714
1717857515112992800,10.70399267578125,9.771485163116454,0.30466216125488277,0.029179332733154296
1717857515123034600,10.71403466796875,9.775226103210448,0.297479556274414,0.044891281127929686
1717857515133075700,10.72407568359375,9.847800341033935,0.3049614364624023,0.0469862075805664
1717857515143116800,10.73411669921875,9.860818812561035,0.28909985046386716,0.03681085052490234
1717857515153158700,10.74415869140625,9.829095640563965,0.30181904678344723,0.04234744186401367
1717857515163199700,10.75419970703125,9.809044201660155,0.30346506042480464,0.045938744354248044
1717857515173240600,10.764240478515624,9.818022457885741,0.30181904678344723,0.03501519927978516
1717857515183282700,10.77428271484375,9.840318460845946,0.2958335426330566,0.042945992279052735
1717857515193323500,10.784323486328125,9.84405940093994,0.29388825378417965,0.03845686416625976
1717857515203364600,10.794364501953124,9.792434427642823,0.30705636291503907,0.04534019393920898
1717857515213406700,10.80440673828125,9.78689783630371,0.29358897857666016,0.04863222122192382
1717857515223447800,10.81444775390625,9.8311905670166,0.2862567359924316,0.042945992279052735
1717857515233489000,10.824489013671876,9.839420635223387,0.29388825378417965,0.0330699104309082
1717857515243530800,10.83453076171875,9.820865572357176,0.29403789138793945,0.04384381790161133
1717857515253571800,10.84457177734375,9.834482594299315,0.30301614761352536,0.04878185882568359
1717857515263612700,10.85461279296875,9.816226806640625,0.3006219459533691,0.04534019393920898
1717857515273654800,10.86465478515625,9.82520506286621,0.3043628860473633,0.03965396499633789
1717857515283695600,10.874695556640624,9.83807389678955,0.29553426742553707,0.03007715835571289
1717857515293736700,10.88473681640625,9.830143103790283,0.29972412033081053,0.03591302490234375
1717857515303778600,10.894778564453125,9.833135855865478,0.29493571701049803,0.04144961624145507
1717857515313819600,10.904819580078126,9.829993466186522,0.3072060005187988,0.03755903854370117
1717857515323860700,10.91486083984375,9.830442378997802,0.31438860549926756,0.03815758895874023
1717857515333902600,10.924902587890625,9.821763397979735,0.30137013397216794,0.03591302490234375
1717857515343943700,10.934943603515626,9.816675719451904,0.30047230834960936,0.045938744354248044
1717857515353984500,10.944984619140625,9.810241302490233,0.2947860794067383,0.044292730712890624
1717857515364027000,10.95502685546875,9.824905787658691,0.29777883148193357,0.039354689788818356
1717857515374067700,10.965067626953125,9.839121360015868,0.29568390502929687,0.03890577697753906
1717857515384108800,10.97510888671875,9.82580361328125,0.3007715835571289,0.03651157531738281
1717857515394150700,10.985150634765626,9.824007962036132,0.29777883148193357,0.040402153015136714
1717857515404191700,10.995191650390625,9.810839852905273,0.29703064346313474,0.03845686416625976
1717857515414232800,11.00523291015625,9.837325708770752,0.2937386161804199,0.030974983978271482
1717857515424274700,11.015274658203126,9.83747534637451,0.2790741310119629,0.039055414581298825
1717857515434315800,11.025315673828125,9.827449626922608,0.30481179885864257,0.030526071166992186
1717857515444356600,11.035356689453126,9.827000714111328,0.2985270195007324,0.03501519927978516
1717857515454398700,11.045398681640625,9.820416659545899,0.28805238723754883,0.049829322052001954
1717857515464439600,11.055439453125,9.833884043884277,0.30705636291503907,0.028431144714355466
1717857515474480600,11.065480712890626,9.826551801300049,0.2973299186706543,0.029628245544433593
1717857515484522500,11.0755224609375,9.824307237243652,0.3060088996887207,0.03172317199707031
1717857515494563600,11.0855634765625,9.828497090148925,0.3051110740661621,0.036361937713623046
1717857515504604700,11.095604736328125,9.829993466186522,0.2976291938781738,0.03561374969482422
1717857515514646800,11.105646728515625,9.830891291809081,0.3012204963684082,0.05566518859863281
1717857515524688000,11.11568798828125,9.816376444244383,0.2953846298217773,0.04997895965576172
1717857515534728700,11.125728759765625,9.816526081848144,0.30137013397216794,0.039055414581298825
1717857515544770800,11.135770751953125,9.828497090148925,0.2976291938781738,0.03591302490234375
1717857515554811600,11.145811767578126,9.83837317199707,0.3087023765563965,0.03860650177001953
1717857515564852700,11.155852783203125,9.824905787658691,0.29703064346313474,0.047884033203124995
1717857515574894600,11.16589453125,9.813982242584228,0.30481179885864257,0.039354689788818356
1717857515584935700,11.175935791015625,9.813982242584228,0.29658173065185545,0.04129997863769531
1717857515594977500,11.1859775390625,9.8189202835083,0.28999767608642574,0.03501519927978516
1717857515605018600,11.1960185546875,9.82610288848877,0.2991255699157715,0.03621230010986328
1717857515615059700,11.206059814453125,9.83208839263916,0.3012204963684082,0.05117606048583984
1717857515625101800,11.216101806640625,9.830143103790283,0.29658173065185545,0.04219780426025391
1717857515635143000,11.226142822265626,9.818770645904541,0.29822774429321286,0.04249707946777344
1717857515645183700,11.236183837890625,9.82550433807373,0.2882020248413086,0.04668693237304687
1717857515655225900,11.246225830078124,9.839420635223387,0.30795418853759765,0.04129997863769531
1717857515665266700,11.2562666015625,9.814730430603026,0.30137013397216794,0.024690204620361325
1717857515675307800,11.266307861328125,9.830741654205323,0.2979284690856933,0.042945992279052735
1717857515685349600,11.276349609375,9.829993466186522,0.299424845123291,0.04025251541137695
1717857515695390700,11.286390625,9.82610288848877,0.2952349922180176,0.0383072265625
1717857515705431800,11.296431884765624,9.821015209960937,0.299424845123291,0.040402153015136714
1717857515715473700,11.3064736328125,9.830143103790283,0.28790274963378903,0.049829322052001954
1717857515725514800,11.3165146484375,9.827748902130127,0.28640637359619137,0.04833294601440429
1717857515735555600,11.3265556640625,9.819668471527098,0.3024175971984863,0.047884033203124995
1717857515745597700,11.33659765625,9.836727158355712,0.30570962448120115,0.047584757995605464
1717857515755638500,11.346638427734375,9.837176071166992,0.29613281784057616,0.038756139373779294
1717857515765679600,11.3566796875,9.823409411621093,0.30346506042480464,0.04563946914672851
1717857515775721700,11.3667216796875,9.810540577697754,0.3037643356323242,0.03666121292114258
1717857515785762800,11.3767626953125,9.834781869506836,0.29358897857666016,0.035464112091064454
1717857515795804000,11.386803955078125,9.834332956695556,0.30301614761352536,0.03441664886474609
1717857515805845800,11.396845703125,9.823409411621093,0.303913973236084,0.03815758895874023
1717857515815886800,11.406886962890624,9.816675719451904,0.2991255699157715,0.04474164352416992
1717857515825927700,11.416927734375,9.830143103790283,0.29358897857666016,0.031124621582031248
1717857515835969800,11.4269697265625,9.828796365356444,0.2911947769165039,0.03426701126098632
1717857515846010600,11.4370107421875,9.82460651245117,0.3094505645751953,0.047884033203124995
1717857515856051700,11.4470517578125,9.834931507110594,0.29882629470825195,0.04369418029785156
1717857515866093600,11.457093505859374,9.81278514175415,0.2932897033691406,0.03142389678955078
1717857515876134700,11.467134765625,9.813982242584228,0.30137013397216794,0.03755903854370117
1717857515886175700,11.47717578125,9.828646727752686,0.303913973236084,0.03516483688354492
1717857515896217600,11.487217529296874,9.837624983978271,0.2985270195007324,0.03980360260009765
1717857515906258700,11.4972587890625,9.827898539733885,0.29613281784057616,0.04683656997680664
1717857515916299500,11.507299560546874,9.82610288848877,0.3003226707458496,0.03666121292114258
1717857515926341600,11.517341552734376,9.828946002960205,0.3012204963684082,0.031872809600830075
1717857515936382500,11.527382568359375,9.82520506286621,0.2973299186706543,0.03965396499633789
1717857515946423600,11.537423583984374,9.830442378997802,0.3007715835571289,0.03621230010986328
1717857515956465400,11.54746533203125,9.828347452545165,0.3006219459533691,0.03651157531738281
1717857515966506500,11.557506591796875,9.829095640563965,0.2962824554443359,0.040701428222656245
1717857515976547600,11.567547607421876,9.829245278167724,0.28446108474731446,0.04129997863769531
1717857515986589400,11.57758935546875,9.824307237243652,0.29224224014282224,0.04668693237304687
1717857515996630500,11.587630615234374,9.829694190979003,0.2941875289916992,0.0326209976196289
1717857516006671400,11.59767138671875,9.817723182678222,0.3058592620849609,0.03621230010986328
1717857516016713700,11.607713623046875,9.836427883148193,0.29867665710449215,0.04189852905273437
1717857516026754600,11.617754638671874,9.845406139373779,0.29972412033081053,0.04578910675048828
1717857516036795600,11.627795654296875,9.826402163696288,0.296881005859375,0.04578910675048828
1717857516046837500,11.63783740234375,9.801711959075927,0.29972412033081053,0.05386953735351562
1717857516056878600,11.647878662109376,9.79408044128418,0.28042086944580075,0.050427872467041016
1717857516066919700,11.657919677734375,9.802609784698486,0.28909985046386716,0.031573534393310544
1717857516076961500,11.66796142578125,9.783007258605956,0.2919429649353027,0.044891281127929686
1717857516087002600,11.678002685546875,9.840468098449707,0.2959831802368164,0.061949967956542965
1717857516097043500,11.68804345703125,9.873538008880615,0.2911947769165039,0.04668693237304687
1717857516107085600,11.69808544921875,9.888052856445311,0.2964320930480957,0.05401917495727539
1717857516117126400,11.70812646484375,9.880720613861083,0.2976291938781738,0.03426701126098632
1717857516127167500,11.71816748046875,9.828497090148925,0.30361469802856444,0.02902969512939453
1717857516137209300,11.728209228515626,9.74859060974121,0.29224224014282224,0.024690204620361325
1717857516147250400,11.73825048828125,9.73617068862915,0.29703064346313474,0.03651157531738281
1717857516157291500,11.74829150390625,9.828497090148925,0.31169512863159177,0.04159925384521484
1717857516167333600,11.758333740234375,9.875184022521973,0.31229367904663086,0.03142389678955078
1717857516177374700,11.768374755859375,9.842862300109863,0.3007715835571289,0.031872809600830075
1717857516187415600,11.77841552734375,9.794529354095458,0.30151977157592774,0.0526724365234375
1717857516197457700,11.788457763671875,9.79408044128418,0.2967313682556152,0.043245267486572266
1717857516207498500,11.79849853515625,9.853037657165526,0.2937386161804199,0.041000703430175776
1717857516217539600,11.80853955078125,9.873986921691895,0.30570962448120115,0.03995324020385742
1717857516227581400,11.81858154296875,9.829694190979003,0.30151977157592774,0.03516483688354492
1717857516237622500,11.82862255859375,9.784204359436034,0.3107973030090332,0.036062662506103516
1717857516247663600,11.83866357421875,9.805901811981201,0.299424845123291,0.045938744354248044
1717857516257705500,11.84870556640625,9.85677859725952,0.29224224014282224,0.03815758895874023
1717857516267746600,11.85874658203125,9.846303964996338,0.29448680419921874,0.05132569808959961
1717857516277787400,11.868787353515625,9.814580792999267,0.2964320930480957,0.04997895965576172
1717857516287829800,11.878829833984375,9.810390940093994,0.2985270195007324,0.033219548034667964
1717857516297870600,11.88887060546875,9.819818109130859,0.28865093765258787,0.04189852905273437
1717857516307911700,11.89891162109375,9.847351428222655,0.29224224014282224,0.035464112091064454
1717857516317953500,11.90895361328125,9.842263749694824,0.3012204963684082,0.04504091873168945
1717857516327994600,11.91899462890625,9.82610288848877,0.29927520751953124,0.04444236831665039
1717857516338035500,11.929035400390624,9.822661223602294,0.3010708587646484,0.039354689788818356
1717857516348077600,11.93907763671875,9.814730430603026,0.30630817489624024,0.05416881256103515
1717857516358118700,11.94911865234375,9.824756150054931,0.2998737579345703,0.03651157531738281
1717857516368159500,11.959159423828124,9.830891291809081,0.30526071166992186,0.04668693237304687
1717857516378201600,11.96920166015625,9.83747534637451,0.2998737579345703,0.05386953735351562
1717857516388242400,11.979242431640625,9.824157599639893,0.2893991256713867,0.02124853973388672
1717857516398283500,11.989283447265626,9.82520506286621,0.2931400657653808,0.039055414581298825
1717857516408325400,11.999325439453125,9.821464122772216,0.3021183219909668,0.04279635467529297
1717857516418366500,12.009366455078125,9.829245278167724,0.29658173065185545,0.045938744354248044
1717857516428407600,12.019407470703126,9.829245278167724,0.3082534637451172,0.05282207412719726
1717857516438449700,12.02944970703125,9.822212310791015,0.3124433166503906,0.04025251541137695
1717857516448490500,12.039490478515624,9.83223803024292,0.2916436897277832,0.04384381790161133
1717857516458531600,12.049531494140625,9.81936919631958,0.3000233955383301,0.040102877807617184
1717857516468573700,12.05957373046875,9.826551801300049,0.29269115295410153,0.0330699104309082
1717857516478614500,12.069614501953126,9.822361948394775,0.2862567359924316,0.036361937713623046
1717857516488655600,12.079655517578125,9.82580361328125,0.29284079055786133,0.04504091873168945
1717857516498697500,12.089697509765625,9.834632231903075,0.303913973236084,0.035464112091064454
1717857516508738600,12.099738525390626,9.828796365356444,0.29703064346313474,0.0383072265625
1717857516518779400,12.109779296875,9.82580361328125,0.29837738189697266,0.038756139373779294
1717857516528821500,12.119821533203124,9.814431155395507,0.2931400657653808,0.041748891448974604
1717857516538862600,12.129862548828125,9.828646727752686,0.2985270195007324,0.040701428222656245
1717857516548903400,12.1399033203125,9.83777462158203,0.2998737579345703,0.04129997863769531
1717857516558945500,12.149945556640626,9.83897172241211,0.2859574607849121,0.03965396499633789
1717857516568986400,12.159986328125,9.841515561676024,0.29343934097290036,0.044292730712890624
1717857516579027500,12.17002734375,9.822810861206055,0.3001730331420898,0.03591302490234375
1717857516589069600,12.180069580078126,9.824905787658691,0.2973299186706543,0.0383072265625
1717857516599110700,12.190110595703125,9.828796365356444,0.2916436897277832,0.04129997863769531
1717857516609151500,12.2001513671875,9.820566297149657,0.29134441452026366,0.04848258361816406
1717857516619193600,12.210193603515625,9.823259774017334,0.3016694091796875,0.05940612869262695
1717857516629234400,12.220234375,9.829544553375243,0.2958335426330566,0.04159925384521484
1717857516639275500,12.230275634765626,9.83882208480835,0.2920926025390625,0.04234744186401367
1717857516649317400,12.2403173828125,9.826551801300049,0.2916436897277832,0.041748891448974604
1717857516659358500,12.2503583984375,9.82610288848877,0.2871545616149902,0.042048166656494135
1717857516669399600,12.260399658203125,9.817573545074461,0.3112462158203125,0.04608838195800781
1717857516679441400,12.27044140625,9.81936919631958,0.2916436897277832,0.03396773605346679
1717857516689482500,12.280482421875,9.82580361328125,0.29703064346313474,0.03845686416625976
1717857516699523300,12.2905234375,9.823708686828613,0.3001730331420898,0.0383072265625
1717857516709565700,12.300565673828125,9.815927531433104,0.28790274963378903,0.03800795135498047
1717857516719606500,12.3106064453125,9.822661223602294,0.29822774429321286,0.03755903854370117
1717857516729647600,12.320647705078125,9.83178911743164,0.3010708587646484,0.041748891448974604
1717857516739689500,12.330689453125,9.829993466186522,0.29493571701049803,0.03800795135498047
1717857516749730600,12.34073046875,9.822361948394775,0.2902969512939453,0.04339490509033203
1717857516759771600,12.350771728515625,9.818770645904541,0.2995744827270508,0.040701428222656245
1717857516769813500,12.3608134765625,9.829843828582764,0.29777883148193357,0.03725976333618164
1717857516779854600,12.3708544921875,9.834482594299315,0.29703064346313474,0.03591302490234375
1717857516789895400,12.3808955078125,9.829245278167724,0.2995744827270508,0.03666121292114258
1717857516799937500,12.3909375,9.8189202835083,0.28371289672851563,0.047884033203124995
1717857516809978400,12.400978271484375,9.822361948394775,0.29179332733154295,0.042945992279052735
1717857516820019500,12.41101953125,9.817573545074461,0.3055599868774414,0.04563946914672851
1717857516830061300,12.421061279296875,9.82460651245117,0.29777883148193357,0.028431144714355466
1717857516840102400,12.431102294921875,9.824456874847412,0.2910451393127441,0.03202244720458984
1717857516850143500,12.4411435546875,9.834931507110594,0.29448680419921874,0.03860650177001953
1717857516860185600,12.451185546875,9.82610288848877,0.28909985046386716,0.03725976333618164
1717857516870226700,12.461226806640624,9.824905787658691,0.29972412033081053,0.041000703430175776
1717857516880267500,12.471267578125,9.828796365356444,0.2932897033691406,0.03815758895874023
1717857516890309600,12.4813095703125,9.821015209960937,0.29613281784057616,0.03890577697753906
1717857516900351000,12.49135107421875,9.83223803024292,0.30780455093383785,0.05027823486328125
1717857516910392000,12.50139208984375,9.814431155395507,0.3043628860473633,0.04833294601440429
1717857516920434000,12.511433837890625,9.822511585998535,0.28805238723754883,0.03591302490234375
1717857516930475000,12.52147509765625,9.835679695129395,0.2953846298217773,0.04534019393920898
1717857516940516000,12.53151611328125,9.8442090385437,0.3054103492736816,0.04474164352416992
1717857516950558200,12.54155810546875,9.830741654205323,0.29179332733154295,0.043544542694091797
1717857516960599300,12.551599365234376,9.824756150054931,0.297479556274414,0.03860650177001953
1717857516970640100,12.56164013671875,9.818022457885741,0.29358897857666016,0.029927520751953124
1717857516980682200,12.57168212890625,9.817124632263184,0.299424845123291,0.03396773605346679
1717857516990723000,12.58172314453125,9.830592016601562,0.2813186950683594,0.04474164352416992
1717857517000764200,12.59176416015625,9.821613760375977,0.28999767608642574,0.049829322052001954
1717857517010806000,12.601805908203126,9.819668471527098,0.2877531120300293,0.04189852905273437
1717857517020847000,12.61184716796875,9.834781869506836,0.29284079055786133,0.04189852905273437
1717857517030888200,12.62188818359375,9.839420635223387,0.28580782318115233,0.03591302490234375
1717857517040930000,12.631929931640625,9.824307237243652,0.2995744827270508,0.039354689788818356
1717857517050971100,12.64197119140625,9.802909059906005,0.29703064346313474,0.04249707946777344
1717857517061012000,12.652011962890626,9.792284790039062,0.2850596351623535,0.05686228942871093
1717857517071054000,12.66205419921875,9.803956523132324,0.29388825378417965,0.04848258361816406
1717857517081095000,12.672094970703125,9.81293477935791,0.30047230834960936,0.03995324020385742
1717857517091136000,12.682135986328126,9.892691622161864,0.2925415153503418,0.048183308410644526
1717857517101178000,12.69217822265625,9.854833308410644,0.3022679595947265,0.03681085052490234
1717857517111219200,12.70221923828125,9.822212310791015,0.3001730331420898,0.027084406280517576
1717857517121260300,12.71226025390625,9.842862300109863,0.2958335426330566,0.03845686416625976
1717857517131302100,12.72230224609375,9.822212310791015,0.2911947769165039,0.03336918563842773
1717857517141343200,12.73234326171875,9.784353997039794,0.28924948806762696,0.04055179061889648
1717857517151384000,12.742384033203125,9.810241302490233,0.2914940521240234,0.04668693237304687
1717857517161426200,12.75242626953125,9.827748902130127,0.303913973236084,0.029628245544433593
1717857517171467000,12.762467041015626,9.835829332733153,0.3136404174804687,0.018255787658691406
1717857517181508000,12.772508056640625,9.842712662506102,0.3091512893676758,0.04144961624145507
1717857517191550000,12.782550048828124,9.82535470046997,0.297479556274414,0.039354689788818356
1717857517201591000,12.792591064453125,9.818172095489501,0.2937386161804199,0.03845686416625976
1717857517211632000,12.802632080078125,9.827150351715087,0.28311434631347654,0.04863222122192382
1717857517221674000,12.812674072265626,9.830592016601562,0.29269115295410153,0.03725976333618164
1717857517231715000,12.822715087890625,9.815478618621826,0.3010708587646484,0.037110125732421874
1717857517241756000,12.832755859375,9.821015209960937,0.29388825378417965,0.04683656997680664
1717857517251797000,12.842796875,9.820267021942138,0.2856581855773926,0.05237316131591797
1717857517261839000,12.852839111328125,9.833435131072997,0.29493571701049803,0.03202244720458984
1717857517271880200,12.862880126953126,9.839121360015868,0.3028665100097656,0.04129997863769531
1717857517281922000,12.872922119140625,9.827898539733885,0.3054103492736816,0.04055179061889648
1717857517291963100,12.882963134765625,9.827000714111328,0.29882629470825195,0.03067570877075195
1717857517302004200,12.893004150390626,9.808595288848876,0.2953846298217773,0.033818098449707026
1717857517312046000,12.903046142578125,9.833884043884277,0.2953846298217773,0.04144961624145507
1717857517322087200,12.913087158203124,9.827150351715087,0.2932897033691406,0.034715924072265626
1717857517332128000,12.9231279296875,9.836128607940672,0.3058592620849609,0.030825346374511717
