time,seconds_elapsed,z,y,x
1716735777752735700,0.13673583984375,0.19571495056152344,-0.543717622756958,-1.8781473636627197
1716735777762735600,0.146735595703125,0.19530391693115234,-0.5430976152420044,-1.876289963722229
1716735777772735700,0.15673583984375,0.19488143920898438,-0.5425449013710022,-1.8743559122085571
1716735777782735600,0.166735595703125,0.19446086883544922,-0.5419922471046448,-1.872423768043518
1716735777792735700,0.17673583984375,0.19403839111328125,-0.5413822531700134,-1.8705021142959595
1716735777802735600,0.186735595703125,0.19360065460205078,-0.5407424569129944,-1.868510365486145
1716735777812735700,0.19673583984375,0.19315624237060547,-0.5399688482284546,-1.8665270805358887
1716735777822735600,0.206735595703125,0.1927347183227539,-0.5393208265304565,-1.8646141290664673
1716735777832735700,0.21673583984375,0.19234371185302734,-0.5387847423553467,-1.862816572189331
1716735777842735600,0.226735595703125,0.19196510314941406,-0.5383066534996033,-1.8610645532608032
1716735777852735700,0.23673583984375,0.19159793853759766,-0.5377710461616516,-1.8593840599060059
1716735777862735600,0.246735595703125,0.1911792755126953,-0.5371860861778259,-1.8574576377868652
1716735777872735700,0.25673583984375,0.19078826904296875,-0.5365829467773438,-1.8556736707687378
1716735777882735600,0.266735595703125,0.19039440155029297,-0.5359853506088257,-1.8538681268692017
1716735777892735700,0.27673583984375,0.19000911712646484,-0.5354665517807007,-1.8520855903625488
1716735777902735600,0.286735595703125,0.18959617614746094,-0.5348857641220093,-1.8501781225204468
1716735777912735700,0.29673583984375,0.18917083740234375,-0.5342574715614319,-1.848223090171814
1716735777922735600,0.306735595703125,0.18877601623535156,-0.5338058471679688,-1.8463640213012695
1716735777932735700,0.31673583984375,0.1883707046508789,-0.5331534147262573,-1.8445117473602295
1716735777942735600,0.326735595703125,0.1879711151123047,-0.532560408115387,-1.8426659107208252
1716735777952735700,0.33673583984375,0.15079498291015625,-0.4789985418319702,-1.6605981588363647
1716735777962735600,0.346735595703125,0.12053108215332031,-0.4306712746620178,-1.4960812330245972
1716735777972735700,0.35673583984375,0.09589481353759766,-0.3869498372077942,-1.3475801944732666
1716735777982735600,0.366735595703125,0.07583332061767578,-0.3476756811141968,-1.2135275602340698
1716735777992735700,0.37673583984375,0.059510231018066406,-0.3122725784778595,-1.0927492380142212
1716735778002735600,0.386735595703125,0.04620170593261719,-0.2803119421005249,-0.9837900996208191
1716735778012735700,0.39673583984375,0.03535175323486328,-0.2513943314552307,-0.8855903148651123
1716735778022735600,0.406735595703125,0.026500701904296875,-0.2253432273864746,-0.7970650792121887
1716735778032735700,0.41673583984375,0.019286155700683594,-0.20198136568069458,-0.7173592448234558
1716735778042735600,0.426735595703125,0.01338958740234375,-0.18082104623317719,-0.6455200910568237
1716735778052735700,0.43673583984375,0.008575439453125,-0.16182535886764526,-0.580826997756958
1716735778062735600,0.446735595703125,0.004635810852050781,-0.14466120302677155,-0.5225244760513306
1716735778072735700,0.45673583984375,0.0014190673828125,-0.12926551699638367,-0.47013068199157715
1716735778082735600,0.466735595703125,-0.0012121200561523438,-0.11547397077083588,-0.423007071018219
1716735778092735700,0.47673583984375,-0.0033731460571289062,-0.10298790037631989,-0.38054168224334717
1716735778102735600,0.486735595703125,-0.005146980285644531,-0.09175243973731995,-0.3423084020614624
1716735778112735700,0.49673583984375,-0.006602287292480469,-0.08168625831604004,-0.30794596672058105
1716735778122735600,0.506735595703125,-0.007800102233886719,-0.08225897699594498,-0.27937209606170654
1716735778132735700,0.51673583984375,-0.011183738708496094,-0.07639066129922867,-0.24674169719219208
1716735778142735600,0.526735595703125,-0.012000083923339844,-0.06902685761451721,-0.22164978086948395
1716735778152735700,0.53673583984375,-0.012673377990722656,-0.06470772624015808,-0.19678889214992523
1716735778162735900,0.54673583984375,-0.013228416442871094,-0.05864078179001808,-0.17427417635917664
1716735778172735700,0.55673583984375,-0.011295318603515625,-0.05542484670877457,-0.15628114342689514
1716735778182736000,0.56673583984375,-0.011678695678710938,-0.052745215594768524,-0.13534796237945557
1716735778192735700,0.57673583984375,-0.011994361877441406,-0.05046754702925682,-0.11868786811828613
1716735778202735900,0.58673583984375,-0.012257575988769531,-0.04606328532099724,-0.10357530415058136
1716735778212735700,0.59673583984375,-0.012478828430175781,-0.04451565071940422,-0.09219999611377716
1716735778222736000,0.60673583984375,-0.015057563781738281,-0.04321936517953873,-0.0846094936132431
1716735778232735700,0.61673583984375,-0.017607688903808594,-0.034892234951257706,-0.07805012166500092
1716735778242735900,0.62673583984375,-0.017739295959472656,-0.03167649731040001,-0.070089191198349
1716735778252735700,0.63673583984375,-0.017851829528808594,-0.028684232383966446,-0.06773057579994202
1716735778262736000,0.64673583984375,-0.020343780517578125,-0.021234311163425446,-0.06604146957397461
1716735778272735700,0.65673583984375,-0.018032073974609375,-0.014085717499256134,-0.06009922921657562
1716735778282735900,0.66673583984375,-0.020499229431152344,-0.011979423463344574,-0.05945136770606041
1716735778292735700,0.67673583984375,-0.020562171936035156,-0.012749332934617996,-0.05676301196217537
1716735778302736000,0.68673583984375,-0.020616531372070312,-0.011321477591991425,-0.0568067841231823
1716735778312735700,0.69673583984375,-0.01827239990234375,-0.01236264780163765,-0.0499124601483345
1716735778322735900,0.70673583984375,-0.018316268920898438,-0.011173967272043228,-0.04569695144891739
1716735778332735700,0.71673583984375,-0.018355369567871094,-0.010116364806890488,-0.03939942643046379
1716735778342736000,0.72673583984375,-0.020784378051757812,-0.00921240821480751,-0.03342924639582634
1716735778352735700,0.73673583984375,-0.02081298828125,-0.005996149033308029,-0.02542823553085327
1716735778362735900,0.74673583984375,-0.01604938507080078,-0.007749587297439575,-0.022577136754989624
1716735778372735700,0.75673583984375,-0.018464088439941406,-0.009440358728170395,-0.01776791736483574
1716735778382736000,0.76673583984375,-0.01848316192626953,-0.011167921125888824,-0.013211846351623535
1716735778392735700,0.77673583984375,-0.016104698181152344,-0.010425370186567307,-0.009034737944602966
1716735778402735900,0.78673583984375,-0.01611804962158203,-0.009845040738582611,-0.009830571711063385
1716735778412735700,0.79673583984375,-0.018524169921875,-0.009148847311735153,-0.008519329130649567
1716735778422736000,0.80673583984375,-0.020928382873535156,-0.00860210508108139,-0.007516395300626755
1716735778432735700,0.81673583984375,-0.01854419708251953,-0.007905930280685425,-0.008780483156442642
1716735778442735900,0.82673583984375,-0.018550872802734375,-0.007391400635242462,-0.012800101190805435
1716735778452735700,0.83673583984375,-0.02095317840576172,-0.004395194351673126,-0.011910155415534973
1716735778462735600,0.846735595703125,-0.020961761474609375,-0.0038529634475708008,-0.013501491397619247
1716735778472735700,0.85673583984375,-0.020966529846191406,-0.00357905775308609,-0.015213459730148315
1716735778482735600,0.866735595703125,-0.02097320556640625,-0.003117799758911133,-0.01441245898604393
1716735778492735700,0.87673583984375,-0.02337360382080078,-0.005241971462965012,-0.015962734818458557
1716735778502735600,0.886735595703125,-0.025774002075195312,-0.0025415904819965363,-0.015046466141939163
1716735778512735700,0.89673583984375,-0.025781631469726562,0.0002273470163345337,-0.011610738933086395
1716735778522735600,0.906735595703125,-0.025787353515625,-0.0018840692937374115,-0.010709244757890701
1716735778532735700,0.91673583984375,-0.023398399353027344,-0.004012651741504669,-0.007490187883377075
1716735778542735600,0.926735595703125,-0.021009445190429688,-0.0038218460977077484,-0.006728779524564743
1716735778552735700,0.93673583984375,-0.021012306213378906,-0.0036952123045921326,-0.0014662742614746094
1716735778562735600,0.946735595703125,-0.021018028259277344,-0.00575777143239975,0.0039911940693855286
1716735778572735700,0.95673583984375,-0.018622398376464844,-0.0009970851242542267,0.008745528757572174
1716735778582735600,0.966735595703125,-0.021020889282226562,-0.002941533923149109,0.006652254611253738
1716735778592735700,0.97673583984375,-0.01862621307373047,-0.0005561038851737976,0.0042198821902275085
1716735778602735600,0.986735595703125,-0.018627166748046875,-0.002569887787103653,0.004033878445625305
1716735778612735700,0.99673583984375,-0.018627166748046875,-0.0025169216096401215,0.006396196782588959
1716735778622736000,1.00673583984375,-0.016233444213867188,-0.0024702176451683044,0.001637570559978485
1716735778632735700,1.01673583984375,-0.018627166748046875,-0.002602178603410721,-0.0008074156939983368
1716735778642735900,1.02673583984375,-0.018627166748046875,0.0021138377487659454,-0.007953520864248276
1716735778652735700,1.03673583984375,-0.01862812042236328,0.0024606510996818542,-0.0055367350578308105
1716735778662736000,1.04673583984375,-0.01862812042236328,0.002513643354177475,-0.005568705499172211
1716735778672735700,1.05673583984375,-0.01862812042236328,0.002505045384168625,-0.005606982856988907
1716735778682735900,1.06673583984375,-0.021022796630859375,0.002551637589931488,-0.0031827911734580994
1716735778692735700,1.07673583984375,-0.023416519165039062,0.00008715316653251648,-0.003227386623620987
1716735778702736000,1.08673583984375,-0.023416519165039062,-0.0023217126727104187,-0.00320405513048172
1716735778712735700,1.09673583984375,-0.02102184295654297,-0.0023197755217552185,0.0015035048127174377
1716735778722735900,1.10673583984375,-0.02102184295654297,-0.0023476295173168182,0.006257999688386917
1716735778732735700,1.11673583984375,-0.02102184295654297,-0.004737667739391327,0.008671499788761139
1716735778742736000,1.12673583984375,-0.01862812042236328,-0.0047587379813194275,0.011150848120450974
1716735778752735700,1.13673583984375,-0.023416519165039062,-0.004773687571287155,0.01117435097694397
1716735778762735900,1.14673583984375,-0.02102184295654297,-0.004481099545955658,0.013080593198537827
1716735778772735700,1.15673583984375,-0.04256725311279297,-0.001960333436727524,0.012569565325975418
1716735778782736000,1.16673583984375,-0.0353851318359375,0.002936534583568573,0.012605544179677963
1716735778792735700,1.17673583984375,-0.009042739868164062,0.0004780888557434082,0.011514421552419662
1716735778802735900,1.18673583984375,-0.023406028747558594,0.0006983205676078796,0.008668672293424606
1716735778812735700,1.19673583984375,-0.035376548767089844,0.0007863007485866547,0.005772296339273453
1716735778822736000,1.20673583984375,-0.030588150024414062,0.005634047091007233,0.005678556859493256
1716735778832735700,1.21673583984375,-0.02340412139892578,0.008019380271434784,-0.0015420988202095032
1716735778842735900,1.22673583984375,-0.025798797607421875,0.005720857530832291,-0.006351999938488007
1716735778852735700,1.23673583984375,-0.035376548767089844,0.008119210600852966,-0.006332710385322571
1716735778862736000,1.24673583984375,-0.030588150024414062,0.010560017079114914,-0.0086970254778862
1716735778872735700,1.25673583984375,-0.02340412139892578,0.010432146489620209,-0.008728470653295517
1716735778882735900,1.26673583984375,-0.02579975128173828,0.010417312383651733,-0.008705034852027893
1716735778892735700,1.27673583984375,-0.030588150024414062,0.005665455013513565,-0.01102718710899353
1716735778902736000,1.28673583984375,-0.02340412139892578,0.005244895815849304,-0.00835755467414856
1716735778912735700,1.29673583984375,-0.016221046447753906,0.004561025649309158,-0.005427587777376175
1716735778922735900,1.30673583984375,-0.021009445190429688,0.0016229599714279175,-0.00019513443112373352
1716735778932735700,1.31673583984375,-0.023403167724609375,-0.0011322014033794403,0.00016748160123825073
1716735778942736000,1.32673583984375,-0.021009445190429688,-0.0035410076379776,0.002584986388683319
1716735778952735700,1.33673583984375,-0.016221046447753906,-0.005943804979324341,0.0025467127561569214
1716735778962735600,1.346735595703125,-0.016221046447753906,-0.005890697240829468,0.0025146789848804474
1716735778972735700,1.35673583984375,-0.021009445190429688,-0.008299853652715683,0.002538178116083145
1716735778982735600,1.366735595703125,-0.018614768981933594,-0.006039746105670929,0.00017425045371055603
1716735778992735700,1.37673583984375,-0.016221046447753906,-0.006054576486349106,-0.0021965205669403076
1716735779002735600,1.386735595703125,-0.018617630004882812,-0.007744740694761276,-0.004588086158037186
1716735779012735700,1.39673583984375,-0.021012306213378906,-0.0053655169904232025,-0.006958693265914917
1716735779022735600,1.406735595703125,-0.023406982421875,-0.0004730112850666046,-0.009336024522781372
1716735779032735700,1.41673583984375,-0.021017074584960938,-0.00006370246410369873,-0.006551254540681839
1716735779042735600,1.426735595703125,-0.021017074584960938,-0.00009144097566604614,-0.006585225462913513
1716735779052735700,1.43673583984375,-0.023410797119140625,-0.000025603920221328735,-0.00895395502448082
1716735779062735600,1.446735595703125,-0.023413658142089844,-0.000011771917343139648,-0.008534930646419525
1716735779072735700,1.45673583984375,-0.016231536865234375,-0.0000205114483833313,-0.006178844720125198
1716735779082735600,1.466735595703125,-0.016231536865234375,0.00008377060294151306,-0.003767874091863632
1716735779092735700,1.47673583984375,-0.01862812042236328,0.00015737861394882202,-0.0032617785036563873
1716735779102735600,1.486735595703125,-0.021026611328125,0.0003271810710430145,-0.002596478909254074
1716735779112735700,1.49673583984375,-0.01623821258544922,0.0026320740580558777,-0.00024263933300971985
1716735779122735600,1.506735595703125,-0.01623821258544922,0.002627771347761154,-0.0002617761492729187
1716735779132735700,1.51673583984375,-0.01863384246826172,-0.0021724775433540344,0.0026177167892456055
1716735779142735600,1.526735595703125,-0.01863384246826172,-0.0021873079240322113,0.00503535196185112
1716735779152735700,1.53673583984375,-0.01624011993408203,0.0001980215311050415,0.00499739870429039
1716735779162735600,1.546735595703125,-0.018632888793945312,0.00007018819451332092,0.0049658603966236115
1716735779172735700,1.55673583984375,-0.021027565002441406,0.00006145238876342773,0.0025335513055324554
1716735779182735600,1.566735595703125,-0.021024703979492188,0.0001068413257598877,-0.00037335604429244995
1716735779192735700,1.57673583984375,-0.018630027770996094,0.002434946596622467,-0.0051870085299015045
1716735779202735600,1.586735595703125,-0.0162353515625,-0.00002942606806755066,-0.0052316635847091675
1716735779212735700,1.59673583984375,-0.021024703979492188,0.0024113729596138,-0.007595881819725037
1716735779222735600,1.606735595703125,-0.021024703979492188,0.004797171801328659,-0.007634341716766357
1716735779232735700,1.61673583984375,-0.021024703979492188,0.004843868315219879,-0.009998776018619537
1716735779242735600,1.626735595703125,-0.0186309814453125,0.009418357163667679,-0.0072147436439991
1716735779252735700,1.63673583984375,-0.021025657653808594,0.009132202714681625,-0.006788581609725952
1716735779262735600,1.646735595703125,-0.0186309814453125,0.006400726735591888,-0.008805453777313232
1716735779272735700,1.65673583984375,-0.01623821258544922,0.003953419625759125,-0.006379213184118271
1716735779282735400,1.6667353515625,-0.01623821258544922,0.0011348053812980652,-0.0011536739766597748
1716735779292318700,1.676318603515625,-0.021025657653808594,0.0035012736916542053,0.0012065619230270386
1716735779302318800,1.68631884765625,-0.021026611328125,0.000682581216096878,0.004038024693727493
1716735779312318700,1.696318603515625,-0.0186309814453125,0.0006121061742305756,0.0087820366024971
1716735779322318800,1.70631884765625,-0.0186309814453125,0.0005462653934955597,0.011150766164064407
1716735779332318700,1.716318603515625,-0.016236305236816406,-0.004431545734405518,0.011112838983535767
1716735779342318800,1.72631884765625,-0.016234397888183594,-0.0068961866199970245,0.008674293756484985
1716735779352318700,1.736318603515625,-0.016233444213867188,-0.009224072098731995,0.008076619356870651
1716735779362318800,1.74631884765625,-0.016231536865234375,-0.006694640964269638,0.005209676921367645
1716735779372318700,1.756318603515625,-0.018624305725097656,-0.006431926041841507,0.0023744702339172363
1716735779382318800,1.76631884765625,-0.01623058319091797,-0.003691740334033966,0.002035345882177353
1716735779392318700,1.776318603515625,-0.018624305725097656,-0.0037064366042613983,0.002058621495962143
1716735779402318800,1.78631884765625,-0.018624305725097656,-0.0057015977799892426,-0.0031009167432785034
1716735779412318700,1.796318603515625,-0.016231536865234375,-0.005234118551015854,-0.0033467337489128113
1716735779422318800,1.80631884765625,-0.018625259399414062,-0.00044127553701400757,-0.0033277571201324463
1716735779432318700,1.816318603515625,-0.018627166748046875,0.00007345899939537048,-0.005757249891757965
1716735779442318800,1.82631884765625,-0.018627166748046875,0.0024528801441192627,-0.00573384016752243
1716735779452318700,1.836318603515625,-0.018627166748046875,0.0024487189948558807,-0.005753140896558762
1716735779462318800,1.84631884765625,-0.02102184295654297,0.002378266304731369,-0.008191686123609543
1716735779472318700,1.856318603515625,-0.023415565490722656,0.0023017525672912598,-0.00578036904335022
1716735779482318800,1.86631884765625,-0.02102375030517578,0.0022563636302948,-0.0028734616935253143
1716735779492318700,1.876318603515625,-0.021022796630859375,0.0047097355127334595,-0.0029671117663383484
1716735779502318800,1.88631884765625,-0.01862812042236328,-0.0001489780843257904,-0.005405813455581665
1716735779512318700,1.896318603515625,-0.01862812042236328,0.002236533910036087,-0.0030497610569000244
1716735779522318800,1.90631884765625,-0.021022796630859375,0.002226002514362335,-0.0030071884393692017
1716735779532318700,1.916318603515625,-0.021022796630859375,-0.00006408616900444031,-0.0029903240501880646
1716735779542318800,1.92631884765625,-0.023416519165039062,0.002321738749742508,-0.0030287280678749084
1716735779552318700,1.936318603515625,-0.021024703979492188,0.004612978547811508,-0.00010882318019866943
1716735779562318800,1.94631884765625,-0.018630027770996094,0.0022613108158111572,-0.00009834393858909607
1716735779572318700,1.956318603515625,-0.0186309814453125,0.004645209759473801,0.002338297665119171
1716735779582319000,1.966319091796875,-0.0186309814453125,0.004768766462802887,-0.00004360079765319824
1716735779592319200,1.9763193359375,-0.018630027770996094,0.004288434982299805,-0.004643633961677551
1716735779602319000,1.986319091796875,-0.018629074096679688,0.003916826099157333,-0.006813723593950272
1716735779612319200,1.9963193359375,-0.01862812042236328,0.0010829977691173553,-0.006534013897180557
1716735779622319000,2.006319091796875,-0.023416519165039062,0.003050282597541809,-0.0038024932146072388
1716735779632319200,2.0163193359375,-0.023416519165039062,0.0030461102724075317,-0.006215993314981461
1716735779642319000,2.026319091796875,-0.021022796630859375,-0.0016995854675769806,-0.0014172196388244629
1716735779652319200,2.0363193359375,-0.021024703979492188,-0.001932583749294281,0.0013710632920265198
1716735779662319400,2.0463193359375,-0.021022796630859375,-0.004397362470626831,0.0013268887996673584
1716735779672319200,2.0563193359375,-0.021022796630859375,-0.0020752660930156708,0.0013630613684654236
1716735779682319400,2.0663193359375,-0.023416519165039062,-0.002138722687959671,0.0038316771388053894
1716735779692319200,2.0763193359375,-0.023416519165039062,-0.0020369403064250946,0.003748629242181778
1716735779702319000,2.086319091796875,-0.021022796630859375,-0.002045542001724243,0.006104554980993271
1716735779712319200,2.0963193359375,-0.023416519165039062,-0.004516102373600006,0.003727354109287262
1716735779722319000,2.106319091796875,-0.023416519165039062,-0.0020070895552635193,0.0037015490233898163
1716735779732319200,2.1163193359375,-0.02341747283935547,-0.004348181188106537,0.0012753121554851532
1716735779742319000,2.126319091796875,-0.02102184295654297,-0.0045377761125564575,0.001237582415342331
1716735779752319200,2.1363193359375,-0.021022796630859375,-0.006519969552755356,0.003318037837743759
1716735779762319000,2.146319091796875,-0.023416519165039062,-0.0061418525874614716,0.000637691468000412
1716735779772319200,2.1563193359375,-0.044966697692871094,-0.003199327737092972,0.0003938227891921997
1716735779782319000,2.166319091796875,-0.03538990020751953,-0.003143683075904846,0.0004616566002368927
1716735779792319200,2.1763193359375,0.00052642822265625,-0.005853530019521713,-0.002263646572828293
1716735779802319000,2.186319091796875,-0.013842582702636719,-0.005143247544765472,0.00007147341966629028
1716735779812319200,2.1963193359375,-0.037784576416015625,-0.0074840448796749115,-0.0021737851202487946
1716735779822319000,2.206319091796875,-0.03539085388183594,-0.007554218173027039,0.00017575174570083618
1716735779832319200,2.2163193359375,-0.018632888793945312,-0.00471540167927742,0.00009577721357345581
1716735779842319000,2.226319091796875,-0.018632888793945312,-0.0022124797105789185,-0.0022626742720603943
1716735779852319200,2.2363193359375,-0.030605316162109375,-0.0021082013845443726,-0.002245906740427017
1716735779862319000,2.246319091796875,-0.028211593627929688,-0.002042025327682495,0.00017356127500534058
1716735779872319200,2.2563193359375,-0.01863384246826172,0.00027582794427871704,-0.0022036246955394745
1716735779882319000,2.266319091796875,-0.02102947235107422,0.0003289356827735901,-0.002235669642686844
1716735779892319200,2.2763193359375,-0.030609130859375,-0.0015201643109321594,0.00043814629316329956
1716735779902319400,2.2863193359375,-0.033003807067871094,-0.001473069190979004,0.00046767666935920715
1716735779912319200,2.2963193359375,-0.023426055908203125,-0.0016685910522937775,-0.0019028037786483765
1716735779922319400,2.3063193359375,-0.023426055908203125,-0.004016220569610596,-0.0042670853435993195
1716735779932319200,2.3163193359375,-0.03300285339355469,-0.0039056502282619476,-0.001917857676744461
1716735779942319400,2.3263193359375,-0.030609130859375,-0.0015219859778881073,-0.0018752813339233398
1716735779952319200,2.3363193359375,-0.021033287048339844,0.0008573830127716064,0.0005423538386821747
1716735779962319000,2.346319091796875,-0.018637657165527344,-0.001658417284488678,0.0028433166444301605
1716735779972319200,2.3563193359375,-0.028214454650878906,-0.004135094583034515,0.0005277618765830994
1716735779982319000,2.366319091796875,-0.030609130859375,-0.004069216549396515,0.0005532838404178619
1716735779992319200,2.3763193359375,-0.021032333374023438,-0.0016898326575756073,0.0005766339600086212
1716735780002319000,2.386319091796875,-0.021035194396972656,-0.0011280551552772522,0.000570937991142273
1716735780012319200,2.3963193359375,-0.028219223022460938,0.0018488243222236633,0.002874404191970825
1716735780022319000,2.406319091796875,-0.030614852905273438,0.004366498440504074,0.002886839210987091
1716735780032319200,2.4163193359375,-0.023430824279785156,0.0019550658762454987,0.005204446613788605
1716735780042319000,2.426319091796875,-0.018642425537109375,-0.0005095861852169037,0.002765882760286331
1716735780052319200,2.4363193359375,-0.02342700958251953,-0.003015674650669098,0.004662677645683289
1716735780062319000,2.446319091796875,-0.023428916931152344,-0.0029113925993442535,0.004679445177316666
1716735780072319200,2.4563193359375,-0.021032333374023438,-0.0027832090854644775,0.0016936250030994415
1716735780082319000,2.466319091796875,-0.01863574981689453,0.002197675406932831,0.0012080967426300049
1716735780092319200,2.4763193359375,-0.025818824768066406,0.00463225319981575,-0.0012756437063217163
1716735780102319000,2.486319091796875,-0.0282135009765625,0.004759933799505234,-0.0036382973194122314
1716735780112319200,2.4963193359375,-0.021027565002441406,0.004166204482316971,-0.006079886108636856
1716735780122319000,2.506319091796875,-0.02102947235107422,0.0018807314336299896,-0.008438337594270706
1716735780132319200,2.5163193359375,-0.023423194885253906,0.0015158168971538544,-0.005700860172510147
1716735780142319000,2.526319091796875,-0.028211593627929688,0.0015626884996891022,-0.005671188235282898
1716735780152319200,2.5363193359375,-0.02581787109375,0.0016219168901443481,-0.0033706575632095337
1716735780162319000,2.546319091796875,-0.023423194885253906,0.006333637982606888,-0.008141707628965378
1716735780172319200,2.5563193359375,-0.025815963745117188,0.0038734227418899536,-0.005772881209850311
1716735780182319000,2.566319091796875,-0.030605316162109375,0.003926586359739304,-0.0034107454121112823
1716735780192319200,2.5763193359375,-0.02821063995361328,0.0015747882425785065,-0.003400113433599472
1716735780202319000,2.586319091796875,-0.025815963745117188,0.001515015959739685,-0.005881395190954208
1716735780212319200,2.5963193359375,-0.02821063995361328,0.003652907907962799,-0.005502302199602127
1716735780222319000,2.606319091796875,-0.028211593627929688,-0.001088760793209076,-0.005472477525472641
1716735780232319200,2.6163193359375,-0.025816917419433594,-0.0010975003242492676,-0.003116391599178314
1716735780242319000,2.626319091796875,-0.023424148559570312,-0.0013090930879116058,-0.002626650035381317
1716735780252319200,2.6363193359375,-0.02581787109375,-0.0013983100652694702,-0.0002727806568145752
1716735780262319000,2.646319091796875,-0.028211593627929688,-0.0013453736901283264,-0.00030472129583358765
1716735780272319200,2.6563193359375,-0.028214454650878906,-0.0013571158051490784,0.00018049776554107666
1716735780282319000,2.666319091796875,-0.02582073211669922,0.0010285452008247375,0.002536393702030182
1716735780292319200,2.6763193359375,-0.0282135009765625,0.0033505037426948547,0.0025727376341819763
1716735780302319000,2.686319091796875,-0.030607223510742188,0.003347966820001602,0.00007864832878112793
1716735780312319200,2.6963193359375,-0.0282135009765625,0.005795333534479141,-0.0023476220667362213
1716735780322319000,2.706319091796875,-0.028214454650878906,0.008293814957141876,0.0024575479328632355
1716735780332319200,2.7163193359375,-0.030609130859375,0.008221574127674103,0.0024938881397247314
1716735780342319000,2.726319091796875,-0.03060626983642578,0.007800284773111343,-0.0023808814585208893
1716735780352319200,2.7363193359375,-0.03060626983642578,0.005452875047922134,-0.007139489054679871
1716735780362319000,2.746319091796875,-0.030605316162109375,0.005087494850158691,-0.00458289310336113
1716735780372319200,2.7563193359375,-0.028211593627929688,0.005024019628763199,-0.002114180475473404
1716735780382319000,2.766319091796875,-0.03060436248779297,0.002100568264722824,-0.0018745847046375275
1716735780392319200,2.7763193359375,-0.028209686279296875,-0.00024675577878952026,0.0005492903292179108
1716735780402319000,2.786319091796875,-0.025815963745117188,0.002138979732990265,0.0005108565092086792
1716735780412319200,2.7963193359375,-0.02821063995361328,0.002141345292329788,-0.0017833635210990906
1716735780422319000,2.806319091796875,-0.028209686279296875,-0.0003232434391975403,0.0005664564669132233
1716735780432319200,2.8163193359375,-0.02820873260498047,-0.003144368529319763,-0.0016716904938220978
1716735780442319000,2.826319091796875,-0.02820873260498047,-0.0031529664993286133,-0.0017099641263484955
1716735780452319200,2.8363193359375,-0.030602455139160156,-0.0032058842480182648,-0.0016781166195869446
1716735780462319000,2.846319091796875,-0.030602455139160156,-0.0031633153557777405,-0.0016675777733325958
1716735780472319200,2.8563193359375,-0.030602455139160156,-0.003235556185245514,-0.0016312450170516968
1716735780482319000,2.866319091796875,-0.03299713134765625,-0.005582693964242935,-0.0016017705202102661
1716735780492319200,2.8763193359375,-0.028207778930664062,-0.0008645989000797272,-0.0016462765634059906
1716735780502319000,2.886319091796875,-0.028207778930664062,0.001582704484462738,-0.001678314059972763
1716735780512319200,2.8963193359375,-0.02820873260498047,0.004030149430036545,-0.006498914211988449
1716735780522319000,2.906319091796875,-0.02821063995361328,0.004061166197061539,-0.0036091506481170654
1716735780532319200,2.9163193359375,-0.030607223510742188,0.003968711942434311,-0.0031260251998901367
1716735780542319000,2.926319091796875,-0.030607223510742188,0.0015528388321399689,-0.003221597522497177
1716735780552319200,2.9363193359375,-0.028211593627929688,0.001544460654258728,-0.0008658096194267273
1716735780562319000,2.946319091796875,-0.028211593627929688,0.0014846883714199066,0.001441318541765213
1716735780572319200,2.9563193359375,-0.028211593627929688,-0.0008055269718170166,0.0014583468437194824
1716735780582319000,2.966319091796875,-0.028211593627929688,0.001516483724117279,0.003888852894306183
1716735780592319200,2.9763193359375,-0.028211593627929688,-0.0008924193680286407,0.003912132233381271
1716735780602319000,2.986319091796875,-0.028211593627929688,-0.0008393153548240662,0.0062742941081523895
1716735780612319200,2.9963193359375,-0.03060626983642578,0.0016016848385334015,0.003909889608621597
1716735780622319000,3.006319091796875,-0.03060626983642578,-0.0007950440049171448,0.0014158152043819427
1716735780632319200,3.0163193359375,-0.03299999237060547,-0.0008715912699699402,0.003827221691608429
1716735780642319000,3.026319091796875,-0.03060626983642578,-0.0008184872567653656,0.006189391016960144
1716735780652319200,3.0363193359375,-0.02820873260498047,-0.0009599030017852783,0.0033444836735725403
1716735780662319400,3.0463193359375,-0.03060150146484375,-0.00333390012383461,0.005291897803544998
1716735780672319200,3.0563193359375,-0.028206825256347656,-0.003304172307252884,0.007639188319444656
1716735780682319400,3.0663193359375,-0.028206825256347656,-0.0009758397936820984,0.0028252527117729187
1716735780692319200,3.0763193359375,-0.02820587158203125,-0.0009844452142715454,0.0027869828045368195
1716735780702319000,3.086319091796875,-0.028204917907714844,-0.0010547526180744171,-0.002045929431915283
1716735780712319200,3.0963193359375,-0.030600547790527344,0.0014480873942375183,-0.002010054886341095
1716735780722319000,3.106319091796875,-0.028204917907714844,0.0013777799904346466,-0.0044487714767456055
1716735780732319200,3.1163193359375,-0.025811195373535156,0.0013055317103862762,-0.002018231898546219
1716735780742319000,3.126319091796875,-0.04735851287841797,0.0013030879199504852,-0.004512287676334381
1716735780752319200,3.1363193359375,-0.013841629028320312,0.006313353776931763,-0.00663476437330246
1716735780762319000,3.146319091796875,-0.009051322937011719,0.0010315775871276855,-0.0017152614891529083
1716735780772319200,3.1563193359375,-0.013840675354003906,-0.001073591411113739,-0.0018606409430503845
1716735780782319000,3.166319091796875,-0.03060150146484375,-0.006009921431541443,0.0009487420320510864
1716735780792319200,3.1763193359375,-0.00426483154296875,-0.003630690276622772,0.0033665448427200317
1716735780802319000,3.186319091796875,-0.006659507751464844,-0.0036966390907764435,0.005735337734222412
1716735780812319200,3.1963193359375,-0.02341938018798828,0.0014719478785991669,0.007943663746118546
1716735780822319000,3.206319091796875,-0.025814056396484375,0.00390871986746788,0.005559995770454407
1716735780832319200,3.2163193359375,-0.021024703979492188,0.0014355294406414032,0.0006889365613460541
1716735780842319000,3.226319091796875,-0.016236305236816406,-0.0034676864743232727,0.0007147341966629028
1716735780852319200,3.2363193359375,-0.028206825256347656,-0.005883559584617615,0.0006191618740558624
1716735780862319000,3.246319091796875,-0.03299522399902344,-0.005836766213178635,0.003043167293071747
1716735780872319200,3.2563193359375,-0.023418426513671875,-0.0034575648605823517,0.0006725043058395386
1716735780882319000,3.266319091796875,-0.018629074096679688,-0.0035216398537158966,-0.0018279142677783966
1716735780892319200,3.2763193359375,-0.02820587158203125,-0.001261334866285324,-0.004192046821117401
1716735780902319000,3.286319091796875,-0.030599594116210938,-0.0012083612382411957,-0.009012322872877121
1716735780912319200,3.2963193359375,-0.02102375030517578,0.0011708326637744904,-0.006594575941562653
1716735780922319000,3.306319091796875,-0.016234397888183594,0.0011621564626693726,-0.006632722914218903
1716735780932319200,3.3163193359375,-0.025811195373535156,-0.0013596303761005402,-0.004270289093255997
1716735780942319000,3.326319091796875,-0.032993316650390625,-0.0037686675786972046,-0.004246853291988373
1716735780952319200,3.3363193359375,-0.025811195373535156,-0.003660086542367935,-0.004210952669382095
1716735780962319000,3.346319091796875,-0.01862812042236328,-0.0013360008597373962,-0.004255659878253937
1716735780972319200,3.3563193359375,-0.028204917907714844,0.0010435357689857483,0.0005560778081417084
1716735780982319000,3.366319091796875,-0.03538799285888672,-0.0012358538806438446,0.0005302764475345612
1716735780992319200,3.3763193359375,-0.030599594116210938,-0.0011870265007019043,0.0004790090024471283
1716735781002319000,3.386319091796875,-0.028204917907714844,-0.003585532307624817,0.002854079008102417
1716735781012319200,3.3963193359375,-0.032993316650390625,-0.001205991953611374,0.00048319995403289795
1716735781022319000,3.406319091796875,-0.032993316650390625,-0.0060091763734817505,-0.0018875934183597565
1716735781032319200,3.4163193359375,-0.030599594116210938,-0.005949828773736954,0.00041286274790763855
1716735781042319000,3.426319091796875,-0.028204917907714844,-0.0035706348717212677,0.00043640658259391785
1716735781052319200,3.4363193359375,-0.030599594116210938,-0.0034601204097270966,0.0003914646804332733
1716735781062319000,3.446319091796875,-0.03538799285888672,-0.0010126158595085144,-0.00203496590256691
1716735781072319200,3.4563193359375,-0.030599594116210938,-0.0034917928278446198,-0.004450343549251556
1716735781082319000,3.466319091796875,-0.030602455139160156,-0.003072477877140045,-0.0018889717757701874
1716735781092319200,3.4763193359375,-0.030605316162109375,-0.0050428323447704315,-0.004097014665603638
1716735781102319000,3.486319091796875,-0.03299999237060547,-0.0025446563959121704,-0.004079990088939667
1716735781112319200,3.4963193359375,-0.03299999237060547,-0.0023681335151195526,-0.004099555313587189
1716735781122319000,3.506319091796875,-0.030608177185058594,-0.002257131040096283,-0.003963705152273178
1716735781132319200,3.5163193359375,-0.0282135009765625,-0.004546910524368286,0.0008413121104240417
1716735781142319000,3.526319091796875,-0.03300285339355469,-0.006894245743751526,0.0008709803223609924
1716735781152319200,3.5363193359375,-0.030609130859375,-0.00924152135848999,0.0009006187319755554
1716735781162319000,3.546319091796875,-0.025821685791015625,-0.006749272346496582,0.00337330624461174
1716735781172319200,3.5563193359375,-0.028217315673828125,-0.006206933408975601,0.005766365677118301
1716735781182319000,3.566319091796875,-0.033005714416503906,-0.01100417971611023,0.008122514933347702
1716735781192319200,3.5763193359375,-0.033005714416503906,-0.008686691522598267,0.01053401455283165
1716735781202319000,3.586319091796875,-0.033005714416503906,-0.008708193898200989,0.008044134825468063
1716735781212319200,3.5963193359375,-0.035400390625,-0.005829736590385437,0.0029056593775749207
1716735781222319000,3.606319091796875,-0.037795066833496094,-0.002982940524816513,0.0002891235053539276
1716735781232319200,3.6163193359375,-0.035401344299316406,-0.002978641539812088,0.002702459692955017
1716735781242319000,3.626319091796875,-0.03300762176513672,-0.00013622641563415527,0.00006691738963127136
1716735781252319200,3.6363193359375,-0.03300762176513672,0.002684764564037323,-0.005058635026216507
1716735781262319000,3.646319091796875,-0.03540325164794922,0.002663753926753998,-0.00736771896481514
1716735781272319200,3.6563193359375,-0.033008575439453125,0.0002545453608036041,-0.007344193756580353
1716735781282319000,3.666319091796875,-0.03300762176513672,0.002591479569673538,-0.0049372389912605286
1716735781292319200,3.6763193359375,-0.03300762176513672,0.004958115518093109,-0.004971303045749664
1716735781302319000,3.686319091796875,-0.03540229797363281,0.00022286921739578247,-0.007397569715976715
1716735781312319200,3.6963193359375,-0.03540229797363281,-0.0021800994873046875,-0.005041547119617462
1716735781322319000,3.706319091796875,-0.03300762176513672,-0.002184540033340454,-0.0026663318276405334
1716735781332319200,3.7163193359375,-0.03300952911376953,-0.002098638564348221,-0.004677757620811462
1716735781342319000,3.726319091796875,-0.03540515899658203,-0.0019943565130233765,-0.004660986363887787
1716735781352319200,3.7363193359375,-0.03540515899658203,-0.0019413866102695465,-0.0022986717522144318
1716735781362319000,3.746319091796875,-0.03061676025390625,-0.0018944554030895233,0.0049135759472846985
1716735781372319200,3.7563193359375,-0.03301048278808594,-0.0019092932343482971,0.004937011748552322
1716735781382319000,3.766319091796875,-0.03540515899658203,0.0004145987331867218,0.004892505705356598
1716735781392319200,3.7763193359375,-0.03300952911376953,0.00028701871633529663,0.007254946976900101
1716735781402319000,3.786319091796875,-0.03061676025390625,0.00039579346776008606,0.0072906725108623505
1716735781412319200,3.7963193359375,-0.03300952911376953,-0.0019497349858283997,0.0048454441130161285
1716735781422319000,3.806319091796875,-0.03300952911376953,0.0003784485161304474,0.004820074886083603
1716735781432319200,3.8163193359375,-0.03061676025390625,0.002883363515138626,0.004774965345859528
1716735781442319000,3.826319091796875,-0.028222084045410156,0.002878926694393158,0.002361774444580078
1716735781452319200,3.8363193359375,-0.02822113037109375,0.0005142241716384888,-0.00007921084761619568
1716735781462319000,3.846319091796875,-0.03300952911376953,-0.001875758171081543,-0.002454150468111038
1716735781472319200,3.8563193359375,-0.030615806579589844,-0.0018797852098941803,-0.00007939338684082031
1716735781482319000,3.866319091796875,-0.030615806579589844,-0.001956325024366379,0.002332013100385666
1716735781492319200,3.8763193359375,-0.03061676025390625,-0.004309970885515213,0.002423509955406189
1716735781502319000,3.886319091796875,-0.028222084045410156,-0.0019242316484451294,0.00477929413318634
1716735781512319200,3.8963193359375,-0.02822113037109375,0.0004615075886249542,0.002346668392419815
1716735781522319000,3.906319091796875,-0.03061389923095703,0.0006158836185932159,0.0018696412444114685
1716735781532319200,3.9163193359375,-0.030614852905273438,-0.0016679689288139343,0.0042190030217170715
1716735781542319000,3.926319091796875,-0.033008575439453125,-0.0015531554818153381,0.004193201661109924
1716735781552319200,3.9363193359375,-0.03300762176513672,-0.0016234628856182098,0.006542891263961792
1716735781562319000,3.946319091796875,-0.03061389923095703,-0.004026208072900772,0.006504584103822708
1716735781572319200,3.9563193359375,-0.02821826934814453,-0.003733798861503601,0.006016727536916733
1716735781582319000,3.966319091796875,-0.028217315673828125,-0.006125926971435547,0.005935736000537872
1716735781592319200,3.9763193359375,-0.030612945556640625,-0.006021730601787567,0.0059526227414608
1716735781602319000,3.986319091796875,-0.03061389923095703,-0.003642503172159195,0.0011878013610839844
1716735781612319200,3.9963193359375,-0.02821826934814453,-0.0011951960623264313,0.001155763864517212
1716735781622319000,4.006319091796875,-0.02821826934814453,-0.0012039132416248322,0.0011175498366355896
1716735781632319200,4.0163193359375,-0.02821826934814453,0.0011180490255355835,-0.003634512424468994
1716735781642319000,4.026319091796875,-0.028217315673828125,0.0015530064702033997,-0.0065084099769592285
1716735781652319200,4.0363193359375,-0.028217315673828125,0.0014765188097953796,-0.00888543576002121
1716735781662319400,4.0463193359375,-0.025823593139648438,0.0014166012406349182,-0.006578166037797928
1716735781672319200,4.0563193359375,-0.025823593139648438,0.001582559198141098,-0.004161018878221512
1716735781682319400,4.0663193359375,-0.02582550048828125,-0.0008127912878990173,-0.003718409687280655
1716735781692319200,4.0763193359375,-0.033008575439453125,-0.0007660537958145142,-0.0036885887384414673
1716735781702319000,4.086319091796875,-0.033008575439453125,-0.000842459499835968,-0.006065741181373596
1716735781712319200,4.0963193359375,-0.009065628051757812,0.0016042962670326233,-0.006278548389673233
1716735781722319000,4.106319091796875,-0.009065628051757812,-0.0008536837995052338,-0.0038095787167549133
1716735781732319200,4.1163193359375,-0.021039962768554688,-0.0030998699367046356,-0.0008454620838165283
1716735781742319000,4.126319091796875,-0.028222084045410156,-0.0031659938395023346,-0.0008707717061042786
1716735781752319200,4.1363193359375,-0.018644332885742188,-0.0032363012433052063,0.001478932797908783
1716735781762319000,4.146319091796875,-0.018644332885742188,-0.0008505620062351227,0.008623119443655014
1716735781772319200,4.1563193359375,-0.03301048278808594,0.0015902258455753326,0.008653078228235245
1716735781782319000,4.166319091796875,-0.03300952911376953,0.0018875673413276672,0.005970790982246399
1716735781792319200,4.1763193359375,-0.02103710174560547,0.0018522851169109344,0.0030618607997894287
1716735781802319000,4.186319091796875,-0.021033287048339844,0.004110969603061676,0.00015548989176750183
1716735781812319200,4.1963193359375,-0.0330047607421875,0.0017146952450275421,-0.0021577179431915283
1716735781822319000,4.206319091796875,-0.03779315948486328,0.004155769944190979,-0.004522256553173065
1716735781832319200,4.2163193359375,-0.02821636199951172,0.004092186689376831,-0.006841875612735748
1716735781842319000,4.226319091796875,-0.02821636199951172,0.0013394318521022797,-0.0065604932606220245
1716735781852319200,4.2363193359375,-0.03539848327636719,0.0012077279388904572,-0.009005662053823471
1716735781862319000,4.246319091796875,-0.03779411315917969,-0.00131288543343544,-0.010888997465372086
1716735781872319200,4.2563193359375,-0.030612945556640625,0.0011283829808235168,-0.008465304970741272
1716735781882319000,4.266319091796875,-0.02582550048828125,0.0009783916175365448,-0.003180716186761856
1716735781892319200,4.2763193359375,-0.03540229797363281,0.0008444413542747498,-0.0007564127445220947
1716735781902319400,4.2863193359375,-0.0377960205078125,-0.0015096664428710938,-0.003240000456571579
1716735781912319200,4.2963193359375,-0.028219223022460938,-0.0063066743314266205,-0.0032782740890979767
1716735781922319000,4.306319091796875,-0.02342987060546875,-0.006308902055025101,0.0014100037515163422
1716735781932319200,4.3163193359375,-0.030612945556640625,-0.006323955953121185,0.003827907145023346
1716735781942319000,4.326319091796875,-0.03300666809082031,-0.0038895532488822937,0.0013442598283290863
1716735781952319200,4.3363193359375,-0.025823593139648438,0.0008900761604309082,0.0037002786993980408
1716735781962319000,4.346319091796875,-0.025824546813964844,0.0033947937190532684,0.001261141151189804
1716735781972319200,4.3563193359375,-0.028219223022460938,-0.0013911835849285126,0.0037552937865257263
1716735781982319000,4.366319091796875,-0.03300762176513672,-0.0013548433780670166,-0.00096086785197258
1716735781992319200,4.3763193359375,-0.02821826934814453,-0.0038150548934936523,-0.000986240804195404
1716735782002319000,4.386319091796875,-0.025824546813964844,-0.0039489492774009705,-0.0033503659069538116
1716735782012319200,4.3963193359375,-0.030614852905273438,0.0013605430722236633,-0.0032662898302078247
1716735782022319000,4.406319091796875,-0.03300952911376953,0.0012881606817245483,-0.0032298043370246887
1716735782032319200,4.4163193359375,-0.03061676025390625,0.0014604069292545319,-0.0032685957849025726
1716735782042319000,4.426319091796875,-0.025827407836914062,0.0013880282640457153,-0.0032321102917194366
1716735782052319200,4.4363193359375,-0.03061676025390625,0.0014435015618801117,-0.003164175897836685
1716735782062319000,4.446319091796875,-0.03301048278808594,-0.0010228827595710754,-0.0007336623966693878
1716735782072319200,4.4563193359375,-0.028222084045410156,-0.0033700689673423767,-0.0007041394710540771
1716735782082319000,4.466319091796875,-0.028222084045410156,-0.003378812223672867,-0.0007422678172588348
1716735782092319200,4.4763193359375,-0.028222084045410156,-0.003325819969177246,-0.0007742457091808319
1716735782102319000,4.486319091796875,-0.03301048278808594,-0.003340795636177063,0.00403774157166481
1716735782112319200,4.4963193359375,-0.028222084045410156,-0.0033618584275245667,0.006517089903354645
1716735782122319000,4.506319091796875,-0.028223037719726562,-0.0009208656847476959,0.006546873599290848
1716735782132319200,4.5163193359375,-0.03061676025390625,0.0014029890298843384,0.004108116030693054
1716735782142319000,4.526319091796875,-0.030615806579589844,0.0017358846962451935,0.003711763769388199
1716735782152319200,4.5363193359375,-0.028222084045410156,0.00178474560379982,0.0012663565576076508
1716735782162319000,4.546319091796875,-0.02582836151123047,0.0018187165260314941,0.0036328285932540894
1716735782172319200,4.5563193359375,-0.028222084045410156,0.0018230192363262177,0.00604616105556488
1716735782182319000,4.566319091796875,-0.028222084045410156,0.0018699467182159424,0.0012873969972133636
1716735782192319200,4.5763193359375,-0.028222084045410156,0.0017977096140384674,0.001323740929365158
1716735782202319000,4.586319091796875,-0.025827407836914062,0.0017211660742759705,0.0013409443199634552
1716735782212319200,4.5963193359375,-0.02822113037109375,-0.0007434599101543427,-0.001097705215215683
1716735782222319000,4.606319091796875,-0.03300952911376953,0.0016402043402194977,-0.003449331969022751
1716735782232319200,4.6163193359375,-0.030615806579589844,-0.0007689706981182098,-0.003425750881433487
1716735782242319000,4.626319091796875,-0.03301048278808594,-0.003178119659423828,-0.001008056104183197
1716735782252319200,4.6363193359375,-0.03301048278808594,-0.0007180459797382355,-0.0009825415909290314
1716735782262319000,4.646319091796875,-0.03301048278808594,0.0016611479222774506,0.003829389810562134
1716735782272319200,4.6563193359375,-0.03301048278808594,-0.000756576657295227,0.006208870559930801
1716735782282319000,4.666319091796875,-0.028222084045410156,-0.0031464770436286926,0.00862221047282219
1716735782292319200,4.6763193359375,-0.02822113037109375,-0.0056876204907894135,0.010989237576723099
1716735782302319000,4.686319091796875,-0.028219223022460938,-0.0029482245445251465,0.012682545930147171
1716735782312319200,4.6963193359375,-0.028217315673828125,-0.0004529394209384918,0.009843450039625168
1716735782322319000,4.706319091796875,-0.025823593139648438,0.001994367688894272,0.007417209446430206
1716735782332319200,4.7163193359375,-0.025821685791015625,-0.0003669150173664093,0.00463370606303215
1716735782342319000,4.726319091796875,-0.025818824768066406,-0.0005037374794483185,-0.0005864761769771576
1716735782352319200,4.7363193359375,-0.028212547302246094,-0.00046116486191749573,-0.0005759410560131073
1716735782362319000,4.746319091796875,-0.0282135009765625,-0.00035252422094345093,-0.0005400665104389191
1716735782372319200,4.7563193359375,-0.028212547302246094,-0.00036112964153289795,-0.0005783401429653168
1716735782382319000,4.766319091796875,-0.03060626983642578,-0.0003409385681152344,0.0013690665364265442
1716735782392319200,4.7763193359375,-0.03060626983642578,0.002042606472969055,-0.0009825080633163452
1716735782402319000,4.786319091796875,-0.02821063995361328,-0.0003662519156932831,-0.0009591542184352875
1716735782412319200,4.7963193359375,-0.02581501007080078,-0.0027638860046863556,-0.0014206990599632263
1716735782422319000,4.806319091796875,-0.023420333862304688,-0.00032289326190948486,-0.0013909116387367249
1716735782432319200,4.8163193359375,-0.023420333862304688,-0.0002699717879295349,-0.0014228634536266327
1716735782442319000,4.826319091796875,-0.023420333862304688,-0.0003550499677658081,-0.0014439597725868225
1716735782452319200,4.8363193359375,-0.02581501007080078,-0.002744954079389572,-0.003819029778242111
1716735782462319000,4.846319091796875,-0.028207778930664062,-0.00043575093150138855,-0.006234440952539444
1716735782472319200,4.8563193359375,-0.030602455139160156,-0.0005635544657707214,-0.008660122752189636
1716735782482319000,4.866319091796875,-0.028206825256347656,-0.0029662102460861206,-0.006304342299699783
1716735782492319200,4.8763193359375,-0.028206825256347656,-0.0029131099581718445,-0.003942176699638367
1716735782502319000,4.886319091796875,-0.028206825256347656,-0.005315855145454407,0.0008079260587692261
1716735782512319200,4.8963193359375,-0.028206825256347656,-0.00538824126124382,0.0008444152772426605
1716735782522319000,4.906319091796875,-0.028206825256347656,-0.002889879047870636,-0.0015329644083976746
1716735782532319200,4.9163193359375,-0.028207778930664062,-0.002849232405424118,-0.0014415867626667023
1716735782542319000,4.926319091796875,-0.030602455139160156,-0.002864070236682892,-0.0038123540580272675
1716735782552319200,4.9363193359375,-0.030602455139160156,-0.0029301717877388,-0.0038376078009605408
1716735782562319000,4.946319091796875,-0.030602455139160156,-0.005339536815881729,-0.0038139335811138153
1716735782572319200,4.9563193359375,-0.03299999237060547,-0.0025167912244796753,-0.00821620598435402
1716735782582319000,4.966319091796875,-0.033000946044921875,-0.0025272630155086517,-0.0057794563472270966
1716735782592319200,4.9763193359375,-0.03300285339355469,-0.002320360392332077,-0.005484174937009811
1716735782602319000,4.986319091796875,-0.03300285339355469,0.00005906447768211365,-0.0030665695667266846
1716735782612319200,4.9963193359375,-0.030610084533691406,0.000163346529006958,-0.00065559521317482
1716735782622319000,5.006319091796875,-0.028215408325195312,0.0026047416031360626,0.0017680376768112183
1716735782632319200,5.0163193359375,-0.028215408325195312,0.002613551914691925,-0.0005880668759346008
1716735782642319000,5.026319091796875,-0.025821685791015625,0.005098957568407059,-0.0006286166608333588
1716735782652319200,5.0363193359375,-0.023428916931152344,0.0024780891835689545,0.0022791139781475067
1716735782662319400,5.0463193359375,-0.02582263946533203,0.0024078376591205597,0.004628784954547882
1716735782672319200,5.0563193359375,-0.02582073211669922,0.0018779709935188293,0.002112343907356262
1716735782682319400,5.0663193359375,-0.02582073211669922,-0.0005310624837875366,0.0021357834339141846
1716735782692319200,5.0763193359375,-0.02582073211669922,0.0018545910716056824,-0.00029671937227249146
1716735782702319000,5.086319091796875,-0.028214454650878906,0.0017823539674282074,0.0021338239312171936
1716735782712319200,5.0963193359375,-0.025819778442382812,-0.0006266795098781586,-0.00023693591356277466
1716735782722319000,5.106319091796875,-0.011455535888671875,0.0018205009400844574,-0.005057323724031448
1716735782732319200,5.1163193359375,0.0053043365478515625,0.004374466836452484,-0.004972618073225021
1716735782742319000,5.126319091796875,0.0053043365478515625,0.0016784518957138062,-0.007278893142938614
1716735782752319200,5.1363193359375,-0.011455535888671875,0.0018374472856521606,-0.004980575293302536
1716735782762319000,5.146319091796875,-0.013849258422851562,0.0018224641680717468,-0.00735120102763176
1716735782772319200,5.1563193359375,-0.0018787384033203125,0.006606448441743851,-0.002581872045993805
1716735782782319000,5.166319091796875,-0.0066661834716796875,0.004141796380281448,-0.005020424723625183
1716735782792319200,5.1763193359375,-0.021032333374023438,0.003832213580608368,-0.0046090856194496155
1716735782802319000,5.186319091796875,-0.02342700958251953,0.003579951822757721,0.0005778670310974121
1716735782812319200,5.1963193359375,-0.013849258422851562,0.0007801912724971771,-0.0015644580125808716
1716735782822319000,5.206319091796875,-0.011455535888671875,0.0007034726440906525,0.0008470453321933746
1716735782832319200,5.2163193359375,-0.021033287048339844,0.0008118264377117157,0.005671612918376923
1716735782842319000,5.226319091796875,-0.025821685791015625,-0.0015292614698410034,0.00563957542181015
1716735782852319200,5.2363193359375,-0.01863861083984375,-0.0015442147850990295,0.003268871456384659
1716735782862319000,5.246319091796875,-0.01863861083984375,-0.003947161138057709,0.000836540013551712
1716735782872319200,5.2563193359375,-0.02342700958251953,-0.003900289535522461,0.0032604150474071503
1716735782882319000,5.266319091796875,-0.025821685791015625,-0.003915239125490189,0.0032839104533195496
1716735782892319200,5.2763193359375,-0.021033287048339844,-0.001468069851398468,0.0008578188717365265
1716735782902319000,5.286319091796875,-0.021033287048339844,-0.0014149658381938934,0.0008257739245891571
1716735782912319200,5.2963193359375,-0.028217315673828125,0.0011495798826217651,-0.001526329666376114
1716735782922319000,5.306319091796875,-0.03061199188232422,0.0011964552104473114,-0.0014966651797294617
1716735782932319200,5.3163193359375,-0.023428916931152344,0.0011813677847385406,0.0009211823344230652
1716735782942319000,5.326319091796875,-0.02103424072265625,0.0035538896918296814,-0.0015686079859733582
1716735782952319200,5.3363193359375,-0.02821636199951172,0.003606848418712616,0.0007936991751194
1716735782962319000,5.346319091796875,-0.03061199188232422,0.006109550595283508,0.003223918378353119
1716735782972319200,5.3563193359375,-0.028217315673828125,0.006033007055521011,0.0008469261229038239
1716735782982319000,5.366319091796875,-0.025823593139648438,0.003685828298330307,0.0008764453232288361
1716735782992319200,5.3763193359375,-0.028217315673828125,0.0013449303805828094,0.0008442215621471405
1716735783002319000,5.386319091796875,-0.02821826934814453,-0.0009405501186847687,0.000879969447851181
1716735783012319200,5.3963193359375,-0.023430824279785156,-0.0008978322148323059,0.0056787580251693726
1716735783022319000,5.406319091796875,-0.023426055908203125,0.0011016950011253357,0.0028708167374134064
1716735783032319200,5.4163193359375,-0.028214454650878906,0.0011504963040351868,0.0028196386992931366
1716735783042319000,5.426319091796875,-0.028214454650878906,0.0011400207877159119,0.00046797841787338257
1716735783052319200,5.4363193359375,-0.025821685791015625,0.0012439899146556854,-0.0019092224538326263
1716735783062319000,5.446319091796875,-0.025821685791015625,0.0012205541133880615,-0.004318259656429291
1716735783072319200,5.4563193359375,-0.028215408325195312,0.0012866221368312836,-0.004292923957109451
1716735783082319000,5.466319091796875,-0.030610084533691406,-0.001135319471359253,-0.006721097975969315
1716735783092319200,5.4763193359375,-0.028214454650878906,-0.0011439211666584015,-0.004365164786577225
1716735783102319000,5.486319091796875,-0.025821685791015625,-0.003491334617137909,-0.006729584187269211
1716735783112319200,5.4963193359375,-0.028215408325195312,-0.003438405692577362,-0.00915573537349701
1716735783122319000,5.506319091796875,-0.030612945556640625,-0.0009514801204204559,-0.006259705871343613
1716735783132319200,5.5163193359375,-0.028217315673828125,-0.0009601674973964691,-0.006297864019870758
1716735783142319000,5.526319091796875,-0.025826454162597656,-0.0009186491370201111,-0.00823909416794777
1716735783152319200,5.5363193359375,-0.028223037719726562,-0.0008196942508220673,-0.005404777824878693
1716735783162319000,5.546319091796875,-0.025832176208496094,-0.0007203780114650726,-0.0047837235033512115
1716735783172319200,5.5563193359375,-0.0234375,-0.0007906891405582428,-0.004828225821256638
1716735783182319000,5.566319091796875,-0.0234375,-0.000737752765417099,-0.004860173910856247
1716735783192319200,5.5763193359375,-0.025832176208496094,0.0016478970646858215,-0.004898477345705032
1716735783202319000,5.586319091796875,-0.02822589874267578,0.004095342010259628,-0.004930667579174042
1716735783212319200,5.5963193359375,-0.025834083557128906,0.0063016340136528015,-0.002031896263360977
1716735783222319000,5.606319091796875,-0.025834083557128906,0.006354793906211853,-0.0020639747381210327
1716735783232319200,5.6163193359375,-0.025834083557128906,0.006401225924491882,-0.0044281333684921265
1716735783242319000,5.626319091796875,-0.02344036102294922,0.0036737769842147827,-0.004031401127576828
1716735783252319200,5.6363193359375,-0.023439407348632812,0.0036077648401260376,-0.001662563532590866
1716735783262319000,5.646319091796875,-0.02104663848876953,0.0007829554378986359,-0.0011636912822723389
1716735783272319200,5.6563193359375,-0.02344036102294922,0.0031687431037425995,-0.0012021437287330627
1716735783282319000,5.666319091796875,-0.025835037231445312,0.0032771602272987366,-0.003560353070497513
1716735783292319200,5.6763193359375,-0.028229713439941406,0.005276810377836227,-0.0031701549887657166
1716735783302319000,5.686319091796875,-0.02344036102294922,0.007653858512639999,-0.0032467320561408997
1716735783312319200,5.6963193359375,-0.02344036102294922,0.0075833797454833984,-0.0008969306945800781
1716735783322319000,5.706319091796875,-0.023439407348632812,0.0046833716332912445,-0.0006423629820346832
1716735783332319200,5.7163193359375,-0.0234375,0.004084128886461258,-0.00044745951890945435
1716735783342319000,5.726319091796875,-0.0234375,0.004011891782283783,-0.002805318683385849
1716735783352319200,5.7363193359375,-0.0234375,0.0016706660389900208,-0.002837207168340683
1716735783362319000,5.746319091796875,-0.021042823791503906,0.0017109140753746033,-0.0029266849160194397
1716735783372319200,5.7563193359375,-0.021042823791503906,0.0016386769711971283,-0.0028903447091579437
1716735783382319000,5.766319091796875,-0.021043777465820312,0.0016368813812732697,-0.0004154480993747711
1716735783392319200,5.7763193359375,-0.021043777465820312,0.0016221031546592712,0.002002160996198654
1716735783402319000,5.786319091796875,-0.021042823791503906,-0.0008384063839912415,0.004371244460344315
1716735783412319200,5.7963193359375,-0.021042823791503906,-0.0007853023707866669,0.001945003867149353
1716735783422319000,5.806319091796875,-0.021039962768554688,-0.003796536475419998,0.0018826872110366821
1716735783432319200,5.8163193359375,-0.021039962768554688,-0.003749951720237732,0.0019126087427139282
1716735783442319000,5.826319091796875,-0.021040916442871094,-0.0013025924563407898,0.0018805339932441711
1716735783452319200,5.8363193359375,-0.021040916442871094,-0.0037116296589374542,-0.0004902258515357971
1716735783462319000,5.846319091796875,-0.021039962768554688,-0.0037838704884052277,0.001940317451953888
1716735783472319200,5.8563193359375,-0.023433685302734375,-0.0037924163043498993,0.004296217113733292
1716735783482319000,5.866319091796875,-0.025829315185546875,-0.0013575702905654907,0.0019933879375457764
1716735783492319200,5.8763193359375,-0.02582836151123047,0.0010282881557941437,-0.0004393942654132843
1716735783502319000,5.886319091796875,-0.023433685302734375,0.0010196082293987274,-0.0004775412380695343
1716735783512319200,5.8963193359375,-0.021039962768554688,-0.0013280175626277924,-0.0004476197063922882
1716735783522319000,5.906319091796875,-0.018645286560058594,-0.0061314888298511505,0.004364442080259323
1716735783532319200,5.9163193359375,-0.021039962768554688,-0.0038651414215564728,0.006727207452058792
1716735783542319000,5.926319091796875,-0.018645286560058594,-0.0038756728172302246,0.006769780069589615
1716735783552319200,5.9363193359375,-0.018645286560058594,-0.0038843490183353424,0.006731633096933365
1716735783562319000,5.946319091796875,-0.018645286560058594,-0.005837004631757736,0.003976739943027496
1716735783572319200,5.9563193359375,-0.018645286560058594,-0.0034575723111629486,0.004000142216682434
1716735783582319000,5.966319091796875,-0.018645286560058594,-0.0058729685842990875,0.0040854476392269135
1716735783592319200,5.9763193359375,-0.018646240234375,-0.005826093256473541,0.006509315222501755
1716735783602319000,5.986319091796875,-0.021040916442871094,-0.00815439224243164,0.004140537232160568
1716735783612319200,5.9963193359375,-0.021040916442871094,-0.005355220288038254,0.003707975149154663
1716735783622319000,6.006319091796875,-0.021040916442871094,-0.0025741420686244965,0.0010656826198101044
1716735783632319200,6.0163193359375,-0.021040916442871094,-0.00264015793800354,0.0010403208434581757
1716735783642319000,6.026319091796875,-0.0210418701171875,-0.004531066864728928,-0.0017082877457141876
1716735783652319200,6.0363193359375,-0.021040916442871094,-0.006885021924972534,-0.004191968590021133
1716735783662319000,6.046319091796875,-0.021040916442871094,-0.0044248066842556,-0.004166610538959503
1716735783672319200,6.0563193359375,-0.018650054931640625,-0.0037483349442481995,-0.004198130220174789
1716735783682319000,6.066319091796875,-0.018651962280273438,-0.0008941516280174255,0.0006675459444522858
1716735783692319200,6.0763193359375,-0.02104663848876953,-0.0008898526430130005,0.0006866790354251862
1716735783702319000,6.086319091796875,-0.04977703094482422,0.001419253647327423,0.0006655864417552948
1716735783712319200,6.0963193359375,-0.02344036102294922,0.0014239959418773651,-0.001709863543510437
1716735783722319000,6.106319091796875,0.01486968994140625,-0.0035673268139362335,-0.0019857585430145264
1716735783732319200,6.1163193359375,-0.00189208984375,-0.005801744759082794,0.0004930421710014343
1716735783742319000,6.126319091796875,-0.035411834716796875,-0.005686480551958084,0.000648055225610733
1716735783752319200,6.1363193359375,-0.037804603576660156,0.0014936141669750214,0.002942420542240143
1716735783762319000,6.146319091796875,-0.009074211120605469,0.0037602856755256653,0.005304858088493347
1716735783772319200,6.1563193359375,-0.011468887329101562,0.0013382062315940857,0.0028768330812454224
1716735783782319000,6.166319091796875,-0.030622482299804688,0.0013848356902599335,0.0005125068128108978
1716735783792319200,6.1763193359375,-0.028228759765625,0.0014385320246219635,-0.0017330609261989594
1716735783802319000,6.186319091796875,-0.006680488586425781,0.0037728101015090942,-0.004214189946651459
1716735783812319200,6.1963193359375,-0.006680488586425781,0.0013021230697631836,-0.004197008907794952
1716735783822319000,6.206319091796875,-0.028228759765625,-0.000989716500043869,-0.0017052069306373596
1716735783832319200,6.2163193359375,-0.03301811218261719,-0.0009297989308834076,-0.0016182810068130493
1716735783842319000,6.226319091796875,-0.011470794677734375,0.0038926228880882263,-0.0040402524173259735
1716735783852319200,6.2363193359375,-0.013864517211914062,0.003532014787197113,-0.0036778487265110016
1716735783862319000,6.246319091796875,-0.028230667114257812,0.003572531044483185,-0.00598052516579628
1716735783872319200,6.2563193359375,-0.028230667114257812,0.0035620592534542084,-0.005937982350587845
1716735783882319000,6.266319091796875,-0.013864517211914062,0.0010463297367095947,-0.0060313381254673
1716735783892319200,6.2763193359375,-0.013863563537597656,0.0009569339454174042,-0.003677360713481903
1716735783902319000,6.286319091796875,-0.025835037231445312,-0.001490369439125061,-0.003645326942205429
1716735783912319200,6.2963193359375,-0.028229713439941406,0.0009507052600383759,-0.0012214556336402893
1716735783922319000,6.306319091796875,-0.016259193420410156,0.000984732061624527,-0.0012492239475250244
1716735783932319200,6.3163193359375,-0.01386260986328125,0.0008528381586074829,0.0010941028594970703
1716735783942319000,6.326319091796875,-0.023441314697265625,0.000666692852973938,0.00151791051030159
1716735783952319200,6.3363193359375,-0.028229713439941406,0.0007136240601539612,0.001547548919916153
1716735783962319000,6.346319091796875,-0.018652915954589844,-0.004096291959285736,0.0038460716605186462
1716735783972319200,6.3563193359375,-0.013863563537597656,-0.004166610538959503,0.0014073699712753296
1716735783982319000,6.366319091796875,-0.02344036102294922,-0.0017192400991916656,-0.0010189078748226166
1716735783992319200,6.3763193359375,-0.0306243896484375,-0.0016723722219467163,0.0014049597084522247
1716735784002319000,6.386319091796875,-0.02344036102294922,0.0006558187305927277,0.0013795942068099976
1716735784012319200,6.3963193359375,-0.018651962280273438,0.003041177988052368,0.0013415366411209106
1716735784022319000,6.406319091796875,-0.025835037231445312,0.005363132804632187,0.001377880573272705
1716735784032319200,6.4163193359375,-0.028228759765625,0.005467608571052551,-0.0033939406275749207
1716735784042319000,6.426319091796875,-0.021047592163085938,0.0030566491186618805,-0.005683861672878265
1716735784052319200,6.4363193359375,-0.013863563537597656,0.0029183998703956604,-0.005672875791788101
1716735784062319000,6.446319091796875,-0.02104663848876953,0.002865344285964966,-0.005640868097543716
1716735784072319200,6.4563193359375,-0.02583599090576172,0.00045008212327957153,-0.005555715411901474
1716735784082319000,6.466319091796875,-0.021047592163085938,0.0005648992955684662,0.0016010664403438568
1716735784092319200,6.4763193359375,-0.021047592163085938,0.002882611006498337,0.0016182474792003632
1716735784102319000,6.486319091796875,-0.023441314697265625,0.0028783082962036133,0.0015991143882274628
1716735784112319200,6.4963193359375,-0.028229713439941406,0.00046293437480926514,-0.000709880143404007
1716735784122319000,6.506319091796875,-0.02344226837158203,0.002974197268486023,0.0017586387693881989
1716735784132319200,6.5163193359375,-0.01865386962890625,0.0005692988634109497,0.004195511341094971
1716735784142319000,6.526319091796875,-0.021048545837402344,0.0006159655749797821,0.004225436598062515
1716735784152319200,6.5363193359375,-0.023443222045898438,0.0007203817367553711,0.009030446410179138
1716735784162319000,6.546319091796875,-0.018651962280273438,-0.0043497271835803986,0.006277434527873993
1716735784172319200,6.5563193359375,-0.016257286071777344,-0.004358276724815369,0.00384492427110672
1716735784182319000,6.566319091796875,-0.01865100860595703,0.00035357847809791565,0.003862135112285614
1716735784192319200,6.5763193359375,-0.025835037231445312,0.00040050968527793884,0.001497570425271988
1716735784202319000,6.586319091796875,-0.02104663848876953,0.0004027262330055237,0.0015976428985595703
1716735784212319200,6.5963193359375,-0.021045684814453125,0.0002750083804130554,-0.0008281469345092773
1716735784222319000,6.606319091796875,-0.023439407348632812,0.0026415251195430756,0.0015320517122745514
1716735784232319200,6.6163193359375,-0.025831222534179688,0.00016749277710914612,-0.0013065598905086517
1716735784242319000,6.626319091796875,-0.025831222534179688,0.00007804110646247864,-0.0013467594981193542
1716735784252319200,6.6363193359375,-0.021042823791503906,0.0024681352078914642,-0.0013660788536071777
1716735784262319000,6.646319091796875,-0.023436546325683594,0.0025168024003505707,-0.001417107880115509
1716735784272319200,6.6563193359375,-0.023435592651367188,0.0024444833397865295,-0.0037748441100120544
1716735784282319000,6.666319091796875,-0.018647193908691406,0.000047869980335235596,-0.006269078701734543
1716735784292319200,6.6763193359375,-0.016254425048828125,0.0000946149230003357,-0.003845062106847763
1716735784302319000,6.686319091796875,-0.018648147583007812,0.0024104043841362,-0.003747042268514633
1716735784312319200,6.6963193359375,-0.021042823791503906,0.0023955702781677246,0.0010648034512996674
1716735784322319000,6.706319091796875,-0.018648147583007812,0.004787679761648178,0.0011457428336143494
1716735784332319200,6.7163193359375,-0.016254425048828125,0.0023150742053985596,0.003637969493865967
1716735784342319000,6.726319091796875,-0.018648147583007812,0.0023002400994300842,0.003661409020423889
1716735784352319200,6.7363193359375,-0.021042823791503906,-0.00016614794731140137,0.006091926246881485
1716735784362319000,6.746319091796875,-0.021043777465820312,0.004739310592412949,0.0037720277905464172
1716735784372319200,6.7563193359375,-0.021042823791503906,0.009510505944490433,0.0013012886047363281
1716735784382319000,6.766319091796875,-0.0234375,0.007164992392063141,-0.0011440292000770569
1716735784392319200,6.7763193359375,-0.021042823791503906,0.007166918367147446,-0.0036190710961818695
1716735784402319000,6.786319091796875,-0.021040916442871094,0.004338692873716354,-0.003581669181585312
1716735784412319200,6.7963193359375,-0.021038055419921875,0.0013916827738285065,-0.0035379119217395782
1716735784422319000,6.806319091796875,-0.02103710174560547,0.0009043924510478973,-0.0010741576552391052
1716735784432319200,6.8163193359375,-0.02103710174560547,-0.001424059271812439,0.0013457126915454865
1716735784442319000,6.826319091796875,-0.018642425537109375,0.0010615698993206024,0.0013050362467765808
1716735784452319200,6.8363193359375,-0.02103710174560547,0.000995393842458725,0.006068173795938492
1716735784462319000,6.846319091796875,-0.018642425537109375,-0.0014692023396492004,0.0036296024918556213
1716735784472319200,6.8563193359375,-0.018642425537109375,0.0009076222777366638,0.0011589527130126953
1716735784482319000,6.866319091796875,-0.021035194396972656,0.0008435286581516266,-0.001341450959444046
1716735784492319200,6.8763193359375,-0.021035194396972656,-0.0014358051121234894,0.0010268986225128174
1716735784502319000,6.886319091796875,-0.01863861083984375,0.0007218010723590851,0.000778496265411377
1716735784512319200,6.8963193359375,-0.01863861083984375,0.0007068030536174774,0.003196239471435547
1716735784522319000,6.906319091796875,-0.016244888305664062,0.0007044784724712372,0.00309622660279274
1716735784532319200,6.9163193359375,-0.016243934631347656,0.0006958693265914917,0.003057952970266342
1716735784542319000,6.926319091796875,-0.01863861083984375,0.0007976368069648743,-0.0018135234713554382
1716735784552319200,6.9363193359375,-0.01863861083984375,-0.0015494972467422485,-0.0041782446205616
1716735784562319000,6.946319091796875,-0.021033287048339844,0.000891413539648056,-0.0017542764544487
1716735784572319200,6.9563193359375,-0.021033287048339844,0.00333254411816597,0.0006695501506328583
1716735784582319000,6.966319091796875,-0.02103424072265625,0.0032115131616592407,0.000757075846195221
1716735784592319200,6.9763193359375,-0.021033287048339844,0.0032029040157794952,-0.0016753897070884705
1716735784602319000,6.986319091796875,-0.02103424072265625,0.0008556395769119263,-0.0016457624733448029
1716735784612319200,6.9963193359375,-0.021033287048339844,0.0007279142737388611,-0.0040715523064136505
1716735784622319000,7.006319091796875,-0.018637657165527344,0.00022449344396591187,-0.001322772353887558
1716735784632319200,7.0163193359375,-0.021033287048339844,0.00032866746187210083,-0.001305948942899704
1716735784642319000,7.026319091796875,-0.021033287048339844,0.0002562962472438812,-0.0012694485485553741
1716735784652319200,7.0363193359375,-0.021033287048339844,0.00024782493710517883,0.0010863244533538818
1716735784662319400,7.0463193359375,-0.018637657165527344,0.002695184201002121,0.0010542459785938263
1716735784672319200,7.0563193359375,-0.01863861083984375,0.0003416314721107483,0.003539822995662689
1716735784682319400,7.0663193359375,-0.01863861083984375,0.00032685697078704834,0.005957428365945816
1716735784692319200,7.0763193359375,-0.018639564514160156,0.0004354417324066162,0.005993317812681198
1716735784702319000,7.086319091796875,-0.02103424072265625,0.002882741391658783,0.005961276590824127
1716735784712319200,7.0963193359375,-0.018639564514160156,0.000473901629447937,0.0035903193056583405
1716735784722319000,7.106319091796875,-0.021035194396972656,0.000578317791223526,0.006001122295856476
1716735784732319200,7.1163193359375,-0.03061199188232422,0.005369096994400024,0.006101097911596298
1716735784742319000,7.126319091796875,0.0053005218505859375,0.005409937351942062,0.0037980861961841583
1716735784752319200,7.1363193359375,0.012484550476074219,0.0051587969064712524,0.003754042088985443
1716735784762319000,7.146319091796875,-0.0066680908203125,0.002763815224170685,-0.0013961680233478546
1716735784772319200,7.1563193359375,-0.013846397399902344,0.002348378300666809,-0.0017250031232833862
1716735784782319000,7.166319091796875,0.0029125213623046875,0.00006468594074249268,0.0006242543458938599
1716735784792319200,7.1763193359375,0.005307197570800781,0.0022675879299640656,0.003061451017856598
1716735784802319000,7.186319091796875,-0.011452674865722656,0.002314295619726181,0.0030912160873413086
1716735784812319200,7.1963193359375,-0.01863574981689453,0.0000989958643913269,0.0031716078519821167
1716735784822319000,7.206319091796875,-0.006665229797363281,0.004997830837965012,0.0007325746119022369
1716735784832319200,7.2163193359375,-0.006665229797363281,0.004912681877613068,0.0007115118205547333
1716735784842319000,7.226319091796875,-0.018632888793945312,0.006899967789649963,0.002815134823322296
1716735784852319200,7.2363193359375,-0.025815963745117188,0.009279388934373856,0.0004443414509296417
1716735784862319000,7.246319091796875,-0.0138397216796875,0.006205935031175613,0.0001950189471244812
1716735784872319200,7.2563193359375,-0.009051322937011719,0.006133586168289185,0.00023143738508224487
1716735784882319000,7.266319091796875,-0.01862812042236328,0.0037924833595752716,-0.002194806933403015
1716735784892319200,7.2763193359375,-0.025811195373535156,0.00145779550075531,-0.004501618444919586
1716735784902319000,7.286319091796875,-0.016233444213867188,0.0034667998552322388,-0.004515465348958969
1716735784912319200,7.2963193359375,-0.011445045471191406,0.003520071506500244,-0.0021534115076065063
1716735784922319000,7.306319091796875,-0.018625259399414062,0.0006603971123695374,-0.0019884295761585236
1716735784932319200,7.3163193359375,-0.028202056884765625,0.0006942562758922577,-0.0020161010324954987
1716735784942319000,7.326319091796875,-0.021019935607910156,-0.0017041191458702087,-0.0020354054868221283
1716735784952319200,7.3363193359375,-0.01623058319091797,-0.004100695252418518,-0.00692378357052803
1716735784962319000,7.346319091796875,-0.021019935607910156,-0.00650981068611145,-0.00690021738409996
1716735784972319200,7.3563193359375,-0.025808334350585938,-0.0016745254397392273,-0.0020821504294872284
1716735784982319000,7.366319091796875,-0.021019935607910156,0.0007729046046733856,0.00027983635663986206
1716735784992319200,7.3763193359375,-0.016231536865234375,-0.0016873814165592194,0.000254608690738678
1716735785002319000,7.386319091796875,-0.021022796630859375,-0.001450028270483017,0.0006835684180259705
1716735785012319200,7.3963193359375,-0.021022796630859375,-0.001465030014514923,0.0031013190746307373
1716735785022319000,7.406319091796875,-0.016234397888183594,-0.003869973123073578,0.005538385361433029
1716735785032319200,7.4163193359375,-0.011447906494140625,-0.0010677017271518707,0.005386315286159515
1716735785042319000,7.426319091796875,-0.016234397888183594,-0.003256615251302719,0.002563904970884323
1716735785052319200,7.4363193359375,-0.02102375030517578,-0.003271277993917465,0.00258723646402359
1716735785062319000,7.446319091796875,-0.01862812042236328,-0.003331173211336136,0.0025002360343933105
1716735785072319200,7.4563193359375,-0.016233444213867188,-0.0006591379642486572,-0.00017745047807693481
1716735785082319000,7.466319091796875,-0.018627166748046875,0.0016690455377101898,-0.00020281225442886353
1716735785092319200,7.4763193359375,-0.023416519165039062,-0.0007270164787769318,-0.00012200325727462769
1716735785102319000,7.486319091796875,-0.021022796630859375,-0.0007418543100357056,-0.0000985562801361084
1716735785112319200,7.4963193359375,-0.018627166748046875,-0.0008207149803638458,0.0022128410637378693
1716735785122319000,7.506319091796875,-0.021020889282226562,-0.0008912049233913422,0.0021684467792510986
1716735785132319200,7.5163193359375,-0.02341461181640625,-0.0006305873394012451,0.0018084235489368439
1716735785142319000,7.526319091796875,-0.021020889282226562,-0.000520024448633194,0.004157640039920807
1716735785152319200,7.5363193359375,-0.01862621307373047,0.0018019378185272217,0.0041939876973629
1716735785162319000,7.546319091796875,-0.021019935607910156,-0.0006583034992218018,0.0017743706703186035
1716735785172319200,7.5563193359375,-0.021019935607910156,-0.0006732195615768433,0.0017979294061660767
1716735785182319000,7.566319091796875,-0.02101898193359375,-0.0005913712084293365,0.00135735422372818
1716735785192319200,7.5763193359375,-0.018624305725097656,-0.0005382075905799866,0.0013252794742584229
1716735785202319000,7.586319091796875,-0.018624305725097656,-0.0004849657416343689,-0.00349532812833786
1716735785212319200,7.5963193359375,-0.018624305725097656,0.001943204551935196,-0.0011288635432720184
1716735785222319000,7.606319091796875,-0.02101898193359375,-0.00044694915413856506,-0.00589790940284729
1716735785232319200,7.6163193359375,-0.02101898193359375,-0.0028690360486507416,-0.0059317126870155334
1716735785242319000,7.626319091796875,-0.02101898193359375,-0.005278065800666809,-0.0083024762570858
1716735785252319200,7.6363193359375,-0.023412704467773438,-0.0075444914400577545,-0.010665133595466614
1716735785262319000,7.646319091796875,-0.023413658142089844,-0.00510980561375618,-0.008179444819688797
1716735785272319200,7.6563193359375,-0.02341747283935547,-0.002378348261117935,-0.007752746343612671
1716735785282319000,7.666319091796875,-0.025811195373535156,-0.004842862486839294,-0.007797233760356903
1716735785292319200,7.6763193359375,-0.028204917907714844,-0.007251758128404617,-0.005379758775234222
1716735785302319000,7.686319091796875,-0.025812149047851562,-0.004823528230190277,-0.005407530814409256
1716735785312319200,7.6963193359375,-0.023420333862304688,-0.0021050386130809784,-0.0026439912617206573
1716735785322319000,7.706319091796875,-0.021026611328125,-0.0020582936704158783,-0.002614174038171768
1716735785332319200,7.7163193359375,-0.023423194885253906,0.0006600916385650635,-0.007033172994852066
1716735785342319000,7.726319091796875,-0.02342700958251953,0.0009019188582897186,-0.004190966486930847
1716735785352319200,7.7363193359375,-0.021035194396972656,0.0009348802268505096,-0.0013820119202136993
1716735785362319000,7.746319091796875,-0.021035194396972656,-0.0015250109136104584,-0.0014077164232730865
1716735785372319200,7.7563193359375,-0.01864147186279297,0.0033233128488063812,-0.0013208091259002686
1716735785382319000,7.766319091796875,-0.021036148071289062,0.003308776766061783,-0.0012976229190826416
1716735785392319200,7.7763193359375,-0.021036148071289062,0.0032941363751888275,0.0011198222637176514
1716735785402319000,7.786319091796875,-0.021036148071289062,0.0008959323167800903,-0.0012937597930431366
1716735785412319200,7.7963193359375,-0.02342987060546875,0.0009299032390117645,-0.0037157051265239716
1716735785422319000,7.806319091796875,-0.02103710174560547,0.003116786479949951,-0.003206677734851837
1716735785432319200,7.8163193359375,-0.02103710174560547,0.0006564408540725708,-0.003231886774301529
1716735785442319000,7.826319091796875,-0.02103710174560547,-0.001752600073814392,-0.0008142478764057159
1716735785452319200,7.8363193359375,-0.02103710174560547,-0.00403193011879921,0.001554105430841446
1716735785462319000,7.846319091796875,-0.018642425537109375,-0.006434734910726547,-0.0008783638477325439
1716735785472319200,7.8563193359375,-0.018642425537109375,-0.004112638533115387,-0.003236379474401474
1716735785482319000,7.866319091796875,-0.02103710174560547,-0.006583493202924728,-0.0008248984813690186
1716735785492319200,7.8763193359375,-0.02582550048828125,-0.006543431431055069,0.0014800094068050385
1716735785502319000,7.886319091796875,-0.02582550048828125,-0.0065519846975803375,0.0014417022466659546
1716735785512319200,7.8963193359375,-0.018642425537109375,-0.006562642753124237,-0.0009097680449485779
1716735785522319000,7.906319091796875,-0.018642425537109375,-0.006564732640981674,-0.003223024308681488
1716735785532319200,7.9163193359375,-0.01864147186279297,-0.001797787845134735,-0.0009245350956916809
1716735785542319000,7.926319091796875,-0.021039962768554688,0.0035187117755413055,-0.0007216371595859528
1716735785552319200,7.9363193359375,-0.021038055419921875,0.005766112357378006,-0.0031431540846824646
1716735785562319000,7.946319091796875,-0.023431777954101562,0.0033633001148700714,-0.003181423991918564
1716735785572319200,7.9563193359375,-0.023431777954101562,0.0032865963876247406,-0.0031641200184822083
1716735785582319000,7.966319091796875,-0.025827407836914062,0.008077435195446014,-0.0030641742050647736
1716735785592319200,7.9763193359375,-0.02343273162841797,0.0057363323867321014,-0.005490411072969437
1716735785602319000,7.986319091796875,-0.023431777954101562,0.003371667116880417,-0.005537133663892746
1716735785612319200,7.9963193359375,-0.02343273162841797,-0.00142737478017807,-0.00788869708776474
1716735785622319000,8.006319091796875,-0.02582836151123047,-0.0016288049519062042,-0.005228068679571152
1716735785632319200,8.0163193359375,-0.03061676025390625,0.000812280923128128,-0.0051984041929244995
1716735785642319000,8.026319091796875,-0.028222084045410156,0.000808030366897583,-0.002823367714881897
1716735785652319200,8.0363193359375,-0.02582836151123047,0.0007933229207992554,-0.0028000883758068085
1716735785662319000,8.046319091796875,-0.028222084045410156,0.0009038373827934265,-0.005239240825176239
1716735785672319200,8.0563193359375,-0.028222084045410156,0.0008932314813137054,-0.0051965489983558655
1716735785682319000,8.066319091796874,-0.028223037719726562,-0.0015871338546276093,-0.0023809149861335754
1716735785692319200,8.0763193359375,-0.023435592651367188,-0.003928173333406448,-0.0024129897356033325
1716735785702319000,8.086319091796875,-0.025832176208496094,-0.001498386263847351,-0.0018985643982887268
1716735785712319200,8.0963193359375,-0.02344036102294922,-0.001461125910282135,0.000929519534111023
1716735785722319000,8.106319091796875,-0.02344226837158203,0.0009832382202148438,0.0038150139153003693
1716735785732319200,8.1163193359375,-0.02583789825439453,-0.0014129579067230225,0.0038959793746471405
1716735785742319000,8.126319091796875,-0.02104949951171875,-0.0013661161065101624,0.003925587981939316
1716735785752319200,8.1363193359375,-0.02104949951171875,-0.0012513026595115662,0.0038997717201709747
1716735785762319000,8.146319091796874,-0.023444175720214844,-0.0035923458635807037,0.001473497599363327
1716735785772319200,8.1563193359375,-0.025836944580078125,-0.001281246542930603,0.0013714432716369629
1716735785782319000,8.166319091796876,-0.006684303283691406,-0.003692150115966797,-0.0009185150265693665
1716735785792319200,8.1763193359375,0.017256736755371094,-0.0030399151146411896,-0.001326579600572586
1716735785802319000,8.186319091796875,0.02443981170654297,-0.00568496435880661,-0.0011896975338459015
1716735785812319200,8.1963193359375,0.0004968643188476562,-0.005389273166656494,0.0011782050132751465
1716735785822319000,8.206319091796875,-0.013869285583496094,-0.0029415152966976166,-0.0010672174394130707
1716735785832319200,8.2163193359375,0.005284309387207031,0.0018319301307201385,0.0013505704700946808
1716735785842319000,8.226319091796874,0.007678985595703125,0.004136860370635986,-0.001084011048078537
1716735785852319200,8.2363193359375,-0.009079933166503906,0.001683168113231659,-0.000990159809589386
1716735785862319000,8.246319091796876,-0.01865863800048828,-0.0005512125790119171,0.0014887042343616486
1716735785872319200,8.2563193359375,-0.0138702392578125,-0.002943485975265503,0.006196264177560806
1716735785882319000,8.266319091796875,-0.004291534423828125,-0.0006196014583110809,0.006151765584945679
1716735785892319200,8.2763193359375,-0.018657684326171875,-0.0029179491102695465,0.0037358589470386505
1716735785902319000,8.286319091796875,-0.028235435485839844,-0.0028581656515598297,0.0038229376077651978
1716735785912319200,8.2963193359375,-0.01865673065185547,-0.005113225430250168,0.0057638101279735565
1716735785922319000,8.306319091796874,-0.011474609375,-0.0027146637439727783,0.000994514673948288
1716735785932319200,8.3163193359375,-0.021051406860351562,-0.002735726535320282,-0.0013145431876182556
1716735785942319000,8.326319091796876,-0.025841712951660156,-0.0026885010302066803,-0.0011039860546588898
1716735785952319200,8.3363193359375,-0.016264915466308594,-0.0003537610173225403,-0.0057984888553619385
1716735785962319000,8.346319091796875,-0.009081840515136719,-0.0027053840458393097,-0.005787953734397888
1716735785972319200,8.3563193359375,-0.01865863800048828,-0.002665296196937561,-0.00827154889702797
1716735785982319000,8.366319091796875,-0.025842666625976562,-0.0024950020015239716,-0.005835223942995071
1716735785992319200,8.3763193359375,-0.02105426788330078,-0.00010925158858299255,-0.0034793876111507416
1716735786002319000,8.386319091796874,-0.013872146606445312,-0.0024624988436698914,-0.0009941458702087402
1716735786012319200,8.3963193359375,-0.013875961303710938,0.0026718229055404663,0.006653334945440292
1716735786022319000,8.406319091796876,-0.023451805114746094,0.00517653301358223,0.006608385592699051
1716735786032319200,8.4163193359375,-0.0234527587890625,0.005229569971561432,0.008970659226179123
1716735786042319000,8.426319091796875,-0.016269683837890625,0.002701420336961746,0.009000778198242188
1716735786052319200,8.4363193359375,-0.01866436004638672,0.00030546635389328003,0.009081441909074783
1716735786062319000,8.446319091796875,-0.025847434997558594,0.00040782615542411804,0.006784837692975998
1716735786072319200,8.4563193359375,-0.0234527587890625,0.0028487518429756165,0.006814602762460709
1716735786082319000,8.466319091796874,-0.0186614990234375,0.0027344301342964172,0.008611418306827545
1716735786092319200,8.4763193359375,-0.021056175231933594,0.00021238252520561218,0.008579976856708527
1716735786102319000,8.486319091796876,-0.025841712951660156,0.002488665282726288,0.008143983781337738
1716735786112319200,8.4963193359375,-0.025838851928710938,-0.00008534267544746399,0.007701948285102844
1716735786122319000,8.506319091796875,-0.018655776977539062,0.00224284827709198,0.002888176590204239
1716735786132319200,8.5163193359375,-0.021045684814453125,0.002066623419523239,-0.00029076263308525085
1716735786142319000,8.526319091796875,-0.025834083557128906,-0.0003422833979129791,-0.00026747211813926697
1716735786152319200,8.5363193359375,-0.025834083557128906,-0.0004145987331867218,-0.00023100897669792175
1716735786162319000,8.546319091796875,-0.023439407348632812,-0.0004232041537761688,-0.00026928260922431946
1716735786172319200,8.5563193359375,-0.023439407348632812,-0.0004466399550437927,-0.005072515457868576
1716735786182319000,8.566319091796874,-0.028226852416992188,-0.0004551894962787628,-0.0051108188927173615
1716735786192319200,8.5763193359375,-0.025834083557128906,-0.0004081837832927704,-0.0026871077716350555
1716735786202319000,8.586319091796875,-0.02104473114013672,-0.0004786290228366852,-0.0003372505307197571
1716735786212319200,8.5963193359375,-0.021045684814453125,-0.002812732011079788,-0.00025051459670066833
1716735786222319000,8.606319091796875,-0.025834083557128906,-0.005160186439752579,-0.0026149004697799683
1716735786232319200,8.6163193359375,-0.025834083557128906,-0.005168795585632324,-0.0002589672803878784
1716735786242319000,8.626319091796875,-0.021045684814453125,-0.005179271101951599,-0.00021642819046974182
1716735786252319200,8.6363193359375,-0.023439407348632812,-0.002799898386001587,-0.0025871917605400085
1716735786262319000,8.646319091796874,-0.028227806091308594,-0.0028765499591827393,-0.004964113235473633
1716735786272319200,8.6563193359375,-0.025834083557128906,0.011484485119581223,0.009381808340549469
1716735786282319000,8.666319091796876,-0.011467933654785156,0.006606504321098328,0.004553355276584625
1716735786292319200,8.6763193359375,-0.023439407348632812,0.013855047523975372,-0.004997961223125458
1716735786302319000,8.686319091796875,-0.021045684814453125,0.023478567600250244,-0.004968196153640747
1716735786312319200,8.6963193359375,-0.021043777465820312,-0.003453359007835388,0.00464215874671936
1716735786322319000,8.706319091796875,-0.02343463897705078,0.0033615529537200928,0.007098786532878876
1716735786332319200,8.7163193359375,-0.02583026885986328,0.008129030466079712,0.014366384595632553
1716735786342319000,8.726319091796874,-0.030615806579589844,0.007757924497127533,0.013967335224151611
1716735786352319200,8.7363193359375,-0.033003807067871094,0.004837106913328171,0.008714351803064346
1716735786362319000,8.746319091796876,-0.016241073608398438,0.013959590345621109,-0.0037576109170913696
1716735786372319200,8.7563193359375,-0.006664276123046875,0.004381023347377777,0.010688342154026031
1716735786382319000,8.766319091796875,-0.03060150146484375,-0.0010042451322078705,-0.013762786984443665
1716735786392319200,8.7763193359375,-0.02581310272216797,-0.003407225012779236,0.0029584579169750214
1716735786402319000,8.786319091796875,-0.006659507751464844,-0.0009024553000926971,0.0029134713113307953
1716735786412319200,8.7963193359375,-0.013841629028320312,-0.003205418586730957,-0.0019154176115989685
1716735786422319000,8.806319091796874,-0.021024703979492188,0.011093612760305405,-0.004334878176450729
1716735786432319200,8.8163193359375,-0.03299522399902344,-0.010462887585163116,0.01717478781938553
1716735786442319000,8.826319091796876,-0.0018711090087890625,-0.0056276023387908936,0.0028392523527145386
1716735786452319200,8.8363193359375,-0.02581310272216797,0.003991663455963135,0.00045564770698547363
1716735786462319000,8.846319091796875,-0.021024703979492188,0.003925785422325134,-0.004358284175395966
1716735786472319200,8.8563193359375,-0.021024703979492188,0.018276076763868332,-0.001940511167049408
1716735786482319000,8.866319091796875,-0.018630027770996094,-0.0007729753851890564,0.012441128492355347
1716735786492319200,8.8763193359375,-0.021025657653808594,-0.00791487842798233,-0.0018327422440052032
1716735786502319000,8.886319091796874,-0.025814056396484375,0.001766204833984375,0.002972424030303955
1716735786512319200,8.8963193359375,-0.030602455139160156,-0.0030367188155651093,0.002995602786540985
1716735786522319000,8.906319091796876,-0.013843536376953125,0.0041865818202495575,-0.001701459288597107
1716735786532319200,8.9163193359375,-0.02581501007080078,-0.005405217409133911,0.007898885756731033
1716735786542319000,8.926319091796875,-0.023421287536621094,0.011407345533370972,0.0006841979920864105
1716735786552319200,8.9363193359375,-0.02581501007080078,-0.01261107251048088,0.024643268436193466
1716735786562319000,8.946319091796875,-0.0186309814453125,0.006662599742412567,0.014617417007684708
1716735786572319200,8.9563193359375,-0.02102184295654297,0.011325787752866745,0.02106427028775215
1716735786582319000,8.966319091796874,-0.028197288513183594,0.0014659836888313293,0.010586131364107132
1716735786592319200,8.9763193359375,-0.02579975128173828,0.00845104455947876,0.0027042441070079803
1716735786602319000,8.986319091796876,-0.025793075561523438,-0.006350476294755936,0.0018374808132648468
1716735786612319200,8.9963193359375,-0.02100086212158203,-0.001695685088634491,-0.0011496283113956451
1716735786622319000,9.006319091796875,-0.016208648681640625,0.00773988664150238,-0.0016006045043468475
1716735786632319200,9.0163193359375,-0.009022712707519531,-0.004448946565389633,0.005148421972990036
1716735786642319000,9.026319091796875,0.0053424835205078125,0.005113024264574051,-0.006799142807722092
1716735786652319200,9.0363193359375,-0.018598556518554688,0.0025803036987781525,-0.01636473834514618
1716735786662319000,9.046319091796875,-0.02338695526123047,0.009754303842782974,0.0003564096987247467
1716735786672319200,9.0563193359375,-0.035358428955078125,-0.002225428819656372,0.01707761362195015
1716735786682319000,9.066319091796874,-0.013810157775878906,0.024095948785543442,-0.006840959191322327
1716735786692319200,9.0763193359375,-0.023382186889648438,0.004085097461938858,-0.0020206384360790253
1716735786702319000,9.086319091796875,-0.023380279541015625,-0.015544582158327103,0.01715937629342079
1716735786712319200,9.0963193359375,-0.03295707702636719,0.005926690995693207,-0.0019770264625549316
1716735786722319000,9.106319091796875,-0.03535175323486328,-0.003790229558944702,0.01008576899766922
1716735786732319200,9.1163193359375,-0.02098369598388672,0.00568331778049469,0.00004971399903297424
1716735786742319000,9.126319091796875,-0.018589019775390625,0.0033358708024024963,0.0024736523628234863
1716735786752319200,9.1363193359375,-0.11196422576904297,-0.008526399731636047,0.002509377896785736
1716735786762319000,9.146319091796874,-0.004223823547363281,0.008262738585472107,0.004856668412685394
1716735786772319200,9.1563193359375,0.08436298370361328,0.003450188785791397,-0.014673534780740738
1716735786782319000,9.166319091796876,-0.020982742309570312,-0.008648280054330826,0.002235211431980133
1716735786792319200,9.1763193359375,-0.05929088592529297,-0.01806526631116867,0.014290891587734222
1716735786802319000,9.186319091796875,-0.028165817260742188,0.0038093365728855133,0.0019850656390190125
1716735786812319200,9.1963193359375,0.0053539276123046875,0.010802574455738068,0.013918217271566391
1716735786822319000,9.206319091796875,-0.006617546081542969,0.010730143636465073,0.0019836649298667908
1716735786832319200,9.2163193359375,-0.028161048889160156,0.01298895850777626,-0.0033169612288475037
1716735786842319000,9.226319091796874,-0.013795852661132812,0.008247431367635727,-0.0056814998388290405
1716735786852319200,9.2363193359375,-0.0161895751953125,0.0009816661477088928,-0.02493705041706562
1716735786862319000,9.246319091796876,-0.035343170166015625,-0.0062095411121845245,-0.01061011478304863
1716735786872319200,9.2563193359375,-0.02816009521484375,0.0033583790063858032,-0.013042338192462921
1716735786882319000,9.266319091796875,-0.02576732635498047,-0.008800853043794632,0.0042218975722789764
1716735786892319200,9.2763193359375,-0.023372650146484375,0.012800276279449463,-0.019752372056245804
1716735786902319000,9.286319091796875,-0.028163909912109375,-0.0018082298338413239,-0.014346323907375336
1716735786912319200,9.2963193359375,-0.020984649658203125,0.0028944574296474457,-0.006561461836099625
1716735786922319000,9.306319091796874,-0.020986557006835938,0.009916935116052628,-0.02038826048374176
1716735786932319200,9.3163193359375,-0.0066242218017578125,0.0025108084082603455,0.0019536092877388
1716735786942319000,9.326319091796876,-0.01620197296142578,-0.0025275275111198425,0.007240615785121918
1716735786952319200,9.3363193359375,-0.032962799072265625,-0.009823974221944809,0.00044543296098709106
1716735786962319000,9.346319091796875,-0.023386001586914062,0.0021385662257671356,-0.004381414502859116
1716735786972319200,9.3563193359375,-0.011414527893066406,-0.014642361551523209,0.012282315641641617
1716735786982319000,9.366319091796875,-0.02099132537841797,-0.019451767206192017,0.019550032913684845
1716735786992319200,9.3763193359375,-0.035358428955078125,-0.016936108469963074,0.005278058350086212
1716735787002319000,9.386319091796874,-0.020992279052734375,0.004641752690076828,0.0052308589220047
1716735787012319200,9.3963193359375,-0.025781631469726562,-0.006675247102975845,0.004742071032524109
1716735787022319000,9.406319091796876,-0.02817535400390625,-0.003900952637195587,0.021134428679943085
1716735787032319200,9.4163193359375,-0.025781631469726562,0.0009341798722743988,-0.01953716203570366
1716735787042319000,9.426319091796875,-0.028176307678222656,-0.010981466621160507,0.0020786672830581665
1716735787052319200,9.4363193359375,-0.011417388916015625,0.008150491863489151,0.013954166322946548
1716735787062319000,9.446319091796875,-0.02817535400390625,-0.0014983490109443665,0.011596102267503738
1716735787072319200,9.4563193359375,-0.009019851684570312,0.010825835168361664,-0.013189218938350677
1716735787082319000,9.466319091796874,-0.01859569549560547,0.008374430239200592,-0.008388116955757141
1716735787092319200,9.4763193359375,-0.03056812286376953,-0.001097947359085083,0.008387882262468338
1716735787102318800,9.48631884765625,-0.025780677795410156,-0.003513295203447342,-0.022651461884379387
1716735787112318700,9.496318603515626,-0.02338695526123047,-0.013171836733818054,-0.0030574537813663483
1716735787122318800,9.50631884765625,-0.018599510192871094,-0.008330326527357101,-0.0030894987285137177
1716735787132318700,9.516318603515625,-0.028179168701171875,0.006327316164970398,-0.0003792494535446167
1716735787142318800,9.52631884765625,-0.023393630981445312,-0.005429934710264206,0.007217664271593094
1716735787152319000,9.536319091796875,-0.025788307189941406,0.018565107136964798,0.0000031515955924987793
1716735787162318800,9.54631884765625,-0.032970428466796875,0.0017777718603610992,0.00475769117474556
1716735787172319000,9.556319091796874,-0.018604278564453125,0.001769229769706726,-0.002463221549987793
1716735787182318800,9.56631884765625,-0.023393630981445312,-0.00537317618727684,-0.0169178768992424
1716735787192319000,9.576319091796876,-0.025787353515625,-0.002994067966938019,0.00704781711101532
1716735787202318800,9.58631884765625,-0.03057575225830078,-0.012522216886281967,0.01417941227555275
1716735787212318700,9.596318603515625,-0.032970428466796875,-0.010142788290977478,0.0022318102419376373
1716735787222318800,9.60631884765625,-0.0281829833984375,0.002365943044424057,-0.0003636963665485382
1716735787232318700,9.616318603515625,-0.025789260864257812,0.0024130158126354218,0.018819376826286316
1716735787242318800,9.62631884765625,-0.013815879821777344,0.007348682731389999,-0.000930149108171463
1716735787252318700,9.636318603515624,-0.03057575225830078,0.012109406292438507,0.003824245184659958
1716735787262318800,9.64631884765625,-0.023387908935546875,-0.002612117677927017,-0.01096341758966446
1716735787272318700,9.656318603515626,-0.016206741333007812,0.004604455083608627,-0.0038085579872131348
1716735787282318800,9.66631884765625,-0.020994186401367188,0.004595912992954254,-0.0038468651473522186
1716735787292318700,9.676318603515625,-0.02578258514404297,-0.004989501088857651,-0.013461939990520477
1716735787302318800,9.68631884765625,-0.01620769500732422,-0.0028088316321372986,0.011050865054130554
1716735787312318700,9.696318603515625,-0.02578449249267578,-0.010067977011203766,-0.0032971352338790894
1716735787322318800,9.70631884765625,-0.02338886260986328,0.006557684391736984,-0.005661424249410629
1716735787332318700,9.716318603515624,-0.030571937561035156,-0.005428336560726166,0.013515733182430267
1716735787342318800,9.72631884765625,-0.02817821502685547,-0.010237742215394974,-0.0031585656106472015
1716735787352318700,9.736318603515626,-0.032967567443847656,-0.00014441832900047302,0.011090654879808426
1716735787362318800,9.74631884765625,-0.016208648681640625,0.009355902671813965,0.013502024114131927
1716735787372318700,9.756318603515625,-0.028179168701171875,-0.005024321377277374,0.003948763012886047
1716735787382318800,9.76631884765625,-0.016208648681640625,0.0044932179152965546,-0.0007459186017513275
1716735787392318700,9.776318603515625,-0.013813972473144531,0.0020223259925842285,0.0040598586201667786
1716735787402319000,9.786319091796875,-0.020997047424316406,-0.0003997385501861572,-0.005550846457481384
1716735787412319200,9.7963193359375,-0.02818012237548828,-0.012262165546417236,0.00885026529431343
1716735787422319000,9.806319091796874,-0.018602371215820312,-0.004795890301465988,0.003535822033882141
1716735787432319200,9.8163193359375,-0.02578449249267578,0.00714719295501709,-0.008469052612781525
1716735787442319000,9.826319091796876,-0.018601417541503906,-0.0024444423615932465,-0.01802242174744606
1716735787452319200,9.8363193359375,-0.02817821502685547,-0.009574029594659805,-0.006083320826292038
1716735787462319000,9.846319091796875,-0.025788307189941406,-0.004395518451929092,0.011070910841226578
1716735787472319200,9.8563193359375,-0.025788307189941406,-0.016374923288822174,-0.008121173828840256
1716735787482319000,9.866319091796875,-0.025793075561523438,-0.01322048157453537,0.013677742332220078
1716735787492319200,9.8763193359375,-0.025793075561523438,-0.001315571367740631,-0.019866321235895157
1716735787502319000,9.886319091796874,-0.021007537841796875,-0.003339216113090515,0.004294056445360184
1716735787512319200,9.8963193359375,-0.02340412139892578,-0.0004958175122737885,-0.0075569115579128265
1716735787522319000,9.906319091796876,-0.02819347381591797,0.018823962658643723,-0.014716632664203644
1716735787532319200,9.9163193359375,-0.028192520141601562,-0.009972728788852692,0.009200256317853928
1716735787542319000,9.926319091796875,-0.021010398864746094,-0.0004238411784172058,0.004377979785203934
1716735787552319200,9.9363193359375,-0.025798797607421875,0.002019338309764862,0.016297709196805954
1716735787562319000,9.946319091796875,-0.025798797607421875,-0.007635731250047684,0.009212970733642578
1716735787572319200,9.9563193359375,-0.0210113525390625,0.013954803347587585,0.021194346249103546
1716735787582319000,9.966319091796874,-0.01861286163330078,0.006683506071567535,0.011135078966617584
1716735787592319200,9.9763193359375,-0.03776264190673828,-0.015140235424041748,-0.018196694552898407
1716735787602319000,9.986319091796876,-0.02579212188720703,0.011119499802589417,-0.0038143135607242584
1716735787612319200,9.9963193359375,-0.02100086212158203,0.0013502910733222961,-0.013709578663110733
1716735787622319000,10.006319091796875,-0.03297138214111328,0.006181478500366211,-0.025670252740383148
1716735787632319200,10.0163193359375,-0.02579021453857422,0.018193278461694717,0.005545582622289658
1716735787642319000,10.026319091796875,-0.018606185913085938,0.0008902847766876221,-0.005981452763080597
1716735787652319200,10.0363193359375,-0.030577659606933594,-0.006358657032251358,-0.006006550043821335
1716735787662319000,10.046319091796875,-0.023397445678710938,0.0007847100496292114,-0.019920699298381805
1716735787672319200,10.0563193359375,-0.021004676818847656,0.01013915240764618,0.004553981125354767
1716735787682319000,10.066319091796874,-0.025793075561523438,-0.011703252792358398,-0.007029280066490173
1716735787692319200,10.0763193359375,-0.032975196838378906,0.0026596374809741974,0.016812726855278015
1716735787702319000,10.086319091796875,-0.021004676818847656,0.000295102596282959,-0.0047819651663303375
1716735787712319200,10.0963193359375,-0.013821601867675781,0.019434090703725815,0.009606480598449707
1716735787722319000,10.106319091796875,-0.011427879333496094,0.0027215518057346344,0.0024535395205020905
1716735787732319200,10.1163193359375,-0.016216278076171875,0.007562913000583649,-0.002366740256547928
1716735787742319000,10.126319091796875,-0.03297138214111328,0.006665229797363281,-0.0024263933300971985
1716735787752319200,10.1363193359375,-0.025789260864257812,0.006656479090452194,-0.019223913550376892
1716735787762319000,10.146319091796874,-0.020999908447265625,0.004311282187700272,0.016637731343507767
1716735787772319200,10.1563193359375,-0.018604278564453125,0.001895420253276825,-0.005005590617656708
1716735787782319000,10.166319091796876,-0.01860332489013672,0.01579105108976364,0.004716839641332626
1716735787792319200,10.1763193359375,-0.3035116195678711,0.029607418924570084,0.028722085058689117
1716735787802319000,10.186319091796875,0.007740974426269531,0.016827218234539032,-0.0003894120454788208
1716735787812319200,10.1963193359375,0.02690410614013672,0.006042394787073135,0.0013720393180847168
1716735787822319000,10.206319091796875,-0.10477352142333984,-0.025346577167510986,0.0010895803570747375
1716735787832319200,10.2163193359375,-0.1382923126220703,0.005869626998901367,0.01062551885843277
1716735787842319000,10.226319091796874,-0.06406784057617188,0.01734210178256035,0.0054062120616436005
1716735787852319200,10.2363193359375,-0.011393547058105469,0.0027746185660362244,0.010099343955516815
1716735787862319000,10.246319091796876,-0.0712432861328125,0.00947081670165062,0.002362709492444992
1716735787872319200,10.2563193359375,-0.08081912994384766,0.002217959612607956,-0.009652841836214066
1716735787882319000,10.266319091796875,0.000583648681640625,-0.007248193025588989,-0.02406318299472332
1716735787892319200,10.2763193359375,0.005372047424316406,0.0020080581307411194,-0.009424876421689987
1716735787902319000,10.286319091796875,-0.04969596862792969,-0.01224835216999054,-0.018966007977724075
1716735787912319200,10.2963193359375,-0.052092552185058594,-0.0026636719703674316,0.003243573009967804
1716735787922319000,10.306319091796874,-0.008997917175292969,-0.007404997944831848,0.008061420172452927
1716735787932319200,10.3163193359375,0.007761955261230469,-0.005148898810148239,-0.0015045925974845886
1716735787942319000,10.326319091796876,-0.040122032165527344,-0.019467316567897797,-0.023022590205073357
1716735787952319200,10.3363193359375,-0.05449390411376953,0.01700431853532791,-0.003351353108882904
1716735787962319000,10.346319091796875,-0.009006500244140625,0.019478466361761093,0.006669692695140839
1716735787972319200,10.3563193359375,0.014935493469238281,0.012281090021133423,-0.00288371741771698
1716735787982319000,10.366319091796875,-0.03055286407470703,0.019026130437850952,0.004497688263654709
1716735787992319200,10.3763193359375,-0.061675071716308594,-0.0006058700382709503,0.0022110380232334137
1716735788002319000,10.386319091796874,-0.013792037963867188,-0.010140229016542435,0.0022216513752937317
1716735788012319200,10.3963193359375,0.0029687881469726562,-0.010267622768878937,0.0021897517144680023
1716735788022319000,10.406319091796876,-0.030550003051757812,0.004021253436803818,-0.009764276444911957
1716735788032319200,10.4163193359375,-0.05209922790527344,-0.0006585642695426941,-0.0001515708863735199
1716735788042319000,10.426319091796875,-0.02576160430908203,0.01363639160990715,-0.012167125940322876
1716735788052319200,10.4363193359375,0.0077571868896484375,0.008881956338882446,0.006958752870559692
1716735788062319000,10.446319091796875,-0.013788223266601562,-0.015644602477550507,-0.009629074484109879
1716735788072319200,10.4563193359375,-0.047308921813964844,-0.02520972304046154,0.012418761849403381
1716735788082319000,10.466319091796874,-0.02815532684326172,-0.01564774662256241,0.0052595920860767365
1716735788092319200,10.4763193359375,0.010149002075195312,0.006406262516975403,0.0123685821890831
1716735788102319000,10.486319091796876,-0.02097797393798828,0.006880037486553192,0.004878286272287369
1716735788112319200,10.4963193359375,-0.04252433776855469,-0.002705313265323639,0.0048399753868579865
1716735788122319000,10.506319091796875,-0.011401176452636719,-0.007508549839258194,-0.004713393747806549
1716735788132319200,10.5163193359375,0.0029649734497070312,-0.007523499429225922,-0.0022956766188144684
1716735788142319000,10.526319091796875,-0.0137939453125,-0.0027500763535499573,0.014487359672784805
1716735788152319200,10.5363193359375,-0.04491901397705078,-0.01913369446992874,-0.000264044851064682
1716735788162319000,10.546319091796875,-0.018584251403808594,-0.00152646005153656,0.016063526272773743
1716735788172319200,10.5563193359375,-0.009007453918457031,0.013220570981502533,0.006039034575223923
1716735788182319000,10.566319091796874,-0.03534221649169922,0.010950446128845215,0.0030339397490024567
1716735788192319200,10.5763193359375,-0.040130615234375,-0.01294899731874466,-0.006532333791255951
1716735788202319000,10.586319091796875,-0.035343170166015625,0.008707467466592789,-0.0041022710502147675
1716735788212319200,10.5963193359375,-0.018583297729492188,-0.005615025758743286,-0.006486114114522934
1716735788222319000,10.606319091796875,-0.02097797393798828,-0.00801115483045578,0.017536744475364685
1716735788232319200,10.6163193359375,-0.03294849395751953,0.0015377923846244812,0.010320249944925308
1716735788242319000,10.626319091796875,-0.02337169647216797,0.008716095238924026,-0.004064101725816727
1716735788252319200,10.6363193359375,-0.0137939453125,-0.012901823967695236,-0.013685621321201324
1716735788262319000,10.646319091796874,0.000568389892578125,-0.0026951394975185394,-0.0017760060727596283
1716735788272319200,10.6563193359375,-0.02576923370361328,-0.0073235780000686646,-0.011268321424722672
1716735788282319000,10.666319091796876,-0.02337646484375,0.00954427570104599,0.0007387623190879822
1716735788292319200,10.6763193359375,-0.023375511169433594,0.009522978216409683,-0.004145536571741104
1716735788302319000,10.686319091796875,-0.025770187377929688,0.002382945269346237,-0.006529204547405243
1716735788312319200,10.6963193359375,-0.02337646484375,-0.011929161846637726,-0.013743843883275986
1716735788322319000,10.706319091796875,-0.02337932586669922,0.00013475120067596436,0.001122981309890747
1716735788332319200,10.7163193359375,-0.018590927124023438,0.0073085688054561615,-0.010886188596487045
1716735788342319000,10.726319091796874,-0.016198158264160156,-0.000042945146560668945,-0.0032032765448093414
1716735788352319200,10.7363193359375,-0.03295707702636719,-2.2724270820617676e-7,0.006383884698152542
1716735788362319000,10.746319091796876,-0.032958984375,-0.007074479013681412,0.004025891423225403
1716735788372319200,10.7563193359375,-0.006623268127441406,0.007337607443332672,0.004055563360452652
1716735788382319000,10.766319091796875,-0.011410713195800781,0.002472624182701111,-0.007898304611444473
1716735788392319200,10.7763193359375,-0.028168678283691406,-0.0023861750960350037,-0.0007600598037242889
1716735788402319000,10.786319091796875,-0.028168678283691406,-0.004846535623073578,-0.0007852539420127869
1716735788412319200,10.7963193359375,-0.018591880798339844,-0.007323302328586578,-0.0007065534591674805
1716735788422319000,10.806319091796874,-0.016198158264160156,0.007027070969343185,0.006499487906694412
1716735788432319200,10.8163193359375,-0.006621360778808594,0.004679802805185318,-0.0030476897954940796
1716735788442319000,10.826319091796876,-0.009016036987304688,0.0071103498339653015,-0.0005812421441078186
1716735788452319200,10.8363193359375,-0.006622314453125,0.014340028166770935,0.0018424130976200104
1716735788462319000,10.846319091796875,-0.032958984375,0.000027924776077270508,-0.0029780305922031403
1716735788472319200,10.8563193359375,-0.020989418029785156,0.00008153170347213745,-0.005223482847213745
1716735788482319000,10.866319091796875,-0.035353660583496094,0.004848245531320572,0.009046163409948349
1716735788492319200,10.8763193359375,-0.02817058563232422,-0.007080186158418655,0.0090566948056221
1716735788502319000,10.886319091796874,-0.02098846435546875,0.004888180643320084,-0.005408242344856262
1716735788512319200,10.8963193359375,-0.018593788146972656,-0.01906866580247879,-0.0005964040756225586
1716735788522319000,10.906319091796876,-0.02817058563232422,-0.004724316298961639,-0.002905678004026413
1716735788532319200,10.9163193359375,-0.01620006561279297,0.004905592650175095,0.004244886338710785
1716735788542319000,10.926319091796875,-0.02098846435546875,-0.007086675614118576,-0.005427740514278412
1716735788552319200,10.9363193359375,-0.032958030700683594,-0.0023643262684345245,-0.010241575539112091
1716735788562319000,10.946319091796875,-0.02338123321533203,-0.014363158494234085,-0.0054870061576366425
1716735788572319200,10.9563193359375,-0.03056812286376953,-0.016250520944595337,0.0043780021369457245
1716735788582319000,10.966319091796874,-0.016205787658691406,-0.008599843829870224,0.01646517962217331
1716735788592319200,10.9763193359375,-0.02099609375,0.006258409470319748,-0.010001897811889648
1716735788602319000,10.986319091796876,-0.009027481079101562,0.011559680104255676,0.0020146258175373077
1716735788612319200,10.9963193359375,-0.02099895477294922,-0.02201906591653824,-0.005254887044429779
1716735788622319000,11.006319091796875,-0.03297138214111328,-0.002471562474966049,-0.00041446462273597717
1716735788632319200,11.0163193359375,-0.03297138214111328,-0.01200149580836296,-0.002779003232717514
1716735788642319000,11.026319091796875,-0.030577659606933594,-0.0023887641727924347,-0.014858689159154892
1716735788652319200,11.0363193359375,-0.0281829833984375,-0.009643610566854477,0.00672546774148941
1716735788662319000,11.046319091796875,-0.01621532440185547,-0.018775491043925285,0.00682646781206131
1716735788672319200,11.0563193359375,-0.03058147430419922,-0.0016075633466243744,0.004461050033569336
1716735788682319000,11.066319091796874,-0.018611907958984375,0.013153325766324997,-0.0003560110926628113
1716735788692319200,11.0763193359375,-0.02100849151611328,0.001645691692829132,-0.002834208309650421
1716735788702319000,11.086319091796875,-0.03297901153564453,-0.0007013939321041107,0.004377931356430054
1716735788712319200,11.0963193359375,-0.00424957275390625,-0.007904920727014542,-0.02187330089509487
1716735788722319000,11.106319091796875,-0.025800704956054688,-0.005233190953731537,0.007196661084890366
1716735788732319200,11.1163193359375,-0.028194427490234375,0.004328839480876923,0.014402665197849274
1716735788742319000,11.126319091796875,-0.032982826232910156,0.018685266375541687,-0.007183317095041275
1716735788752319200,11.1363193359375,-0.028194427490234375,-0.002883557230234146,0.009661208838224411
1716735788762319000,11.146319091796874,-0.032982826232910156,-0.0004980973899364471,-0.01431892067193985
1716735788772319200,11.1563193359375,-0.018616676330566406,-0.012490551918745041,-0.002443622797727585
1716735788782319000,11.166319091796876,-0.016223907470703125,0.009061560034751892,0.014334920793771744
1716735788792319200,11.1763193359375,-0.025800704956054688,0.009108494967222214,-0.00239485502243042
1716735788802319000,11.186319091796875,-0.018617630004882812,0.013943776488304138,0.00002902001142501831
1716735788812319200,11.1963193359375,0.11785125732421875,-0.01007496565580368,-0.011924684047698975
1716735788822319000,11.206319091796875,0.11545753479003906,0.0184071883559227,0.019436638802289963
1716735788832319200,11.2163193359375,0.005324363708496094,0.001626715064048767,-0.013997040688991547
1716735788842319000,11.226319091796874,-0.09284019470214844,0.006594069302082062,0.005236949771642685
1716735788852319200,11.2363193359375,0.0053253173828125,0.008543405681848526,-0.006835088133811951
1716735788862319000,11.246319091796876,0.06757831573486328,-0.016094166785478592,-0.006799366325139999
1716735788872319200,11.2563193359375,-0.0066432952880859375,0.005451776087284088,0.012435059994459152
1716735788882319000,11.266319091796875,-0.0664987564086914,-0.00654047355055809,-0.004239104688167572
1716735788892319200,11.2763193359375,-0.03537464141845703,0.007990468293428421,0.0077551379799842834
1716735788902319000,11.286319091796875,0.04124164581298828,-0.013691738247871399,0.005210220813751221
1716735788912319200,11.2963193359375,0.0053272247314453125,-0.023170575499534607,0.0005004182457923889
1716735788922319000,11.306319091796874,-0.07368183135986328,-0.013608604669570923,0.007706459611654282
1716735788932319200,11.3163193359375,-0.03777027130126953,0.003803405910730362,0.012267738580703735
1716735788942319000,11.326319091796876,0.03884410858154297,0.023275356739759445,-0.00007649138569831848
1716735788952319200,11.3363193359375,-0.00664520263671875,0.0184037983417511,-0.007361043244600296
1716735788962319000,11.346319091796875,-0.05692291259765625,0.001691080629825592,-0.0001486651599407196
1716735788972319200,11.3563193359375,-0.04494762420654297,-0.0013885274529457092,0.002057839184999466
1716735788982319000,11.366319091796875,0.022093772888183594,-0.016331203281879425,0.008908022195100784
1716735788992319200,11.3763193359375,-0.02100086212158203,0.012314129620790482,0.004098515957593918
1716735789002319000,11.386319091796874,-0.06170177459716797,-0.0021895095705986023,-0.012649811804294586
1716735789012319200,11.3963193359375,-0.02100086212158203,-0.0020169056951999664,0.016041584312915802
1716735789022319000,11.406319091796876,0.014911651611328125,0.005206342786550522,-0.007809057831764221
1716735789032319200,11.4163193359375,-0.021001815795898438,0.005085296928882599,0.011432074010372162
1716735789042319000,11.426319091796875,-0.06409645080566406,0.014653559774160385,0.013787969946861267
1716735789052319200,11.4363193359375,-0.049732208251953125,0.00026727840304374695,0.011478912085294724
1716735789062319000,11.446319091796875,0.0005464553833007812,0.012349013239145279,0.013827972114086151
1716735789072319200,11.4563193359375,-0.018601417541503906,-0.0049034543335437775,0.0035779885947704315
1716735789082319000,11.466319091796874,-0.03296661376953125,-0.004913784563541412,0.006014566868543625
1716735789092319200,11.4763193359375,-0.035358428955078125,0.002057015895843506,0.003125198185443878
1716735789102319000,11.486319091796876,-0.004230499267578125,-0.0004805624485015869,0.009937964379787445
1716735789112319200,11.4963193359375,-0.025777816772460938,0.004299096763134003,-0.00685955211520195
1716735789122319000,11.506319091796875,-0.04972076416015625,-0.009961772710084915,-0.0044486261904239655
1716735789132319200,11.5163193359375,-0.025778770446777344,-0.00029344111680984497,-0.016460444778203964
1716735789142319000,11.526319091796875,-0.013806343078613281,-0.00040789321064949036,-0.023617608472704887
1716735789152319200,11.5363193359375,-0.0066280364990234375,0.0020044930279254913,-0.0014505013823509216
1716735789162319000,11.546319091796875,-0.03296661376953125,0.0019608698785305023,0.0037698596715927124
1716735789172319200,11.5563193359375,-0.02099609375,-0.0003803148865699768,-0.01780986413359642
1716735789182319000,11.566319091796874,-0.028177261352539062,0.004318643361330032,-0.005879063159227371
1716735789192319200,11.5763193359375,-0.00902557373046875,-0.005420848727226257,0.006530541926622391
1716735789202319000,11.586319091796875,-0.04254436492919922,-0.003041476011276245,-0.0030228309333324432
1716735789212319200,11.5963193359375,-0.02817821502685547,-0.00789615511894226,0.008923057466745377
1716735789222319000,11.606319091796875,-0.013813972473144531,0.006566919386386871,-0.014940384775400162
1716735789232319200,11.6163193359375,-0.020997047424316406,0.016086377203464508,0.004226095974445343
1716735789242319000,11.626319091796875,-0.03057384490966797,0.0017680414021015167,0.021015174686908722
1716735789252319200,11.6363193359375,-0.03057098388671875,0.0015034228563308716,0.013550449162721634
1716735789262319000,11.646319091796874,-0.011417388916015625,-0.0009672604501247406,0.0063850171864032745
1716735789272319200,11.6563193359375,-0.02099132537841797,-0.010700259357690811,0.008351828902959824
1716735789282319000,11.666319091796876,-0.01859569549560547,0.008376874029636383,0.0035805925726890564
1716735789292319200,11.6763193359375,-0.037750244140625,0.006135750561952591,-0.003636423498392105
1716735789302319000,11.686319091796875,-0.02099132537841797,-0.0009318292140960693,-0.013239238411188126
1716735789312319200,11.6963193359375,-0.01620006561279297,0.012952327728271484,-0.0062300823628902435
1716735789322319000,11.706319091796875,-0.023383140563964844,-0.0014826953411102295,-0.0036995969712734222
1716735789332319200,11.7163193359375,-0.04253673553466797,-0.008612189441919327,0.001056768000125885
1716735789342319000,11.726319091796874,-0.02817058563232422,0.003399081528186798,-0.015792131423950195
1716735789352319200,11.7363193359375,-0.02338409423828125,0.0032091811299324036,-0.008024215698242188
1716735789362319000,11.746319091796876,-0.03296184539794922,0.020004931837320328,0.0016248337924480438
1716735789372319200,11.7563193359375,-0.01859569549560547,0.0027952194213867188,0.018706701695919037
1716735789382319000,11.766319091796875,-0.013807296752929688,-0.016305286437273026,0.0019152536988258362
1716735789392319200,11.7763193359375,-0.020987510681152344,-0.002189949154853821,0.006216887384653091
1716735789402319000,11.786319091796875,-0.028169631958007812,-0.014114085584878922,0.003852352499961853
1716735789412319200,11.7963193359375,-0.030565261840820312,-0.011615600436925888,-0.0033134818077087402
1716735789422319000,11.806319091796874,-0.03056621551513672,0.0007295459508895874,0.0037447288632392883
1716735789432319200,11.8163193359375,-0.032959938049316406,0.01754191517829895,-0.0034697428345680237
1716735789442319000,11.826319091796876,-0.0353546142578125,0.00561339408159256,-0.005853269249200821
1716735789452319200,11.8363193359375,-0.02817249298095703,-0.0015287548303604126,0.0038150176405906677
1716735789462319000,11.846319091796875,-0.047326087951660156,-0.003937877714633942,0.011021196842193604
