time,seconds_elapsed,z,y,x
1717857504619769000,0.21076904296875,0.004281830508261919,0.009053150191903114,-0.005818208213895559
1717857504629810200,0.22081005859375,0.004009122494608164,0.009322129189968109,-0.004403004422783852
1717857504639852300,0.230852294921875,0.00446984963491559,0.010981544852256775,-0.0052964948117733
1717857504649893400,0.240893310546875,0.006022206041961908,0.007900799624621868,-0.006272276863455772
1717857504659935200,0.250935302734375,0.003992344718426466,0.009182579815387726,-0.0057228668592870235
1717857504669976300,0.260976318359375,0.0037052559200674295,0.007878695614635944,-0.005565740168094635
1717857504680017200,0.27101708984375,0.004572647623717785,0.010104033164680004,-0.006440056022256613
1717857504690059300,0.281059326171875,0.0018687400734052062,0.008704542182385921,-0.005117530468851328
1717857504700100000,0.29110009765625,0.003369963960722089,0.009199623949825764,-0.006042978726327419
1717857504710141200,0.30114111328125,0.0037792918737977743,0.008250473067164421,-0.006327138282358646
1717857504720183000,0.31118310546875,0.005016330163925886,0.008553273975849152,-0.005908489227294922
1717857504730224000,0.32122412109375,0.004197674337774515,0.009313073940575123,-0.007012369576841593
1717857504740266000,0.331265869140625,0.0037641117814928293,0.008726912550628185,-0.006159092765301466
1717857504750307000,0.34130712890625,0.0060080913826823235,0.008478439413011074,-0.004928978625684977
1717857504760348200,0.35134814453125,0.004083424806594849,0.00875061471015215,-0.005400624126195908
1717857504770390300,0.361390380859375,0.003855990944430232,0.009272594004869461,-0.004704474005848169
1717857504780431400,0.371431396484375,0.004481301177293062,0.008431035093963146,-0.005364938173443079
1717857504790473200,0.38147314453125,0.004473045468330383,0.009554356336593628,-0.005423261318355799
1717857504800514300,0.391514404296875,0.003753725439310074,0.007904794998466969,-0.005230448208749294
1717857504810555100,0.40155517578125,0.003498594742268324,0.0088789789006114,-0.005257878918200731
1717857504820597200,0.41159716796875,0.004576376173645258,0.008889365009963512,-0.005327919963747263
1717857504830638000,0.42163818359375,0.0035270904190838337,0.009725064970552921,-0.004634965676814318
1717857504840679200,0.43167919921875,0.003909253980964422,0.00851439218968153,-0.0056954361498355865
1717857504850721000,0.441720947265625,0.005273591727018356,0.00863050576299429,-0.0051905009895563126
1717857504860762000,0.45176220703125,0.0026732811238616705,0.009103749878704548,-0.0036946034524589777
1717857504870804200,0.46180419921875,0.0036724992096424103,0.009877397678792477,-0.006025668233633041
1717857504880846000,0.47184619140625,0.004538825247436762,0.008854744024574757,-0.006138852797448635
1717857504890887000,0.481886962890625,0.004492752719670534,0.010088320821523666,-0.004765992984175682
1717857504900929000,0.491928955078125,0.0038394792936742306,0.011323228478431702,-0.006100769154727459
1717857504910969900,0.501969970703125,0.0033190976828336716,0.007917577400803566,-0.006223274860531092
1717857504921012000,0.512011962890625,0.004890096373856068,0.007979096844792366,-0.005694637540727854
1717857504931052800,0.522052734375,0.0041057956404984,0.010060623288154602,-0.004920456558465958
1717857504941094000,0.532093994140625,0.004175836686044931,0.009156746789813042,-0.005943642929196358
1717857504951136000,0.542135986328125,0.0040887510403990746,0.008688562549650669,-0.006370281334966421
1717857504961177000,0.552177001953125,0.005106078926473856,0.009641176089644432,-0.005958290304988623
1717857504971219000,0.562218994140625,0.0024943165481090546,0.00995995569974184,-0.006323942448943853
1717857504981260000,0.572260009765625,0.003961718175560236,0.01004917174577713,-0.004914863966405392
1717857504991301000,0.582301025390625,0.0035380094777792692,0.00930108968168497,-0.00421285443007946
1717857505001343000,0.592343017578125,0.004327636677771807,0.008869658224284649,-0.005302353762090206
1717857505011384000,0.602384033203125,0.0036099147982895374,0.008464857004582882,-0.006886934395879507
1717857505021426000,0.612426025390625,0.0031726236920803785,0.009737581945955753,-0.0038189729675650597
1717857505031467000,0.622467041015625,0.0038922098465263844,0.010870757512748241,-0.004668787587434053
1717857505041507800,0.6325078125,0.003388073528185487,0.010655573569238186,-0.0046267095021903515
1717857505051550000,0.642550048828125,0.004315918777137995,0.011754128150641918,-0.005088767968118191
1717857505061591000,0.652591064453125,0.0035473306197673082,0.012654010206460953,-0.0038661109283566475
1717857505071632100,0.662632080078125,0.004484763368964195,0.011964784003794193,-0.004085821565240622
1717857505081674000,0.672674072265625,0.003605920122936368,0.011361577548086643,-0.003442135639488697
1717857505091715000,0.682715087890625,0.003181145992130041,0.008052600547671318,-0.007994542829692364
1717857505101757000,0.6927568359375,0.00373108871281147,0.008334362879395485,-0.005234443116933107
1717857505111798000,0.702798095703125,0.0023334617726504803,0.008286425843834877,-0.006274673622101545
1717857505121839000,0.712839111328125,0.002834402257576585,0.008674181997776031,-0.006710633169859648
1717857505131881000,0.722880859375,0.0032493227627128363,0.008711200207471848,-0.006940464023500681
1717857505141922000,0.732922119140625,0.004381699021905661,0.0084249097853899,-0.00631914846599102
1717857505151964000,0.7429638671875,0.005623531062155962,0.008888832293450832,-0.007740211207419634
1717857505162005000,0.7530048828125,0.004303934518247843,0.009017463773488998,-0.005630721338093281
1717857505172045800,0.7630458984375,0.0038868836127221584,0.009605756029486656,-0.006626477465033531
1717857505182088200,0.773088134765625,0.0024317323695868254,0.009858756326138973,-0.0062573631294071674
1717857505192129000,0.78312890625,0.00350445369258523,0.009861685335636139,-0.004549744538962841
1717857505202171100,0.793171142578125,0.00401684595271945,0.01011015847325325,-0.005092496518045664
1717857505212212000,0.8032119140625,0.004244279582053423,0.010566623881459236,-0.006167614832520485
1717857505222253000,0.813253173828125,0.004883438348770142,0.00890614278614521,-0.006770288106054068
1717857505232295000,0.823294921875,0.003494866192340851,0.010090717114508152,-0.005564408842474222
1717857505242336000,0.8333359375,0.005389705300331116,0.007186274044215679,-0.004589425399899483
1717857505252378000,0.843378173828125,0.004306863993406296,0.008441155776381493,-0.005526858381927013
1717857505262419000,0.8534189453125,0.0026674221735447645,0.00812104344367981,-0.006406234111636877
1717857505272460000,0.8634599609375,0.003946538548916578,0.007186806295067072,-0.005249623209238052
1717857505282502000,0.873501953125,0.004299407359212637,0.009192965924739838,-0.003693005535751581
1717857505292543000,0.88354296875,0.004345213528722525,0.009501093067228794,-0.004283161833882332
1717857505302585000,0.893585205078125,0.00427144393324852,0.008898420259356499,-0.0067841364070773125
1717857505312626200,0.903626220703125,0.004336691461503506,0.009636115282773972,-0.005515672732144594
1717857505322667000,0.9136669921875,0.002448244020342827,0.009372995235025883,-0.005569735076278448
1717857505332709000,0.923709228515625,0.004857872147113085,0.009947173297405243,-0.005318865180015564
1717857505342750000,0.93375,0.0026495789643377066,0.007511179428547621,-0.005805158521980047
1717857505352791000,0.943791015625,0.0032551817130297422,0.008419317193329334,-0.004542820155620575
1717857505362833000,0.9538330078125,0.005409146659076214,0.009759419597685337,-0.005790777504444122
1717857505372874000,0.9638740234375,0.006430468522012234,0.008869125507771969,-0.005997172556817532
1717857505382916000,0.973916015625,0.0038155107758939266,0.009007609449326992,-0.007163370493799448
1717857505392957000,0.98395703125,0.003422162029892206,0.008738896809518337,-0.00552339619025588
1717857505402998000,0.993998046875,0.004631237126886845,0.009395631961524487,-0.007001716643571854
1717857505413039900,1.004039794921875,0.003960653208196163,0.008523181080818176,-0.005140167195349932
1717857505423081000,1.0140810546875,0.005334045272320509,0.008599081076681614,-0.006490656174719334
1717857505433123000,1.024123046875,0.003177683800458908,0.008862467482686043,-0.005963616538792849
1717857505443164200,1.0341640625,0.0033305492252111435,0.00803182739764452,-0.006327138282358646
1717857505453205000,1.044205078125,0.005073055624961853,0.007927964441478252,-0.005600627511739731
1717857505463247000,1.0542470703125,0.0034376082476228476,0.007481884676963091,-0.004346545320004225
1717857505473288000,1.064287841796875,0.005845372099429369,0.009246495552361012,-0.006116748321801424
1717857505483330000,1.074330078125,0.0038069887086749077,0.009589776396751404,-0.004060255363583565
1717857505493371100,1.08437109375,0.004432565066963434,0.009616408497095108,-0.005548429675400257
1717857505503412000,1.094411865234375,0.004406199790537357,0.008071508258581161,-0.004597947467118502
1717857505513454000,1.1044541015625,0.00595562718808651,0.008271511644124985,-0.004999818746000528
1717857505523495000,1.114494873046875,0.005282380152493715,0.009278719313442707,-0.005584116093814373
1717857505533536000,1.124535888671875,0.004391552414745092,0.0073287528939545155,-0.006435795221477747
1717857505543578000,1.134578125,0.004098871257156134,0.008823851123452187,-0.005908489227294922
1717857505553619200,1.144619140625,0.004318848252296448,0.008828911930322647,-0.005505552981048822
1717857505563661000,1.1546611328125,0.005381715949624777,0.010173008777201176,-0.005059473216533661
1717857505573702100,1.1647021484375,0.004900216590613127,0.00974610447883606,-0.005270928610116243
1717857505583743000,1.174742919921875,0.004550543148070574,0.008766327053308487,-0.004735100548714399
1717857505593785000,1.18478515625,0.0044080642983317375,0.0081514036282897,-0.00657641002908349
1717857505603826000,1.194825927734375,0.00404614070430398,0.00959856528788805,-0.006598780397325754
1717857505613868000,1.204867919921875,0.0028221518732607365,0.008842493407428265,-0.006856308318674564
1717857505623909000,1.2149091796875,0.0046722497791051865,0.008141282945871353,-0.00558092026039958
1717857505633950000,1.224949951171875,0.005083441734313965,0.008924518711864948,-0.005505286622792482
1717857505643992000,1.234991943359375,0.005120726302266121,0.009243032895028591,-0.004432565066963434
1717857505654033000,1.245032958984375,0.005209675524383783,0.008713862858712673,-0.005311408545821905
1717857505664074000,1.255073974609375,0.0024173513520509005,0.008949286304414272,-0.0062757390551269054
1717857505674116000,1.2651162109375,0.0054845139384269714,0.009561014361679554,-0.005742840468883514
1717857505684157200,1.2751572265625,0.0035537220537662506,0.008773517794907093,-0.005398493725806475
1717857505694199000,1.285198974609375,0.004021639470010996,0.006604905705899,-0.004865062423050404
1717857505704240000,1.295240234375,0.004352936986833811,0.00920095480978489,-0.005253884010016918
1717857505714281000,1.305281005859375,0.004052798729389906,0.01062121894210577,-0.0046448190696537495
1717857505724323000,1.315322998046875,0.004375307355076075,0.010980213060975075,-0.005264536943286657
1717857505734364200,1.3253642578125,0.005633118096739054,0.00974450632929802,-0.0043832967057824135
1717857505744405000,1.335405029296875,0.0035947347059845924,0.0095671396702528,-0.005599296186119318
1717857505754447000,1.345447021484375,0.004941761493682861,0.008611331693828106,-0.0052056810818612576
1717857505764488000,1.355488037109375,0.003849865635856986,0.010420949198305607,-0.005511411931365728
1717857505774530000,1.365530029296875,0.003216033335775137,0.009256082586944103,-0.004780107643455267
1717857505784571000,1.37557080078125,0.0032732912804931402,0.006295446306467056,-0.008103200234472752
1717857505794612000,1.385612060546875,0.0037614486645907164,0.008067513816058636,-0.0073564499616622925
1717857505804654000,1.395654052734375,0.003965180367231369,0.0067878649570047855,-0.007642739452421665
1717857505814695200,1.405695068359375,0.004172108136117458,0.008829710073769093,-0.005111405160278082
1717857505824736000,1.415736083984375,0.004576642066240311,0.010633203200995922,-0.006179865449666977
1717857505834778000,1.425778076171875,0.004099403973668814,0.009404420852661133,-0.007138337008655071
1717857505844819000,1.43581884765625,0.005148689262568951,0.009268333204090595,-0.006958573590964079
1717857505854861000,1.445861083984375,0.004072505980730057,0.008054464124143124,-0.0054333810694515705
1717857505864902100,1.455902099609375,0.005052282940596342,0.010979413986206055,-0.004592088516801596
1717857505874943000,1.46594287109375,0.003817108692601323,0.009855293668806553,-0.004282629117369652
1717857505884984300,1.475984375,0.004576109815388918,0.010064885020256042,-0.005945506971329451
1717857505895025200,1.486025146484375,0.002627208363264799,0.00809308048337698,-0.006311425473541021
1717857505905067300,1.4960673828125,0.005321261938661337,0.010128001682460308,-0.006537261418998241
1717857505915108000,1.506108154296875,0.005087703000754118,0.008799350820481777,-0.006813431158661842
1717857505925149200,1.516149169921875,0.003177683800458908,0.006879477761685848,-0.00373108871281147
1717857505935191000,1.52619091796875,0.004069310147315264,0.0065561700612306595,-0.005620335228741169
1717857505945232100,1.536232177734375,0.0044259075075387955,0.00815220270305872,-0.006938333623111248
1717857505955273200,1.546273193359375,0.004560397006571293,0.00920441746711731,-0.004831506870687008
1717857505965315000,1.556315185546875,0.003305515507236123,0.009441439062356949,-0.0065170214511454105
1717857505975356200,1.566356201171875,0.00481339730322361,0.010671286843717098,-0.006046707276254892
1717857505985398000,1.57639794921875,0.00509888818487525,0.009603092446923256,-0.0063124909065663815
1717857505995439000,1.586439208984375,0.0033398703671991825,0.009130647405982018,-0.005979862064123154
1717857506005480000,1.59647998046875,0.006359894759953022,0.010814297944307327,-0.005357747431844473
1717857506015522300,1.606522216796875,0.003900199430063367,0.009063003584742546,-0.004717523697763681
1717857506025563100,1.616563232421875,0.0034674357157200575,0.008473645895719528,-0.005309544038027525
1717857506035604200,1.626604248046875,0.004582501482218504,0.008777512237429619,-0.007396929897367954
1717857506045646000,1.63664599609375,0.005307413637638092,0.007814247161149979,-0.00415399856865406
1717857506055687200,1.646687255859375,0.0037081853952258825,0.008713330142199993,-0.006254167295992374
1717857506065728300,1.656728271484375,0.004506334662437439,0.009523730725049973,-0.005037369206547737
1717857506075770000,1.66677001953125,0.0035364115610718727,0.008236091583967209,-0.0056919739581644535
1717857506085811200,1.676811279296875,0.004263720940798521,0.009247826412320137,-0.0065590995363891125
1717857506095853000,1.68685302734375,0.004269579891115427,0.008775382302701473,-0.006475742440670729
1717857506105894100,1.69689404296875,0.003739877138286829,0.009504822082817554,-0.005533515941351652
1717857506115935000,1.70693505859375,0.004067711997777224,0.009342102333903313,-0.004625378176569939
1717857506125977000,1.71697705078125,0.002772350562736392,0.008648348972201347,-0.005561213009059429
1717857506136018000,1.727017822265625,0.004562261048704386,0.008559132926166058,-0.0073351445607841015
1717857506146059300,1.737059326171875,0.003439472522586584,0.007232879288494587,-0.0062765381298959255
1717857506156101000,1.74710107421875,0.0029286781791597605,0.00887817982584238,-0.005135107319802046
1717857506166142200,1.75714208984375,0.002388855442404747,0.010001234710216522,-0.005645901430398226
1717857506176184000,1.76718408203125,0.002691656816750765,0.00774660287424922,-0.0057614827528595924
1717857506186225200,1.77722509765625,0.003582484321668744,0.00800333172082901,-0.005664810072630644
1717857506196266200,1.787266357421875,0.0036517265252768993,0.008766859769821167,-0.005971073638647795
1717857506206308000,1.79730810546875,0.003882622579112649,0.008611598052084446,-0.006440855097025633
1717857506216349200,1.80734912109375,0.002766491612419486,0.008614793419837952,-0.006703709252178669
1717857506226390000,1.81739013671875,0.003983023576438427,0.008915997110307217,-0.00549276964738965
1717857506236432100,1.82743212890625,0.0037111148703843355,0.008479238487780094,-0.005573197267949581
1717857506246473000,1.837472900390625,0.0041646515019237995,0.008715194649994373,-0.005656288005411625
1717857506256515300,1.847515380859375,0.002730805426836014,0.008313057012856007,-0.006168413441628218
1717857506266556200,1.85755615234375,0.004734035115689039,0.008624114096164703,-0.005368133541196585
1717857506276597200,1.86759716796875,0.0037830201908946037,0.008492288179695606,-0.0065468489192426205
1717857506286639000,1.87763916015625,0.003400590270757675,0.00788588635623455,-0.006086654495447874
1717857506296680200,1.88768017578125,0.003489273600280285,0.009131180122494698,-0.006087187211960554
1717857506306721300,1.89772119140625,0.004965197294950485,0.009072057902812958,-0.0052197957411408424
1717857506316763100,1.90776318359375,0.0034165694378316402,0.007802262902259827,-0.005512743256986141
1717857506326804200,1.91780419921875,0.005088235717266798,0.008557002991437912,-0.006980943959206343
1717857506336846000,1.92784619140625,0.005151618737727404,0.009308280423283577,-0.005155080929398537
1717857506346887200,1.93788720703125,0.0032988577149808407,0.008116782642900944,-0.006457632873207331
1717857506356928000,1.947927978515625,0.0035084483679383993,0.009753295220434666,-0.006520750001072884
1717857506366970000,1.95797021484375,0.0035744947381317616,0.008913866244256496,-0.005367867648601532
1717857506377011000,1.968010986328125,0.003299123840406537,0.009986854158341885,-0.00532499048858881
1717857506387052000,1.978052001953125,0.004474909510463476,0.008808937855064869,-0.005608084611594677
1717857506397094100,1.98809423828125,0.0028871328104287386,0.009739712812006474,-0.005293831694871187
1717857506407135200,1.99813525390625,0.0020362529903650284,0.010793792083859444,-0.005317267496138811
1717857506417177000,2.008177001953125,0.0017781927017495036,0.009048089385032654,-0.006090649403631687
1717857506427218200,2.01821826171875,0.004795820452272892,0.007957525551319122,-0.007150321267545223
1717857506437259300,2.02825927734375,0.0024612934794276953,0.010696586221456528,-0.006007292307913303
1717857506447301000,2.038301025390625,0.004998486954718828,0.008775115944445133,-0.005310076754540205
1717857506457342200,2.04834228515625,0.0038069887086749077,0.009520268067717552,-0.005648298189043999
1717857506467383000,2.058383056640625,0.0043295007199049,0.008102933876216412,-0.005634716246277094
1717857506477425200,2.068425048828125,0.004863464739173651,0.007252852898091078,-0.005626993253827095
1717857506487466000,2.078466064453125,0.003781156148761511,0.009550361894071102,-0.006973753683269024
1717857506497507000,2.088507080078125,0.0029321403708308935,0.009403355419635773,-0.0055028898641467094
1717857506507549000,2.098548828125,0.004114317707717419,0.008579906076192856,-0.004985437728464603
1717857506517590000,2.108590087890625,0.004680505488067865,0.009090966545045376,-0.005143895745277405
1717857506527632100,2.118632080078125,0.0023574302904307842,0.010261692106723785,-0.005694637540727854
1717857506537673200,2.128673095703125,0.0031340080313384533,0.008956743404269218,-0.006586529780179262
1717857506547714300,2.13871435546875,0.004855209030210972,0.009081645868718624,-0.005919408053159714
1717857506557756200,2.148756103515625,0.0027481159195303917,0.007927431724965572,-0.006168147549033165
1717857506567797200,2.15879736328125,0.0037950044497847557,0.008392153307795525,-0.004647482186555862
1717857506577838000,2.168838134765625,0.002740659052506089,0.007949269376695156,-0.005538576282560825
1717857506587880200,2.178880126953125,0.003946804907172918,0.009650230407714844,-0.006853645201772451
1717857506597921000,2.188921142578125,0.004697283264249563,0.009150355122983456,-0.005948702804744244
1717857506607963100,2.198963134765625,0.004449876025319099,0.008961004205048084,-0.005191565956920385
1717857506618004000,2.20900390625,0.0038157771341502666,0.008930644020438194,-0.004977181553840637
1717857506628045000,2.219045166015625,0.004729773849248886,0.008520783856511116,-0.006442452780902386
1717857506638087200,2.229087158203125,0.0037382792215794325,0.008865929208695889,-0.006856041960418224
1717857506648128300,2.239128173828125,0.004433364141732454,0.009318666532635689,-0.005679723806679249
1717857506658169300,2.24916943359375,0.0038543930277228355,0.008555671200156212,-0.005675196181982756
1717857506668211200,2.259211181640625,0.004541488364338875,0.010106164030730724,-0.005349758081138134
1717857506678252300,2.269252197265625,0.003093527862802148,0.011393802240490913,-0.0038775624707341194
1717857506688293000,2.279293212890625,0.003942543640732765,0.010665693320333958,-0.004218180663883686
1717857506698335200,2.289335205078125,0.002838397165760398,0.009268865920603275,-0.005033374298363924
1717857506708376000,2.2993759765625,0.0033044503070414066,0.007465905509889126,-0.007761516608297825
1717857506718418200,2.309418212890625,0.0049433596432209015,0.007292267866432667,-0.008073372766375542
1717857506728459000,2.319458984375,0.0041582598350942135,0.008782572112977505,-0.007504521403461695
1717857506738500000,2.3295,0.0021228056866675615,0.007907724007964134,-0.006673082709312439
1717857506748542000,2.3395419921875,0.004649613052606583,0.010724549181759357,-0.0052232579328119755
1717857506758583000,2.3495830078125,0.00290391081944108,0.010604707524180412,-0.0031382690649479628
1717857506768624000,2.3596240234375,0.003357979701831937,0.00863130483776331,-0.005014199763536453
1717857506778666200,2.369666259765625,0.003447994589805603,0.010803379118442535,-0.004968126770108938
1717857506788707300,2.379707275390625,0.00421232171356678,0.009844641201198101,-0.004785700235515833
1717857506798749200,2.389749267578125,0.004051999654620886,0.009382848627865314,-0.006364156026393175
1717857506808790300,2.399790283203125,0.005076517816632986,0.008012386038899422,-0.005661880597472191
1717857506818831000,2.4098310546875,0.004303135443478823,0.007278152741491795,-0.00672288378700614
1717857506828873200,2.419873291015625,0.003226952161639929,0.00794660672545433,-0.007727694697678089
1717857506838914000,2.4299140625,0.0042144525796175,0.00866006687283516,-0.005815278738737106
1717857506848955100,2.439955078125,0.004805940669029951,0.008131695911288261,-0.005088235717266798
1717857506858997000,2.4499970703125,0.003640541108325124,0.008195611648261547,-0.006817159708589315
1717857506869038000,2.4600380859375,0.004824049770832062,0.00737402681261301,-0.006451773922890425
1717857506879080000,2.470079833984375,0.0034053840208798647,0.009646502323448658,-0.005464540328830481
1717857506889122300,2.480122314453125,0.004044010303914547,0.009809753857553005,-0.005691708065569401
1717857506899163100,2.4901630859375,0.004111121874302626,0.00800253264605999,-0.004987301770597696
1717857506909205200,2.500205322265625,0.00318966805934906,0.009406550787389278,-0.00694845337420702
1717857506919246000,2.51024609375,0.0031017838045954704,0.008802546188235283,-0.0060054282657802105
1717857506929287200,2.520287109375,0.0034437335561960936,0.00930082332342863,-0.004887433256953955
1717857506939329000,2.5303291015625,0.0049343048594892025,0.009329319931566715,-0.00538544449955225
1717857506949370000,2.5403701171875,0.004512992687523365,0.008815862238407135,-0.006740993354469538
1717857506959411200,2.5504111328125,0.0038312235847115517,0.008408132009208202,-0.0063785370439291
1717857506969453000,2.560453125,0.004060255363583565,0.008351140655577183,-0.006712763570249081
1717857506979494100,2.570494140625,0.0017499631503596902,0.007216101046651602,-0.004803543444722891
1717857506989536000,2.580535888671875,0.0030280142091214657,0.008560997433960438,-0.005306348204612732
1717857506999577000,2.5905771484375,0.00478516798466444,0.008481102995574474,-0.0057348511181771755
1717857507009618000,2.600617919921875,0.004351871553808451,0.009274724870920181,-0.005661614239215851
1717857507019660300,2.610660400390625,0.0032647692132741213,0.009827064350247383,-0.005617139395326376
1717857507029701000,2.620701171875,0.0041151163168251514,0.009018528275191784,-0.00621022516861558
1717857507039742200,2.6307421875,0.004470914602279663,0.007714112289249897,-0.006665625609457493
1717857507049784000,2.6407841796875,0.00495081627741456,0.0091157341375947,-0.0062704128213226795
1717857507059825200,2.6508251953125,0.003114833263680339,0.008872054517269135,-0.006912766955792904
1717857507069867000,2.660866943359375,0.004077033139765263,0.008851815015077591,-0.0064837317913770676
1717857507079908000,2.670908203125,0.004062119405716658,0.009337841533124447,-0.0062461779452860355
1717857507089949200,2.68094921875,0.004611263517290354,0.007898403331637383,-0.006108492612838745
1717857507099991000,2.690990966796875,0.0036453348584473133,0.010362626053392887,-0.006674414500594139
1717857507110032100,2.7010322265625,0.004053597338497639,0.009164736606180668,-0.005161472596228123
1717857507120073000,2.711072998046875,0.004260791465640068,0.008833439089357853,-0.005864813458174467
1717857507130115300,2.721115234375,0.003376089269295335,0.009432916529476643,-0.00657641002908349
1717857507140156200,2.73115625,0.004721784498542547,0.008835569024085999,-0.005302087403833866
1717857507150197200,2.741197265625,0.0028277444653213024,0.010158894583582878,-0.006343383342027664
1717857507160239000,2.751239013671875,0.004863997455686331,0.009807622991502285,-0.005851231049746275
1717857507170280200,2.7612802734375,0.00318913534283638,0.00875913631170988,-0.004867459647357464
1717857507180322000,2.771322021484375,0.002817358123138547,0.008450476452708244,-0.007257380057126284
1717857507190363100,2.781363037109375,0.0041401502676308155,0.009339972399175167,-0.006676278542727232
1717857507200404200,2.791404296875,0.00433163158595562,0.007752994541078806,-0.005952431354671717
1717857507210446000,2.801446044921875,0.0035947347059845924,0.009879262186586857,-0.005937251262366772
1717857507220487200,2.811487060546875,0.0041039311327040195,0.008581504225730896,-0.006149238906800747
1717857507230528000,2.821528076171875,0.003469566348940134,0.009040366858243942,-0.005612878128886223
1717857507240570000,2.831570068359375,0.0039265644736588,0.009385778568685055,-0.006105829495936632
1717857507250611000,2.84161083984375,0.002942260354757309,0.008526110090315342,-0.006359362509101629
1717857507260653300,2.8516533203125,0.003213103860616684,0.008169779554009438,-0.006068279035389423
1717857507270694100,2.861694091796875,0.004259726032614708,0.008616391569375992,-0.006514358334243298
1717857507280735200,2.8717353515625,0.004604072775691748,0.008816661313176155,-0.0067657604813575745
1717857507290777000,2.881777099609375,0.003507383167743683,0.00865953415632248,-0.003849599277600646
1717857507300818200,2.891818115234375,0.003656520042568445,0.008742092177271843,-0.005138569511473179
1717857507310859300,2.901859375,0.003447994589805603,0.009182313457131386,-0.0049510826356709
1717857507320901000,2.911901123046875,0.00538384635001421,0.009314139373600483,-0.006749781779944897
1717857507330942200,2.921942138671875,0.005041896365582943,0.010761567391455173,-0.006590791046619415
1717857507340984000,2.931984130859375,0.004623514134436846,0.008383364416658878,-0.005754025653004646
1717857507351025200,2.942025146484375,0.0031103058718144894,0.008314655162394047,-0.005218996666371822
1717857507361066000,2.95206591796875,0.004424042999744415,0.01088620349764824,-0.006673881784081459
1717857507371108000,2.962108154296875,0.004229632206261158,0.009433715604245663,-0.007193997036665678
1717857507381149000,2.97214892578125,0.004942560568451881,0.00999164767563343,-0.0057127466425299644
1717857507391190000,2.98218994140625,0.004489556886255741,0.00968298688530922,-0.006166815757751465
1717857507401232100,2.992232177734375,0.0038863508962094784,0.010692059062421322,-0.005089300684630871
1717857507411273200,3.002273193359375,0.00498064374551177,0.009198558516800404,-0.005888781975954771
1717857507421314300,3.012314208984375,0.003608849598094821,0.009637713432312012,-0.0065100970678031445
1717857507431356200,3.022356201171875,0.004770254250615835,0.009732788428664207,-0.0060152821242809296
1717857507441397200,3.032397216796875,0.004576109815388918,0.008309595286846161,-0.006275472696870565
1717857507451439000,3.042439208984375,0.0035595810040831566,0.008695486932992935,-0.005061071366071701
1717857507461480200,3.052480224609375,0.0037414750549942255,0.009162605740129948,-0.005943909287452698
1717857507471521000,3.06252099609375,0.004655472002923489,0.008025435730814934,-0.006518619135022163
1717857507481563100,3.072563232421875,0.002010686555877328,0.0085452850908041,-0.006396380253136158
1717857507491604000,3.08260400390625,0.0041249701753258705,0.010384996421635151,-0.008184160105884075
1717857507501645000,3.09264501953125,0.00376064982265234,0.009394566528499126,-0.00440912926569581
1717857507511687200,3.102687255859375,0.003866909770295024,0.009099755436182022,-0.005169195588678122
1717857507521728000,3.11272802734375,0.003703924361616373,0.010814297944307327,-0.00390312890522182
1717857507531769000,3.12276904296875,0.004450940992683172,0.008271511644124985,-0.007132744416594505
1717857507541811200,3.132811279296875,0.003625893732532859,0.008901349268853664,-0.005932990461587906
1717857507551852300,3.142852294921875,0.005136971361935139,0.008833172731101513,-0.003623763332143426
1717857507561894100,3.15289404296875,0.003993942867964506,0.008883772417902946,-0.005813680589199066
1717857507571935200,3.162935302734375,0.003379817819222808,0.00899615790694952,-0.0067599015310406685
1717857507581976000,3.17297607421875,0.0030341395176947117,0.009408681653439999,-0.006480003707110882
1717857507592018200,3.18301806640625,0.0029891319572925568,0.011769840493798256,-0.0038373488932847977
1717857507602059000,3.19305908203125,0.004506068304181099,0.011693940497934818,-0.00478383619338274
1717857507612100000,3.20310009765625,0.003924700431525707,0.010943461209535599,-0.005372394807636738
1717857507622142000,3.213141845703125,0.0025779400020837784,0.006938067264854908,-0.008410262875258923
1717857507632183000,3.22318310546875,0.004704207647591829,0.005833654198795557,-0.008481902070343494
1717857507642225200,3.23322509765625,0.0027113643009215593,0.007394533138722181,-0.007574296556413174
1717857507652266200,3.243266357421875,0.00478463526815176,0.008363391272723675,-0.006733536254614592
1717857507662307300,3.253307373046875,0.004086087923496962,0.010488327592611313,-0.0054789213463664055
1717857507672349200,3.26334912109375,0.0039292280562222,0.009224656969308853,-0.0062275356613099575
1717857507682390300,3.273390380859375,0.004495149478316307,0.009304552339017391,-0.005271993577480316
1717857507692431000,3.28343115234375,0.003591006388887763,0.009394301101565361,-0.006077333353459835
1717857507702473200,3.29347314453125,0.0043835630640387535,0.010335994884371758,-0.004280498716980219
1717857507712514000,3.30351416015625,0.0035065840929746628,0.009355951100587845,-0.006185724399983883
1717857507722555100,3.31355517578125,0.0036064526066184044,0.008160990662872791,-0.005274656694382429
1717857507732597000,3.323596923828125,0.003897003596648574,0.008645419962704182,-0.0065100970678031445
1717857507742638000,3.33363818359375,0.003924434073269367,0.009250489994883537,-0.00640863087028265
1717857507752680000,3.343679931640625,0.0020445086993277073,0.007851798087358475,-0.006158293690532446
1717857507762721000,3.353720947265625,0.004827511962503195,0.0091157341375947,-0.005893575493246317
1717857507772762000,3.36376220703125,0.003480751533061266,0.008142614737153053,-0.0049409628845751286
1717857507782804200,3.37380419921875,0.00373002327978611,0.008190551772713661,-0.00583711639046669
1717857507792845300,3.38384521484375,0.0021427792962640524,0.009846772067248821,-0.005914348177611828
1717857507802886100,3.39388623046875,0.00529702752828598,0.0094520915299654,-0.005902363918721676
1717857507812928300,3.40392822265625,0.0032029838766902685,0.007815312594175339,-0.00503949960693717
1717857507822969000,3.413968994140625,0.00301736150868237,0.009355152025818825,-0.005065598525106907
1717857507833011200,3.42401123046875,0.004582767374813557,0.0097463708370924,-0.005225121974945068
1717857507843052000,3.434052001953125,0.004169445019215345,0.009639844298362732,-0.006059490609914064
1717857507853093000,3.444093017578125,0.004756139125674963,0.008621717803180218,-0.004382231738418341
1717857507863135000,3.454135009765625,0.0027395938523113728,0.008105331100523472,-0.005660016089677811
1717857507873176000,3.464176025390625,0.002838397165760398,0.008665659464895725,-0.005961752496659756
1717857507883216400,3.47421630859375,0.0017387778498232365,0.009694971144199371,-0.006381466519087553
1717857507893258200,3.48425830078125,0.002877279184758663,0.00833596009761095,-0.005506617948412895
1717857507903299300,3.49429931640625,0.0034559841733425856,0.009276323020458221,-0.006600910797715187
1717857507913340400,3.50434033203125,0.003454652614891529,0.009981261566281319,-0.00495188171043992
1717857507923382300,3.51438232421875,0.004606469534337521,0.009705091826617718,-0.0052200620993971825
1717857507933423400,3.52442333984375,0.0029023129027336836,0.00729413190856576,-0.006952714640647173
1717857507943465200,3.53446533203125,0.004576109815388918,0.009548231028020382,-0.004904477391391993
1717857507953506300,3.54450634765625,0.004690092988312244,0.008114385418593884,-0.005046157632023096
1717857507963547100,3.554547119140625,0.00230842805467546,0.008441155776381493,-0.006250172853469849
1717857507973589200,3.56458935546875,0.0039854203350842,0.010159692727029324,-0.0050701261498034
1717857507983630000,3.574630126953125,0.0041366880759596825,0.009154349565505981,-0.006223807577043772
1717857507993671200,3.584671142578125,0.0035606464371085167,0.008280034177005291,-0.004503405187278986
1717857508003713300,3.59471337890625,0.004138552118092775,0.00974530540406704,-0.008312790654599667
1717857508013754400,3.60475439453125,0.0036602485924959183,0.007921040058135986,-0.005372394807636738
1717857508023796200,3.614796142578125,0.003326820908114314,0.00782489962875843,-0.007201986387372017
1717857508033837300,3.62483740234375,0.004019509069621563,0.009341835975646973,-0.005834719631820917
1717857508043878400,3.63487841796875,0.0034149715211242437,0.00811971165239811,-0.006983341183513403
1717857508053920300,3.644920166015625,0.002231196267530322,0.009692308492958546,-0.00657694274559617
1717857508063961300,3.65496142578125,0.0032658344134688377,0.00851279404014349,-0.005345496814697981
1717857508074002200,3.665002197265625,0.002323075430467725,0.009440373629331589,-0.005921538453549147
1717857508084044300,3.675044189453125,0.004791026934981346,0.009070992469787598,-0.005657352972775698
1717857508094085000,3.685085205078125,0.0033902039285749197,0.008808671496808529,-0.00580862071365118
1717857508104126200,3.695126220703125,0.003111903788521886,0.010003099218010902,-0.00407596817240119
1717857508114168000,3.70516796875,0.00535588338971138,0.009779926389455795,-0.005148955620825291
1717857508124209200,3.715209228515625,0.0041127195581793785,0.009913883171975613,-0.006315952632576227
1717857508134251300,3.725251220703125,0.003963316325098276,0.009301356039941311,-0.0058080879971385
1717857508144292400,3.735292236328125,0.004381166305392981,0.008857673965394497,-0.005909820552915335
1717857508154333400,3.74533349609375,0.003715642262250185,0.008992429822683334,-0.006916761863976717
1717857508164375300,3.755375244140625,0.003073820611461997,0.008565524592995644,-0.004752943757921457
1717857508174416400,3.76541650390625,0.004055195488035679,0.010468353517353535,-0.005667739547789097
1717857508184457200,3.775457275390625,0.00487172044813633,0.00884808599948883,-0.003753725439310074
1717857508194499300,3.785499267578125,0.004750812891870737,0.008261924609541893,-0.006048304960131645
1717857508204540200,3.7955400390625,0.0044014062732458115,0.008309861645102501,-0.006927680689841509
1717857508214582300,3.805582275390625,0.005494633689522743,0.007130879908800125,-0.0057678744196891785
1717857508224623000,3.815623046875,0.0030274814926087856,0.007699464913457632,-0.005328452680259943
1717857508234664200,3.825664306640625,0.004429635591804981,0.010231864638626575,-0.0070496536791324615
1717857508244706300,3.835706298828125,0.0035683694295585155,0.009295230731368065,-0.005401156842708588
1717857508254747400,3.845747314453125,0.004765460267663002,0.007179882377386093,-0.005898901727050543
1717857508264788500,3.85578857421875,0.0038163098506629467,0.009167399257421494,-0.005613677203655243
1717857508274830300,3.865830322265625,0.004567853640764952,0.009114402346313,-0.005531385540962219
1717857508284871400,3.875871337890625,0.0033305492252111435,0.00851678941398859,-0.005556685384362936
1717857508294912300,3.885912353515625,0.004998220596462488,0.008902148343622684,-0.004802212119102478
1717857508304954400,3.895954345703125,0.003960120491683483,0.008409463800489902,-0.004972121678292751
1717857508314995200,3.9059951171875,0.0030341395176947117,0.008064850233495235,-0.0065343319438397884
1717857508325037300,3.916037353515625,0.0039084553718566895,0.008644088171422482,-0.005278651602566242
1717857508335078100,3.926078125,0.004399542231112719,0.008913866244256496,-0.006737264804542065
1717857508345119200,3.936119140625,0.004460528492927551,0.010730674490332603,-0.005919141694903374
1717857508355161000,3.9461611328125,0.0043894220143556595,0.009994843043386936,-0.006867759861052036
1717857508365202200,3.9562021484375,0.0041310954838991165,0.009543703868985176,-0.006228867452591658
1717857508375243300,3.9662431640625,0.0027973842807114124,0.008869924582540989,-0.006359628401696682
1717857508385285400,3.976285400390625,0.003757453989237547,0.009162872098386288,-0.00637880340218544
1717857508395326500,3.986326416015625,0.00350392097607255,0.0075913406908512115,-0.005304484162479639
1717857508405368300,3.996368408203125,0.0033135050907731056,0.008419583551585674,-0.005364405456930399
1717857508415409400,4.006409423828125,0.0036069853231310844,0.009497897699475288,-0.006080262828618288
1717857508425450200,4.0164501953125,0.0046781087294220924,0.00939083844423294,-0.0054397727362811565
1717857508435492400,4.026492431640625,0.002083390951156616,0.008289354853332043,-0.006615824531763792
1717857508445533200,4.036533203125,0.00580728892236948,0.00920601561665535,-0.006530603393912315
1717857508455574300,4.04657421875,0.003478088416159153,0.008905078284442425,-0.005953230429440737
1717857508465616100,4.0566162109375,0.004305532667785883,0.007773234508931637,-0.00589703768491745
1717857508475657200,4.0666572265625,0.004261590540409088,0.00942226406186819,-0.0067660268396139145
1717857508485698300,4.0766982421875,0.0041334922425448895,0.009259277954697609,-0.005723665934056044
1717857508495740200,4.086740234375,0.002877279184758663,0.010183128528296947,-0.0043803672306239605
1717857508505781200,4.09678125,0.0046213832683861256,0.010432400740683079,-0.003808586625382304
1717857508515823400,4.1068232421875,0.004416320007294416,0.010762632824480534,-0.004247741773724556
1717857508525864400,4.116864501953125,0.003352387109771371,0.008734636008739471,-0.0036450685001909733
1717857508535905300,4.1269052734375,0.004290086217224598,0.006909837480634451,-0.007954861968755722
1717857508545947400,4.136947509765625,0.004070641472935677,0.0062424493953585625,-0.009632387198507786
1717857508555988200,4.14698828125,0.004137753508985043,0.0073383403941988945,-0.00723634148016572
1717857508566029300,4.157029296875,0.002980343531817198,0.010275274515151978,-0.005579588934779167
1717857508576071200,4.1670712890625,0.0033806166611611843,0.009602826088666916,-0.00535614974796772
1717857508586112300,4.1771123046875,0.004068244714289904,0.011759720742702484,-0.004120975267142057
1717857508596153300,4.1871533203125,0.0037055222783237696,0.009848369285464287,-0.005788380745798349
1717857508606195200,4.1971953125,0.003590473672375083,0.008080030791461468,-0.007384412921965122
1717857508616236300,4.207236328125,0.003534547286108136,0.009786584414541721,-0.005033374298363924
1717857508626278100,4.217278076171875,0.005046690348535776,0.010889398865401745,-0.005998503882437944
1717857508636319500,4.227319580078125,0.0038160434924066067,0.008578041568398476,-0.0057564228773117065
1717857508646360300,4.2373603515625,0.0025427863001823425,0.006311425473541021,-0.007297327741980553
1717857508656402400,4.24740234375,0.0026256104465574026,0.007951666601002216,-0.006313023157417774
1717857508666443300,4.257443359375,0.0036850159522145987,0.008667523972690105,-0.006188920233398676
1717857508676484400,4.267484375,0.003769438248127699,0.00974557176232338,-0.004634166602045298
1717857508686526200,4.277526123046875,0.0033396040089428425,0.009110674262046814,-0.005787315312772989
1717857508696567300,4.2875673828125,0.0031220237724483013,0.008371646516025066,-0.00592659879475832
1717857508706609200,4.297609130859375,0.0029619678389281034,0.008376706391572952,-0.005634982604533434
1717857508716650200,4.307650146484375,0.004974784795194864,0.009501625783741474,-0.006609433330595493
1717857508726691300,4.31769140625,0.004945223685353994,0.0086643286049366,-0.005991047248244286
1717857508736733200,4.327733154296875,0.0049007488414645195,0.007730357814580202,-0.005973204039037228
1717857508746774300,4.337774169921875,0.0031342741567641497,0.008471515029668808,-0.006417419295758009
1717857508756815000,4.347815185546875,0.004466920159757137,0.009476592764258385,-0.005519401282072067
1717857508766857500,4.357857421875,0.003784351982176304,0.008435030467808247,-0.007112504448741674
1717857508776898300,4.367898193359375,0.004749481566250324,0.009345032274723053,-0.005606486462056637
1717857508786939400,4.377939453125,0.004204598721116781,0.008510397747159004,-0.005879993550479412
1717857508796981200,4.387981201171875,0.004505536053329706,0.008162588812410831,-0.00643686018884182
1717857508807022300,4.398022216796875,0.0036519928835332394,0.007437409833073616,-0.00646562222391367
1717857508817064200,4.408064208984375,0.0034823494497686625,0.009532785043120384,-0.006167614832520485
1717857508827105300,4.418105224609375,0.004032026045024395,0.009407616220414639,-0.0065290057100355625
1717857508837146400,4.428146484375,0.004909005016088486,0.009094960987567902,-0.0068176924251019955
1717857508847188200,4.438188232421875,0.004493019077926874,0.008134625852108002,-0.006222475785762072
1717857508857229300,4.448229248046875,0.004560663364827633,0.00902491994202137,-0.005820871330797672
1717857508867270100,4.458270263671875,0.004519917070865631,0.008137554861605167,-0.005081311333924532
1717857508877312300,4.468312255859375,0.003579821204766631,0.00905661191791296,-0.007252852898091078
1717857508887355100,4.478355224609375,0.0036738307680934668,0.00911280419677496,-0.00618172949180007
1717857508897396000,4.48839599609375,0.0034091125708073378,0.008490157313644886,-0.006326339207589626
1717857508907438000,4.49843798828125,0.003418966196477413,0.009972739033401012,-0.005939115304499865
1717857508917479000,4.50847900390625,0.00421391986310482,0.008988169021904469,-0.005045624915510416
1717857508927521000,4.51852099609375,0.005185707006603479,0.00812210887670517,-0.007471498567610979
1717857508937562000,4.52856201171875,0.004205397795885801,0.009580455720424652,-0.006617689039558172
1717857508947603000,4.53860302734375,0.004993693437427282,0.00935302209109068,-0.0056712012737989426
1717857508957645000,4.54864501953125,0.003148389048874378,0.007931958884000778,-0.006412625312805176
1717857508967686100,4.55868603515625,0.004563326481729746,0.007766576483845711,-0.005086371209472418
1717857508977727200,4.568727294921875,0.004700212739408016,0.009406019002199173,-0.00569969741627574
1717857508987769000,4.57876904296875,0.004503138829022646,0.009498164057731628,-0.004282895475625992
1717857508997810200,4.58881005859375,0.00392762990668416,0.008978048339486122,-0.006144179031252861
1717857509007852000,4.59885205078125,0.0035167040769010782,0.009076319634914398,-0.006220611743628979
1717857509017893000,4.60889306640625,0.00484322477132082,0.008439291268587112,-0.005182777531445026
1717857509027934000,4.618933837890625,0.005262938793748617,0.007440872024744749,-0.0054488275200128555
1717857509037976000,4.62897607421875,0.003719370812177658,0.007696002721786499,-0.006070675794035196
1717857509048017200,4.63901708984375,0.003215766977518797,0.010066215880215168,-0.006426740437746048
1717857509058058000,4.64905810546875,0.002234392100945115,0.00875061471015215,-0.005361475981771946
1717857509068100000,4.65910009765625,0.00458569684997201,0.008128500543534756,-0.0051835766062140465
1717857509078141000,4.669140869140625,0.005478122271597385,0.008245146833360195,-0.005894108209758997
1717857509088182000,4.67918212890625,0.004846686962991953,0.009154083207249641,-0.005589708685874939
1717857509098224000,4.68922412109375,0.0029372002463787794,0.00833782460540533,-0.006581203546375036
1717857509108265200,4.69926513671875,0.004244545940309763,0.008528773672878742,-0.00440966198220849
1717857509118307000,4.70930712890625,0.002779008587822318,0.008674714714288712,-0.0070738885551691055
1717857509128348200,4.71934814453125,0.004313788376748562,0.008627576753497124,-0.006163619924336672
1717857509138389000,4.729388916015625,0.004771585576236248,0.00814927276223898,-0.005194229539483786
1717857509148431000,4.73943115234375,0.0030000510159879923,0.009579923003911972,-0.005950034596025944
1717857509158472000,4.749471923828125,0.004573712591081858,0.008349542506039143,-0.006443251855671406
1717857509168513000,4.759512939453125,0.004522580187767744,0.00948005449026823,-0.00449781259521842
1717857509178555100,4.76955517578125,0.005980394314974546,0.008379902690649033,-0.006155097857117653
1717857509188596000,4.779595947265625,0.0035167040769010782,0.008626777678728104,-0.005320196971297264
1717857509198638000,4.78963818359375,0.0028543761000037193,0.008673382923007011,-0.006372678093612194
1717857509208679000,4.799678955078125,0.0036546560004353523,0.007951133884489536,-0.006922620814293623
1717857509218720000,4.809719970703125,0.003275688039138913,0.0083660539239645,-0.005724198184907436
1717857509228762000,4.81976220703125,0.004989432170987129,0.00896579772233963,-0.004906075540930033
1717857509238803200,4.82980322265625,0.005423261318355799,0.009298693388700485,-0.005543902516365051
1717857509248844000,4.839843994140625,0.005638178437948227,0.010691259987652302,-0.006622748915106058
1717857509258886100,4.84988623046875,0.00315930787473917,0.008678176440298557,-0.005587311927229166
1717857509268927000,4.859927001953125,0.004796086810529232,0.009199890308082104,-0.003944674041122198
1717857509278968000,4.869968017578125,0.0029023129027336836,0.008400941267609596,-0.005841644015163183
1717857509289010000,4.880010009765625,0.0034940673504024744,0.008558867499232292,-0.005587311927229166
1717857509299051000,4.890051025390625,0.0035422705113887787,0.008093879558146,-0.006840861868113279
1717857509309093000,4.900093017578125,0.004180896561592817,0.007339405361562967,-0.006607302464544773
1717857509319134000,4.910134033203125,0.003173955250531435,0.00836685299873352,-0.005302886478602886
1717857509329175000,4.920175048828125,0.00430233683437109,0.008531169965863228,-0.005004878621548414
1717857509339217200,4.930217041015625,0.003911917097866535,0.00911493506282568,-0.006706106010824442
1717857509349258200,4.94025830078125,0.004005660768598318,0.008301605470478535,-0.0060182115994393826
1717857509359299000,4.950299072265625,0.004043211229145527,0.008957542479038239,-0.006651244591921568
1717857509369341200,4.960341064453125,0.0032357405871152878,0.009099755436182022,-0.006095442920923233
1717857509379382000,4.970382080078125,0.0038743666373193264,0.00827763695269823,-0.0068144965916872025
1717857509389423000,4.980423095703125,0.003964115399867296,0.007834487594664097,-0.006417419295758009
1717857509399465000,4.99046484375,0.0035606464371085167,0.008467520587146282,-0.006161755882203579
1717857509409506000,5.000506103515625,0.0036850159522145987,0.009941580705344677,-0.006043245084583759
1717857509419548200,5.010548095703125,0.003406981937587261,0.011388209648430347,-0.002892192918807268
1717857509429589000,5.020589111328125,0.0024791366886347532,0.009254484437406063,-0.004637096077203751
1717857509439630000,5.030630126953125,0.005884787067770958,0.009808688424527645,-0.004976116586476564
1717857509449672000,5.040671875,0.0034293525386601686,0.00589757040143013,-0.0070222229696810246
1717857509459713000,5.050713134765625,0.004841094370931387,0.008037419989705086,-0.007156978826969862
1717857509469753900,5.06075390625,0.004193413536995649,0.008616924285888672,-0.00620995881035924
1717857509479796200,5.070796142578125,0.00370179396122694,0.008533567190170288,-0.006439256947487593
1717857509489837000,5.080837158203125,0.0019124159589409828,0.00962839275598526,-0.004761199466884136
1717857509499878100,5.090878173828125,0.0031302794814109802,0.011034009046852589,-0.004555603489279747
1717857509509920000,5.100919921875,0.005615807604044676,0.009368468075990677,-0.006554571911692619
1717857509519961000,5.110961181640625,0.004205131437629461,0.01022973470389843,-0.006067746318876743
1717857509530003000,5.1210029296875,0.005408880300819874,0.008948220871388912,-0.006443251855671406
1717857509540044000,5.1310439453125,0.004436559975147247,0.0076280920766294,-0.006399842444807291
1717857509550085000,5.141085205078125,0.003775030840188265,0.008226238191127777,-0.007839014753699303
1717857509560127000,5.151126953125,0.004051733296364546,0.009491506032645702,-0.003914846573024988
1717857509570168000,5.16116796875,0.003084206720814109,0.009927998296916485,-0.006925017572939396
1717857509580209000,5.171208984375,0.0037092508282512426,0.008616657927632332,-0.00566880451515317
1717857509590251000,5.1812509765625,0.00418302696198225,0.009761284105479717,-0.005072256550192833
1717857509600291800,5.191291748046875,0.00509942090138793,0.008319448679685593,-0.006040049251168966
1717857509610333000,5.2013330078125,0.005917544011026621,0.009161540307104588,-0.006457632873207331
1717857509620375000,5.211375,0.005557750817388296,0.008567921817302704,-0.006724747829139233
1717857509630416100,5.221416015625,0.003352120751515031,0.009795106016099453,-0.005685849115252495
1717857509640458000,5.2314580078125,0.004284759983420372,0.010305101983249187,-0.005229915492236614
1717857509650499000,5.2414990234375,0.003192863892763853,0.01017087884247303,-0.007196926511824131
1717857509660540200,5.2515400390625,0.0024889903143048286,0.008109059184789658,-0.005811283830553293
1717857509670582000,5.26158203125,0.0040826257318258286,0.008610532619059086,-0.004893025849014521
1717857509680623000,5.271623046875,0.004596349783241749,0.009615875780582428,-0.005883455276489258
1717857509690664000,5.281663818359375,0.0023307986557483673,0.00920335203409195,-0.006312756799161434
1717857509700706000,5.2917060546875,0.004757470916956663,0.00908617302775383,-0.006208094768226147
1717857509710747000,5.301746826171875,0.004083158448338509,0.008988435380160809,-0.005533515941351652
1717857509720788000,5.3117880859375,0.0037819549906998873,0.008353536948561668,-0.006058691535145044
1717857509730830000,5.321830078125,0.004370513837784529,0.009102684445679188,-0.006047506351023912
1717857509740871200,5.33187109375,0.0029292108956724405,0.008948753587901592,-0.004924451000988483
1717857509750913000,5.3419130859375,0.0036543896421790123,0.008618255145847797,-0.008057394064962864
1717857509760954000,5.3519541015625,0.004810201469808817,0.009215869009494781,-0.005206213798373938
1717857509770995200,5.3619951171875,0.0034266894217580557,0.00920281931757927,-0.007227020338177681
1717857509781037000,5.372037109375,0.004808870144188404,0.008973521180450916,-0.005584382452070713
1717857509791078100,5.382078125,0.003692206460982561,0.009247560054063797,-0.00643712654709816
1717857509801119000,5.392118896484375,0.004530303180217743,0.007425425574183464,-0.005657086614519358
1717857509811161000,5.4021611328125,0.00367170013487339,0.009543703868985176,-0.005422728601843119
1717857509821202000,5.412201904296875,0.004977181553840637,0.008195078931748867,-0.005456550512462854
1717857509831243000,5.422242919921875,0.004295146092772484,0.009978597983717918,-0.005437642335891724
1717857509841284900,5.432284912109375,0.0041068606078624725,0.008843292482197285,-0.0062491074204444885
1717857509851326000,5.442325927734375,0.0035960664972662926,0.009952499531209469,-0.006647782865911722
1717857509861368000,5.4523681640625,0.0021435783710330725,0.008673649281263351,-0.004736698232591152
1717857509871409200,5.4624091796875,0.004583566449582577,0.009517072699964046,-0.0054640076123178005
1717857509881450200,5.4724501953125,0.0037758296821266413,0.008873919025063515,-0.005316468421369791
1717857509891490600,5.482490478515625,0.005408081226050854,0.008618255145847797,-0.006718888878822327
1717857509901531400,5.492531494140625,0.004817658569663763,0.00782862864434719,-0.006931142881512642
1717857509911572500,5.502572509765625,0.0041699777357280254,0.009988452307879925,-0.00635004136711359
1717857509921614300,5.5126142578125,0.006108226254582405,0.009545302018523216,-0.005376123357564211
1717857509931655400,5.522655517578125,0.004650411661714315,0.008796687237918377,-0.00632048025727272
1717857509941697300,5.532697265625,0.003653058083727956,0.008683236315846443,-0.005741775035858154
1717857509951738400,5.54273828125,0.00401737866923213,0.009328787215054035,-0.006582535337656736
1717857509961779500,5.552779541015625,0.00339153571985662,0.00905874278396368,-0.005632852204144001
1717857509971821300,5.5628212890625,0.004769987892359495,0.008647018112242222,-0.007050186395645142
1717857509981862400,5.5728623046875,0.004347610287368298,0.009762882255017757,-0.005514075048267841
1717857509991903200,5.5829033203125,0.0029878003988415003,0.009817743673920631,-0.004945223685353994
1717857510001945600,5.592945556640625,0.003795803524553776,0.009424660354852676,-0.006440588738769293
1717857510011986400,5.602986328125,0.004418716765940189,0.008505870588123798,-0.005783320404589176
1717857510022027500,5.613027587890625,0.0038514635525643826,0.009820672683417797,-0.005569735076278448
1717857510032069400,5.6230693359375,0.004381965380162001,0.008636364713311195,-0.005002215504646301
1717857510042110500,5.6331103515625,0.0028415927663445473,0.007938084192574024,-0.006454703398048878
1717857510052151600,5.643151611328125,0.0033270870335400105,0.009973804466426373,-0.0056802560575306416
1717857510062193400,5.653193359375,0.0036490634083747864,0.008888565935194492,-0.004565723240375519
1717857510072234500,5.663234375,0.004059989005327225,0.008313323371112347,-0.005115665961056948
1717857510082276400,5.6732763671875,0.004824582487344742,0.009149556048214436,-0.004866127856075764
1717857510092317400,5.6833173828125,0.003305249148979783,0.008681639097630978,-0.006608101539313793
1717857510102358300,5.693358154296875,0.004559331573545933,0.008883772417902946,-0.0054213968105614185
1717857510112400400,5.703400390625,0.003540406236425042,0.008807872422039509,-0.0059934440068900585
1717857510122441200,5.713441162109375,0.0036077843979001045,0.00839907769113779,-0.004905542824417353
1717857510132482300,5.723482421875,0.0029755497816950083,0.007484281435608864,-0.004192081745713949
1717857510142524400,5.7335244140625,0.004875182639807463,0.008040349930524826,-0.006738063879311085
1717857510152565500,5.7435654296875,0.002177400514483452,0.010030795820057392,-0.005920473486185074
1717857510162606600,5.753606689453125,0.003439738880842924,0.008106661960482597,-0.0055803875438869
1717857510172648400,5.7636484375,0.0012697952333837748,0.009693373925983906,-0.006103432737290859
1717857510182689500,5.773689453125,0.0038842204958200455,0.009075254201889038,-0.00757935643196106
1717857510192731400,5.7837314453125,0.004139084834605455,0.009564477019011974,-0.00549197057262063
1717857510202772500,5.7937724609375,0.004479703027755022,0.009236641228199005,-0.006068012677133083
1717857510212813300,5.803813232421875,0.004151069093495607,0.008401740342378616,-0.006090649403631687
1717857510222855400,5.81385546875,0.003981159534305334,0.008036088198423386,-0.004035754129290581
1717857510232896300,5.823896240234375,0.003947070799767971,0.008310128003358841,-0.007396397180855274
1717857510242937300,5.833937255859375,0.0032149681355804205,0.010787400417029858,-0.006098905112594366
1717857510252979500,5.8439794921875,0.0036077843979001045,0.008076834492385387,-0.007227020338177681
1717857510263020500,5.8540205078125,0.0031350732315331697,0.00857298169285059,-0.006158560048788786
1717857510273061600,5.8640615234375,0.005379319190979004,0.009497897699475288,-0.005123123060911894
1717857510283103500,5.874103515625,0.004290885291993618,0.009302954189479351,-0.007426491007208824
1717857510293144600,5.88414453125,0.0030035129748284817,0.007594802882522345,-0.005258145276457071
1717857510303186400,5.8941865234375,0.0034088462125509977,0.010530139319598675,-0.005697300657629967
1717857510313227500,5.9042275390625,0.006089317612349987,0.008711998350918293,-0.005460012704133987
1717857510323268400,5.914268310546875,0.003915912006050348,0.009319731965661049,-0.005619536153972149
1717857510333310500,5.924310546875,0.002245843643322587,0.010425209999084473,-0.005407282151281834
1717857510343351300,5.934351318359375,0.0025680861435830593,0.008075503632426262,-0.005006476305425167
1717857510353392400,5.944392333984375,0.004709267523139715,0.00890667550265789,-0.007796936668455601
1717857510363434200,5.954434326171875,0.003644003299996257,0.007655522786080837,-0.006533799227327108
1717857510373475300,5.964475341796875,0.0041068606078624725,0.008679508231580257,-0.007083741948008537
1717857510383516400,5.974516357421875,0.003746002446860075,0.008481902070343494,-0.0060147494077682495
1717857510393558500,5.98455859375,0.003359045134857297,0.008727711625397205,-0.007866444997489452
1717857510403599600,5.994599609375,0.004565989598631859,0.010588728822767735,-0.005979862064123154
1717857510413641500,6.004641357421875,0.003471963107585907,0.010014550760388374,-0.005486377980560064
1717857510423682600,6.0146826171875,0.0043502734042704105,0.009721336886286736,-0.005855225957930088
1717857510433723400,6.024723388671875,0.004869323689490557,0.008038751780986786,-0.006302637048065662
1717857510443765500,6.034765625,0.0036248285323381424,0.008992696180939674,-0.0057106162421405315
1717857510453806300,6.044806396484375,0.003709783311933279,0.00998951680958271,-0.006043511442840099
1717857510463847400,6.054847412109375,0.0031409321818500757,0.009636647999286652,-0.005800365004688501
1717857510473889300,6.06488916015625,0.00430233683437109,0.009560748003423214,-0.005406749434769154
1717857510483930400,6.074930419921875,0.00333134806714952,0.008694421499967575,-0.005416603293269873
1717857510493971500,6.084971435546875,0.0036916739773005247,0.009499495849013329,-0.005848567932844162
1717857510504013300,6.095013427734375,0.0049026133492589,0.010425476357340813,-0.005828061606734991
1717857510514054400,6.105054443359375,0.004187820944935083,0.009394566528499126,-0.004009388852864504
1717857510524095200,6.11509521484375,0.004590224474668503,0.008709335699677467,-0.0055122110061347485
1717857510534137600,6.1251376953125,0.005516205448657274,0.008978581055998802,-0.005930859595537186
1717857510544178400,6.135178466796875,0.0037324202712625265,0.009827330708503723,-0.005825132131576538
1717857510554220500,6.145220458984375,0.002822684356942773,0.008989766240119934,-0.00583791546523571
1717857510564261400,6.155261474609375,0.001228782464750111,0.009425193071365356,-0.004817125853151083
1717857510574302500,6.165302490234375,0.003391801845282316,0.008351939730346203,-0.0065681543201208115
1717857510584344300,6.17534423828125,0.003328951308503747,0.008265652693808079,-0.004381965380162001
1717857510594385400,6.185385498046875,0.004534031730145216,0.009866745211184025,-0.004887965973466635
1717857510604426500,6.195426513671875,0.004777444526553154,0.009704559110105038,-0.005209941882640123
1717857510614468400,6.20546826171875,0.0031276163645088673,0.009707488119602203,-0.005816610064357519
1717857510624509400,6.215509521484375,0.004526308737695217,0.008637430146336555,-0.005726861767470837
1717857510634550300,6.22555029296875,0.004263188224285841,0.00887817982584238,-0.005946306046098471
1717857510644592600,6.235592529296875,0.0027867318131029606,0.009504289366304874,-0.00629091914743185
1717857510654633500,6.245633544921875,0.005447496194392443,0.009446765296161175,-0.005488774739205837
1717857510664675600,6.255675537109375,0.0035872780717909336,0.009535448625683784,-0.008076834492385387
1717857510674716400,6.26571630859375,0.0036477316170930862,0.007851531729102135,-0.007731156423687935
1717857510684757500,6.275757568359375,0.00475560687482357,0.00845526996999979,-0.00558251840993762
1717857510694799400,6.28579931640625,0.0044048684649169445,0.008773517794907093,-0.005697567015886307
1717857510704840400,6.29584033203125,0.004394748248159885,0.00806058943271637,-0.005541239399462938
1717857510714881500,6.305881591796875,0.004535895772278309,0.008727711625397205,-0.00714606000110507
1717857510724923400,6.31592333984375,0.003687146585434675,0.00936074461787939,-0.006250172853469849
1717857510734964500,6.325964599609375,0.003168629016727209,0.011503257788717747,-0.006049636751413345
1717857510745005300,6.33600537109375,0.0043987431563436985,0.00938977301120758,-0.006111155729740858
1717857510755047400,6.34604736328125,0.004486094694584608,0.009600695222616196,-0.0068299430422484875
1717857510765088300,6.356088134765625,0.00484429020434618,0.00845393817871809,-0.005284510552883148
1717857510775129300,6.36612939453125,0.004750546533614397,0.009676596149802208,-0.005960687063634396
1717857510785171500,6.37617138671875,0.005083974450826645,0.009613744914531708,-0.006442719139158726
1717857510795212500,6.386212646484375,0.003846936160698533,0.008555404841899872,-0.00683207344263792
1717857510805254400,6.39625439453125,0.005167331546545029,0.009051285684108734,-0.005762814078480005
1717857510815295500,6.40629541015625,0.0029979203827679157,0.007029413711279631,-0.005275189410895109
1717857510825336600,6.416336669921875,0.00469515286386013,0.010312026366591454,-0.005083175376057625
1717857510835378400,6.42637841796875,0.0033459956757724285,0.008116249926388264,-0.006338589824736118
1717857510845419500,6.43641943359375,0.0037207023706287146,0.010872887447476387,-0.006253900937736034
1717857510855460400,6.44646044921875,0.004193679895251989,0.008768457919359207,-0.004131628200411797
1717857510865502500,6.45650244140625,0.004567853640764952,0.008554339408874512,-0.005613410845398903
1717857510875543300,6.466543212890625,0.004811000544577837,0.0089404983446002,-0.007004379760473967
1717857510885585000,6.4765849609375,0.005254416726529598,0.009230249561369419,-0.005254416726529598
1717857510895626800,6.486626708984375,0.003224555402994156,0.009132778272032738,-0.005881857592612505
1717857510905667800,6.496667724609375,0.0027326694689691067,0.009290703572332859,-0.00791491474956274
1717857510915708700,6.506708740234375,0.0031904669012874365,0.008160191588103771,-0.006271744146943092
1717857510925750800,6.516750732421875,0.004885302856564522,0.010316819883883,-0.005983323790132999
1717857510935791600,6.52679150390625,0.003171824850142002,0.009636647999286652,-0.005940713454037905
1717857510945834000,6.536833984375,0.0026583673898130655,0.009516007266938686,-0.005001150071620941
1717857510955874800,6.546874755859375,0.004674380179494619,0.008413191884756088,-0.006087986286729574
1717857510965916000,6.556916015625,0.005037635564804077,0.00805952399969101,-0.006589192897081375
1717857510975957800,6.566957763671875,0.005845372099429369,0.009166600182652473,-0.006373210810124874
1717857510985998800,6.576998779296875,0.004840561654418707,0.007041397970169783,-0.004571582190692425
1717857510996040000,6.5870400390625,0.004140949342399836,0.009855560027062893,-0.00512791657820344
1717857511006081800,6.597081787109375,0.004758269991725683,0.00794314406812191,-0.005726595409214497
1717857511016123000,6.607122802734375,0.00296250032261014,0.009091232903301716,-0.006458165589720011
1717857511026163700,6.617163818359375,0.004281830508261919,0.008704275824129581,-0.005089300684630871
1717857511036205800,6.627205810546875,0.0032061797101050615,0.007874168455600739,-0.005252552684396505
1717857511046246700,6.63724658203125,0.005372394807636738,0.00815166998654604,-0.004716458264738321
1717857511056287700,6.647287841796875,0.004041879437863827,0.008658203296363354,-0.005911418702453375
1717857511066329600,6.65732958984375,0.005317533854395151,0.0072943982668221,-0.006307963281869888
1717857511076370700,6.66737060546875,0.004452805500477552,0.009601760655641556,-0.006746585946530104
1717857511086412800,6.677412841796875,0.004895955324172974,0.007698399480432272,-0.006040848325937986
1717857511096454000,6.687453857421875,0.004033091012388468,0.00878230668604374,-0.004484230652451515
1717857511106495000,6.697494873046875,0.004531634971499443,0.009636647999286652,-0.006450176239013672
1717857511116536800,6.707536865234375,0.002055694116279483,0.010142382234334946,-0.006116215605288744
1717857511126578000,6.717577880859375,0.0052363071590662,0.009217733517289162,-0.0044115264900028706
1717857511136618800,6.72761865234375,0.003597398055717349,0.008685367181897163,-0.005057609174400568
1717857511146660900,6.737660888671875,0.005114600993692875,0.008096275851130486,-0.006697850301861763
1717857511156701700,6.74770166015625,0.004026167094707489,0.010377539321780205,-0.005181978922337294
1717857511166742800,6.75774267578125,0.0036341496743261814,0.009895240887999535,-0.004809668753296137
1717857511176784600,6.76778466796875,0.005054679699242115,0.008786833845078945,-0.006390254944562912
1717857511186825700,6.77782568359375,0.003035204717889428,0.008919725194573402,-0.006717291194945574
1717857511196866800,6.78786669921875,0.0026876621413975954,0.009155947715044022,-0.006952181924134493
1717857511206909000,6.797908935546875,0.004496481269598007,0.01002280693501234,-0.005886651109904051
1717857511216950000,6.807949951171875,0.0039084553718566895,0.008983108215034008,-0.006420881487429142
1717857511226991900,6.817991943359375,0.005373193882405758,0.008538627065718174,-0.005449360236525536
1717857511237033000,6.828032958984375,0.004342284053564072,0.008668855763971806,-0.005375590641051531
1717857511247073800,6.83807373046875,0.004436559975147247,0.00983425509184599,-0.0065441858023405075
1717857511257116000,6.848115966796875,0.004603806417435408,0.007936219684779644,-0.0073529877699911594
1717857511267156700,6.85815673828125,0.004341751337051392,0.007449926808476448,-0.0062515041790902615
1717857511277197800,6.86819775390625,0.00224930583499372,0.00935275573283434,-0.005487443413585424
1717857511287239700,6.87823974609375,0.005539641249924898,0.008523447439074516,-0.005318332463502884
1717857511297280800,6.88828076171875,0.006404103245586157,0.008286425843834877,-0.005017661955207586
1717857511307321900,6.89832177734375,0.003005377249792218,0.006800381932407618,-0.0049550775438547134
1717857511317363700,6.90836376953125,0.005487177055329084,0.010130131617188454,-0.006061354652047157
1717857511327404800,6.91840478515625,0.0038272286765277386,0.008731173351407051,-0.005883721634745598
1717857511337445600,6.928445556640625,0.004249073565006256,0.009396963752806187,-0.006074137985706329
1717857511347488000,6.938488037109375,0.0025041704066097736,0.009224124252796173,-0.00660517206415534
1717857511357528800,6.94852880859375,0.0041305627673864365,0.0079721724614501,-0.004548945464193821
1717857511367571000,6.958571044921875,0.004983040504157543,0.009845173917710781,-0.005588643718510866
1717857511377611800,6.96861181640625,0.004465588368475437,0.00743341539055109,-0.006788397673517466
1717857511387652900,6.97865283203125,0.0016737966798245907,0.00836552120745182,-0.00535588338971138
1717857511397694700,6.98869482421875,0.004533765371888876,0.01076795905828476,-0.0038863508962094784
1717857511407735800,6.99873583984375,0.003412308171391487,0.00971760880202055,-0.006292250473052263
1717857511417777000,7.00877685546875,0.003213370218873024,0.011109642684459686,-0.002234392100945115
1717857511427818800,7.01881884765625,0.003942010924220085,0.009852098301053047,-0.004324707202613354
1717857511437859800,7.02885986328125,0.003744937013834715,0.009940781630575657,-0.006057359743863344
1717857511447900700,7.038900634765625,0.0031334753148257732,0.007537544704973698,-0.007616640534251928
1717857511457942800,7.04894287109375,0.004493818152695894,0.007214769721031189,-0.0076155755668878555
1717857511467983600,7.058983642578125,0.004010454285889864,0.009801497682929039,-0.006564159411936998
1717857511478024700,7.069024658203125,0.0038160434924066067,0.008641957305371761,-0.005517803598195314
1717857511488066800,7.07906689453125,0.0041638524271547794,0.009490706957876682,-0.005401156842708588
1717857511498108000,7.08910791015625,0.0051745218224823475,0.009188970550894737,-0.005516205448657274
1717857511508149000,7.09914892578125,0.003575826296582818,0.009461145848035812,-0.005282380152493715
1717857511518190800,7.10919091796875,0.0029609024059027433,0.00884995050728321,-0.0065018413588404655
1717857511528232000,7.11923193359375,0.005270928610116243,0.009130381047725677,-0.0062645538710057735
1717857511538273800,7.129273681640625,0.0037651772145181894,0.009781790897250175,-0.006593454163521528
1717857511548315000,7.13931494140625,0.004526575095951557,0.007808654569089413,-0.005494900047779083
1717857511558355700,7.149355712890625,0.004200337454676628,0.008812399581074715,-0.0060331248678267
1717857511568397800,7.159397705078125,0.004003529902547598,0.009588977321982384,-0.00544350128620863
1717857511578438700,7.169438720703125,0.003745469730347395,0.00944836251437664,-0.003849599277600646
1717857511588479700,7.179479736328125,0.0032738239970058203,0.007892278023064137,-0.00472631212323904
1717857511598521600,7.189521484375,0.004535363521426916,0.008816394954919815,-0.006268548313528299
1717857511608562700,7.199562744140625,0.005194495897740126,0.008323975838720798,-0.0065199509263038635
1717857511618603800,7.209603759765625,0.003736148588359356,0.009843842126429081,-0.0045585329644382
1717857511628646000,7.21964599609375,0.005149221979081631,0.009552492760121822,-0.006099437829107046
1717857511638687000,7.22968701171875,0.0031103058718144894,0.009726663120090961,-0.005765743553638458
1717857511648727800,7.239727783203125,0.003931891173124313,0.00875141378492117,-0.006049370393157005
1717857511658770000,7.24977001953125,0.005508748814463615,0.007244330830872059,-0.004905542824417353
1717857511668810800,7.259810791015625,0.0037819549906998873,0.008407066576182842,-0.005272526293992996
1717857511678852900,7.269852783203125,0.003454119898378849,0.009184177033603191,-0.0041553303599357605
1717857511688893700,7.279893798828125,0.0034613104071468115,0.009089102037250996,-0.006328735966235399
1717857511698934800,7.289934814453125,0.005077316425740719,0.0105314701795578,-0.005949768237769604
1717857511708976600,7.2999765625,0.0035864789970219135,0.00845660176128149,-0.005209675524383783
1717857511719017700,7.310017822265625,0.005279717035591602,0.00965582299977541,-0.005331648513674736
1717857511729058800,7.320058837890625,0.004289020784199238,0.008250739425420761,-0.005780390929430723
1717857511739101000,7.330100830078125,0.0027028422337025404,0.008986038155853748,-0.005056277383118868
1717857511749142000,7.34014208984375,0.004083691164851189,0.008244614116847515,-0.006139651406556368
1717857511759182800,7.350182861328125,0.004009921569377184,0.009546101093292236,-0.006086920853704214
1717857511769225000,7.360224853515625,0.003976099658757448,0.008608934469521046,-0.005979062989354134
1717857511779265800,7.370265869140625,0.0022397185675799847,0.00951014831662178,-0.007318366784602404
1717857511789307000,7.380306884765625,0.0029933929909020662,0.0086629968136549,-0.006287456955760717
1717857511799348700,7.3903486328125,0.00560941593721509,0.009079248644411564,-0.0056983656249940395
1717857511809389800,7.400389892578125,0.00418515782803297,0.008440356701612473,-0.005780124571174383
1717857511819431700,7.410431640625,0.004572381265461445,0.008446482010185719,-0.00572925852611661
1717857511829472800,7.42047265625,0.004087686073035002,0.009394034743309021,-0.004737230949103832
1717857511839513900,7.430513916015625,0.0029784792568534613,0.009008408524096012,-0.005576925817877054
1717857511849555700,7.4405556640625,0.004342816770076752,0.00794154591858387,-0.006304234731942415
1717857511859596800,7.4505966796875,0.0031316110398620367,0.010351973585784435,-0.0062304651364684105
1717857511869637600,7.4606376953125,0.003600327530875802,0.009007875807583332,-0.006106628105044365
1717857511879680000,7.470679931640625,0.004041613079607487,0.00871972180902958,-0.0062800003215670586
1717857511889720300,7.48072021484375,0.003034405643120408,0.009987653233110905,-0.005646966863423586
1717857511899761400,7.490761474609375,0.004340952727943659,0.008904811926186085,-0.004220843780785799
1717857511909803500,7.500803466796875,0.003959854133427143,0.008557269349694252,-0.0062738750129938126
1717857511919844600,7.5108447265625,0.004089017398655415,0.007392136380076408,-0.006625678390264511
1717857511929885700,7.5208857421875,0.002439455594867468,0.009189769625663757,-0.006624080706387758
1717857511939927600,7.530927490234375,0.005277319811284542,0.009813748300075531,-0.005603024736046791
1717857511949968600,7.54096875,0.00216514989733696,0.009780725464224815,-0.005860019475221634
1717857511960009500,7.551009521484375,0.004866926930844784,0.008825981989502907,-0.004170776344835758
1717857511970051600,7.561051513671875,0.002865028567612171,0.010008159093558788,-0.005853894166648388
1717857511980092400,7.571092529296875,0.005606752820312977,0.010360228829085827,-0.006420082412660122
1717857511990133500,7.581133544921875,0.005118062719702721,0.008791893720626831,-0.00637906976044178
1717857512000175400,7.59117529296875,0.0028003137558698654,0.008315454237163067,-0.007678692229092121
1717857512010216400,7.601216552734375,0.0032746228389441967,0.009357016533613205,-0.005679191090166569
1717857512020258300,7.61125830078125,0.0023257385473698378,0.009691775776445866,-0.00612260727211833
1717857512030299400,7.62129931640625,0.004287689458578825,0.009737848304212093,-0.005642705596983433
1717857512040340500,7.631340576171875,0.004633633885532618,0.008008391596376896,-0.006792392116039991
1717857512050382600,7.641382568359375,0.0020040287636220455,0.008592156693339348,-0.0062738750129938126
1717857512060423700,7.651423583984375,0.0033907366450875998,0.009008142165839672,-0.007420099340379238
1717857512070464500,7.661464599609375,0.004050934221595526,0.007766043767333031,-0.0052208611741662025
1717857512080506600,7.671506591796875,0.0022266688756644726,0.009454221464693546,-0.006193181034177542
1717857512090547500,7.68154736328125,0.0033129723742604256,0.01010989211499691,-0.004131894558668137
1717857512100588500,7.691588623046875,0.0036341496743261814,0.007445665542036295,-0.006734335329383612
1717857512110630400,7.70163037109375,0.0021816615480929613,0.009789247065782547,-0.0049153962172567844
1717857512120671500,7.71167138671875,0.003308178624138236,0.008984173648059368,-0.0070334081538021564
1717857512130712600,7.721712646484375,0.0046754456125199795,0.00896952673792839,-0.00649598240852356
1717857512140754400,7.73175439453125,0.002847185591235757,0.007774832658469677,-0.005824599415063858
1717857512150795500,7.74179541015625,0.005111937876790762,0.008860869333148003,-0.006262955721467733
1717857512160837400,7.75183740234375,0.0046394928358495235,0.009109076112508774,-0.0075780246406793594
1717857512170878700,7.761878662109375,0.004046939779073,0.00965635571628809,-0.006680007092654705
1717857512180919600,7.77191943359375,0.0035862126387655735,0.008533833548426628,-0.0046208505518734455
1717857512190961700,7.781961669921875,0.0038956720381975174,0.009090167470276356,-0.005864547099918127
1717857512201002500,7.79200244140625,0.004037085920572281,0.009589510038495064,-0.006184658966958523
1717857512211043600,7.802043701171875,0.0024868599139153957,0.00857298169285059,-0.005557218100875616
1717857512221085400,7.81208544921875,0.0039020637050271034,0.00908617302775383,-0.005575061310082674
1717857512231126500,7.82212646484375,0.004478904418647289,0.00782596506178379,-0.006237389519810677
1717857512241167600,7.832167724609375,0.0035300198942422867,0.008170045912265778,-0.0062360577285289764
1717857512251209500,7.84220947265625,0.004217382054775953,0.009663280099630356,-0.007158310618251562
1717857512261250600,7.85225048828125,0.003495931625366211,0.008416654542088509,-0.006425941362977028
1717857512271291400,7.86229150390625,0.002492984989657998,0.009050752967596054,-0.00506906071677804
1717857512281333500,7.87233349609375,0.00580648984760046,0.008816927671432495,-0.006904244888573885
1717857512291374300,7.882374267578125,0.004308195784687996,0.009186041541397572,-0.005961219780147076
1717857512301415400,7.89241552734375,0.003751595038920641,0.00953704584389925,-0.004464789759367704
1717857512311457500,7.90245751953125,0.005056543741375208,0.008699482306838036,-0.0057444386184215546
1717857512321498600,7.91249853515625,0.004049336537718773,0.009572998620569706,-0.006086388137191534
1717857512331540500,7.92254052734375,0.004929511342197657,0.008538360707461834,-0.007209177128970623
1717857512341581600,7.93258154296875,0.0035835495218634605,0.01062228437513113,-0.0046448190696537495
1717857512351622700,7.94262255859375,0.0046999468468129635,0.009603625163435936,-0.0060051619075238705
1717857512361664500,7.95266455078125,0.004598213825374842,0.009816944599151611,-0.005821669939905405
1717857512371705600,7.96270556640625,0.003753725439310074,0.008793491870164871,-0.007047256920486689
1717857512381746400,7.972746337890625,0.004399542231112719,0.009641974233090878,-0.006100769154727459
1717857512391788500,7.98278857421875,0.0028778119012713432,0.010115484707057476,-0.0060091568157076836
1717857512401829400,7.992829345703125,0.005594502668827772,0.00899828877300024,-0.006274939980357885
1717857512411870500,8.002870361328124,0.004047738388180733,0.008656871505081654,-0.0051505533047020435
1717857512421912300,8.012912353515626,0.0037491980474442244,0.008642756380140781,-0.0051721250638365746
1717857512431953400,8.022953369140625,0.003626959165558219,0.008102401159703732,-0.005563609767705202
1717857512441994500,8.032994384765624,0.003715375903993845,0.00857378076761961,-0.00603365758433938
1717857512452036600,8.04303662109375,0.00481233187019825,0.00836845114827156,-0.004312456585466862
1717857512462077700,8.05307763671875,0.005243764258921146,0.010367153212428093,-0.006119677796959877
1717857512472118500,8.063118408203126,0.004516721237450838,0.00866406224668026,-0.004768656101077795
1717857512482160600,8.07316064453125,0.003862382611259818,0.008970857597887516,-0.0063095614314079285
1717857512492201500,8.083201416015624,0.004177700728178024,0.009968744590878487,-0.006001433357596397
1717857512502243600,8.09324365234375,0.004215783905237913,0.009376191534101963,-0.0065108961425721645
1717857512512284400,8.103284423828125,0.004822718445211649,0.009667008183896542,-0.0070528495125472546
1717857512522325500,8.113325439453124,0.003976631909608841,0.009459015913307667,-0.005579056218266487
1717857512532367400,8.123367431640625,0.003829092951491475,0.008070443756878376,-0.005121258553117514
1717857512542408400,8.133408447265625,0.0041433461010456085,0.008536229841411114,-0.0060299295000731945
1717857512552449500,8.143449462890626,0.003549461020156741,0.009155947715044022,-0.005287173669785261
1717857512562491400,8.153491455078125,0.0035167040769010782,0.008140751160681248,-0.005093828309327364
1717857512572532500,8.163532470703124,0.004297010600566864,0.009256348945200443,-0.005989449098706245
1717857512582573300,8.1735732421875,0.003944407682865858,0.008415056392550468,-0.006901049055159092
1717857512592615700,8.18361572265625,0.00418409239500761,0.007877630181610584,-0.005515406373888254
1717857512602656500,8.193656494140624,0.0025875272694975138,0.007773234508931637,-0.00427277572453022
1717857512612697600,8.203697509765625,0.003519633784890175,0.009528524242341518,-0.00455746753141284
1717857512622739500,8.213739501953125,0.004320446401834488,0.009379120543599129,-0.00646748673170805
1717857512632780500,8.223780517578126,0.003326288191601634,0.00851359311491251,-0.005842442624270916
1717857512642821600,8.233821533203125,0.004150802735239267,0.009162073023617268,-0.005110872443765402
1717857512652863500,8.243863525390625,0.004260525107383728,0.008159925229847431,-0.0059899818152189255
1717857512662904600,8.253904541015626,0.004034422803670168,0.010716560296714306,-0.0060115535743534565
1717857512672945400,8.2639453125,0.0038812910206615925,0.008793758228421211,-0.005775064695626497
1717857512682987500,8.273987548828124,0.002560629276558757,0.009167132899165154,-0.005037102848291397
1717857512693028400,8.2840283203125,0.003907656297087669,0.009050752967596054,-0.004752677399665117
1717857512703070700,8.29407080078125,0.003379018744453788,0.009080580435693264,-0.007290936075150967
1717857512713111600,8.304111572265626,0.003855458227917552,0.009341570548713207,-0.006936469115316868
1717857512723152600,8.314152587890625,0.0031944618094712496,0.010146643966436386,-0.00632021389901638
1717857512733194500,8.324194580078125,0.004090881906449795,0.009245696477591991,-0.0067662931978702545
1717857512743235600,8.334235595703126,0.002624012529850006,0.008746886625885963,-0.005273325368762016
1717857512753276700,8.344276611328125,0.0049098036251962185,0.009677394293248653,-0.005830192007124424
1717857512763318500,8.354318603515624,0.004565989598631859,0.009285377338528633,-0.006595318205654621
1717857512773359600,8.364359619140625,0.0035151063930243254,0.009105880744755268,-0.005307413637638092
1717857512783400400,8.374400390625,0.0037025928031653166,0.008611331693828106,-0.006013683974742889
1717857512793442600,8.384442626953126,0.003210174385458231,0.010165286250412464,-0.005891445092856884
1717857512803483400,8.3944833984375,0.0046576024033129215,0.009547964669764042,-0.005456018261611462
1717857512813524500,8.4045244140625,0.004181429278105497,0.008793225511908531,-0.006983607076108456
1717857512823566300,8.41456640625,0.0037880802992731333,0.009020392782986164,-0.00669465446844697
1717857512833607400,8.424607421875,0.002603239845484495,0.007881092838943005,-0.007410511840134859
1717857512843648500,8.4346484375,0.0044256411492824554,0.008687764406204224,-0.005263737868517637
1717857512853690600,8.444690673828125,0.0026146916206926107,0.00836552120745182,-0.0065503111109137535
1717857512863731700,8.454731689453125,0.003855191869661212,0.008043012581765652,-0.006069876719266176
1717857512873772500,8.4647724609375,0.005245894659310579,0.008639294654130936,-0.006053897552192211
1717857512883814700,8.474814697265625,0.0039012646302580833,0.009546101093292236,-0.0060054282657802105
1717857512893855500,8.48485546875,0.0031670311000198126,0.00806138850748539,-0.005107676610350609
1717857512903896600,8.494896484375,0.005310076754540205,0.008528773672878742,-0.006128466222435236
1717857512913938400,8.5049384765625,0.002243446884676814,0.008826514706015587,-0.004460794851183891
1717857512923979500,8.5149794921875,0.0027268105186522007,0.009953032247722149,-0.005290103144943714
1717857512934021400,8.525021484375,0.0036815537605434656,0.00814927276223898,-0.006849650293588638
1717857512944062500,8.5350625,0.003338272450491786,0.009503223933279514,-0.005872536450624466
1717857512954103600,8.545103515625,0.003949468024075031,0.011624698527157307,-0.005204349290579557
1717857512964145700,8.555145751953125,0.0037926076911389828,0.010063020512461662,-0.0043926178477704525
1717857512974186800,8.565186767578124,0.004853877238929272,0.010101103223860264,-0.006268548313528299
1717857512984227600,8.5752275390625,0.0035167040769010782,0.008219580166041851,-0.006277070846408606
1717857512994269700,8.585269775390625,0.005696767941117287,0.008361793123185635,-0.005775863770395517
1717857513004310500,8.595310546875,0.0035230957437306643,0.007888815365731716,-0.006758303847163916
1717857513014351600,8.6053515625,0.005323659162968397,0.007681088987737894,-0.007388940546661615
1717857513024393500,8.6153935546875,0.0036424053832888603,0.007821437902748585,-0.006461361423134804
1717857513034434600,8.6254345703125,0.004327636677771807,0.008942095562815666,-0.007071491796523333
1717857513044475600,8.6354755859375,0.004318049177527428,0.010557569563388824,-0.004436826333403587
1717857513054517500,8.645517578125,0.005906092468649149,0.009552226401865482,-0.004761998075991869
1717857513064558600,8.65555859375,0.003368099918588996,0.009823336265981197,-0.005933789070695639
1717857513074599400,8.665599365234375,0.004597414750605822,0.010529340244829655,-0.006048571318387985
1717857513084641500,8.6756416015625,0.004009122494608164,0.008768457919359207,-0.0059905145317316055
1717857513094682400,8.685682373046875,0.003993942867964506,0.008266185410320759,-0.004807005636394024
1717857513104723500,8.695723388671874,0.0027137610595673323,0.008215852081775665,-0.00643659383058548
1717857513114765600,8.705765625,0.0035744947381317616,0.008686432614922523,-0.006286125164479017
1717857513124806700,8.715806640625,0.004846420604735613,0.009270197711884975,-0.005340703297406435
1717857513134848500,8.7258486328125,0.0037561224307864904,0.009046492166817188,-0.00589757040143013
1717857513144889600,8.7358896484375,0.003178216516971588,0.008679774589836597,-0.005910885985940695
1717857513154930700,8.7459306640625,0.002826146548613906,0.007529555354267359,-0.00549223693087697
1717857513164972500,8.75597265625,0.0032770195975899696,0.00911626685410738,-0.005001416429877281
1717857513175013600,8.766013671875,0.0048799761570990086,0.009140768088400364,-0.0054357778280973434
1717857513185054500,8.776054443359374,0.0038125813007354736,0.009296562522649765,-0.0059870523400604725
1717857513195096600,8.7860966796875,0.0034463966730982065,0.008835303597152233,-0.006053897552192211
1717857513205137400,8.796137451171875,0.0029667613562196493,0.009694173000752926,-0.004848018288612366
1717857513215178500,8.806178466796876,0.00498144282028079,0.009907225146889687,-0.006620884872972965
1717857513225220600,8.816220703125,0.0040823593735694885,0.008497880771756172,-0.005195028148591518
1717857513235261700,8.82626171875,0.002326803747564554,0.01001934427767992,-0.005025917664170265
1717857513245302800,8.836302734375,0.004165716469287872,0.008686965331435204,-0.006166549399495125
1717857513255344600,8.8463447265625,0.004507666453719139,0.010616691783070564,-0.005631786771118641
1717857513265385700,8.8563857421875,0.004466387443244457,0.009043295867741108,-0.004979312419891357
1717857513275426600,8.866426513671875,0.0030394657514989376,0.010069412179291248,-0.005982525181025267
1717857513285468700,8.87646875,0.002567020943388343,0.009180448949337006,-0.004916728008538485
1717857513295509500,8.886509521484374,0.003796336008235812,0.00830746442079544,-0.004688494838774204
1717857513305550600,8.896550537109375,0.004486361052840948,0.007336209993809462,-0.004737230949103832
1717857513315592400,8.906592529296875,0.004760400392115116,0.008538627065718174,-0.007063501980155706
1717857513325633500,8.916633544921876,0.004671717062592506,0.00881160143762827,-0.006025401875376701
1717857513335674600,8.926674560546875,0.005791043862700462,0.00899748969823122,-0.006739927921444178
1717857513345716500,8.936716552734374,0.0028362665325403214,0.007926632650196552,-0.005370797123759985
1717857513355757600,8.946757568359375,0.004478904418647289,0.009461944922804832,-0.006158826407045126
1717857513365799700,8.956799560546875,0.004285026341676712,0.010271811857819557,-0.006132727488875389
1717857513375840800,8.9668408203125,0.003932689782232046,0.010142115876078606,-0.006127667147666216
1717857513385881600,8.976881591796875,0.004299940075725317,0.008836634457111359,-0.00529463030397892
1717857513395923700,8.986923828125,0.00395692465826869,0.00890880636870861,-0.005262140184640884
1717857513405964500,8.996964599609376,0.003632019041106105,0.008431567810475826,-0.007246727589517832
1717857513416005600,9.007005615234375,0.003323358716443181,0.008241950534284115,-0.006886934395879507
1717857513426047500,9.017047607421874,0.005231780000030994,0.00962919183075428,-0.005647499579936266
1717857513436088600,9.027088623046875,0.0027803401462733746,0.008744489401578903,-0.004486627411097288
1717857513446129700,9.037129638671875,0.003852262394502759,0.008478972129523754,-0.005629390012472868
1717857513456171500,9.047171630859374,0.004689027555286884,0.008129831403493881,-0.0065255435183644295
1717857513466212600,9.057212646484375,0.003457848448306322,0.00908750481903553,-0.004848284646868706
1717857513476253400,9.06725341796875,0.0040826257318258286,0.008007592521607876,-0.007237140089273453
1717857513486295600,9.077295654296876,0.005126052536070347,0.008587096817791462,-0.006392651703208685
1717857513496336400,9.08733642578125,0.0035542547702789307,0.009220662526786327,-0.006406500469893217
1717857513506377500,9.09737744140625,0.003829625668004155,0.008900550194084644,-0.006023005116730928
1717857513516419600,9.107419677734375,0.005320996046066284,0.008624114096164703,-0.005425391718745232
1717857513526460700,9.117460693359375,0.004181961994618177,0.008340488187968731,-0.006643521599471569
1717857513536501800,9.127501708984376,0.003969974350184202,0.008597749285399914,-0.005587045568972826
1717857513546543600,9.137543701171875,0.0044408212415874004,0.010160225443542004,-0.006564425770193338
1717857513556584700,9.147584716796874,0.0040978058241307735,0.008276039734482765,-0.006143379956483841
1717857513566625500,9.15762548828125,0.002826679265126586,0.008738896809518337,-0.005603291094303131
1717857513576667600,9.167667724609375,0.0026618295814841986,0.00914209894835949,-0.005507150664925575
1717857513586708500,9.17770849609375,0.0037609159480780363,0.008391087874770164,-0.006298375781625509
1717857513596749600,9.18774951171875,0.003780623432248831,0.008222510106861591,-0.00634897593408823
1717857513606791400,9.19779150390625,0.004600344225764275,0.008404403924942017,-0.00526613462716341
1717857513616832500,9.20783251953125,0.0038360171020030975,0.007720237597823143,-0.00583685003221035
1717857513626874600,9.21787451171875,0.004759334959089756,0.008768724277615547,-0.006678675301373005
1717857513636915700,9.227915771484374,0.003865312086418271,0.009260077029466629,-0.006643787957727909
1717857513646956800,9.237956787109376,0.006344182416796684,0.009678193368017673,-0.005876265000551939
1717857513656998700,9.24799853515625,0.004452272783964872,0.011148258112370968,-0.004756405483931303
1717857513667039700,9.258039794921874,0.004090615548193455,0.00953704584389925,-0.006134325172752142
1717857513677080600,9.26808056640625,0.0035236284602433443,0.008794024586677551,-0.004738030023872852
1717857513687122700,9.278122802734375,0.001669269404374063,0.009496299549937248,-0.005525260232388973
1717857513697163500,9.28816357421875,0.003919640555977821,0.007683752104640007,-0.005917810369282961
1717857513707204600,9.29820458984375,0.005124720744788647,0.009128783829510212,-0.004513259045779705
1717857513717246500,9.30824658203125,0.003367300843819976,0.009436644613742828,-0.005671733990311623
1717857513727287600,9.31828759765625,0.002822417998686433,0.008735966868698597,-0.006115416996181011
1717857513737328600,9.32832861328125,0.0041121868416666985,0.010104565881192684,-0.005142563953995705
1717857513747370500,9.33837060546875,0.0034908715169876814,0.0087820403277874,-0.004833370912820101
1717857513757411600,9.34841162109375,0.0029409287963062525,0.008520517498254776,-0.006039250176399946
1717857513767452400,9.358452392578124,0.0032623722217977047,0.010617757216095924,-0.006388390902429819
1717857513777494800,9.368494873046876,0.003204315435141325,0.00896633043885231,-0.0068448567762970924
1717857513787535600,9.37853564453125,0.004335093777626753,0.009702960960566998,-0.004254932515323162
1717857513797576700,9.38857666015625,0.0044229780323803425,0.008449943736195564,-0.005081044975668192
1717857513807618600,9.39861865234375,0.003768372815102339,0.008541024290025234,-0.005249623209238052
1717857513817659600,9.40865966796875,0.0029561088886111975,0.0089404983446002,-0.005527923349291086
1717857513827700700,9.41870068359375,0.003757453989237547,0.009409480728209019,-0.004857605788856745
1717857513837742600,9.42874267578125,0.005556685384362936,0.009290437214076519,-0.005339637864381075
1717857513847783700,9.43878369140625,0.004667456261813641,0.00817856751382351,-0.005029912106692791
1717857513857824500,9.448824462890625,0.0033603766933083534,0.008645419962704182,-0.006441654171794653
1717857513867866600,9.45886669921875,0.003468767274171114,0.009118929505348206,-0.005428853910416365
1717857513877907500,9.468907470703124,0.002341983839869499,0.0086028091609478,-0.006759369280189276
1717857513887949600,9.478949462890625,0.005256014876067638,0.00896606408059597,-0.006041114684194326
1717857513897990100,9.488990234375,0.004090082831680775,0.009306150488555431,-0.005632319487631321
1717857513908031200,9.49903125,0.0036128442734479904,0.009472331032156944,-0.004622182343155146
1717857513918073000,9.509072998046875,0.003692472819238901,0.00936101097613573,-0.004887433256953955
1717857513928114200,9.5191142578125,0.005283445119857788,0.010015882551670074,-0.005768939387053251
1717857513938155300,9.5291552734375,0.004771851934492588,0.009733853861689568,-0.005856823641806841
1717857513948197000,9.539197021484375,0.005135905928909779,0.008549545891582966,-0.00788508728146553
1717857513958238200,9.54923828125,0.004018976353108883,0.008011055178940296,-0.007075486239045858
1717857513968279000,9.559279052734375,0.0018660769565030932,0.007465106900781393,-0.006697317585349083
1717857513978321200,9.569321044921875,0.0033814155030995607,0.00771757448092103,-0.005822469014674425
1717857513988362000,9.579362060546876,0.004060788080096245,0.008123972453176975,-0.005161472596228123
1717857513998403000,9.589403076171875,0.0033835461363196373,0.009066731669008732,-0.005045891273766756
1717857514008445200,9.599445068359374,0.0028706213925033808,0.01110618095844984,-0.0054786549881100655
1717857514018486300,9.609486328125,0.002858903491869569,0.008704009465873241,-0.0054605454206466675
1717857514028527400,9.61952734375,0.005271727219223976,0.010645453818142414,-0.0049430932849645615
1717857514038569200,9.6295693359375,0.0034916705917567015,0.007988417521119118,-0.006821686867624521
1717857514048610300,9.6396103515625,0.004066913388669491,0.007667507044970989,-0.006686664652079344
1717857514058651100,9.649651123046874,0.0029577065724879503,0.00797137338668108,-0.006646717432886362
1717857514068693200,9.659693359375,0.0035111114848405123,0.007755657657980919,-0.00694845337420702
1717857514078734000,9.669734130859375,0.0030120352748781443,0.009137039072811604,-0.0076006618328392506
1717857514088775200,9.679775146484374,0.004320180043578148,0.010103234089910984,-0.005002481862902641
1717857514098817000,9.689817138671875,0.003948136232793331,0.009367136284708977,-0.004471180960536003
1717857514108858000,9.699858154296875,0.002147839404642582,0.008645952679216862,-0.006268814671784639
1717857514118899200,9.709899169921876,0.0049489522352814674,0.010292585007846355,-0.004169178660959005
1717857514128941000,9.719941162109375,0.002371544949710369,0.008875783532857895,-0.005341236013919115
1717857514138982100,9.729982177734374,0.0036397422663867474,0.00902625173330307,-0.005269064102321863
1717857514149023000,9.74002294921875,0.003832555143162608,0.00785286258906126,-0.006398244295269251
1717857514159065300,9.7500654296875,0.004166515544056892,0.008464857004582882,-0.005678924731910229
1717857514169106200,9.760106201171874,0.003968109842389822,0.008747152984142303,-0.0065292720682919025
1717857514179147300,9.770147216796875,0.003323625074699521,0.009621734730899334,-0.006232329644262791
1717857514189189000,9.780189208984375,0.0038125813007354736,0.009662747383117676,-0.005172391422092915
1717857514199230200,9.790230224609376,0.004081294406205416,0.009377522394061089,-0.004270112607628107
1717857514209272000,9.80027197265625,0.0032048479188233614,0.008241417817771435,-0.004412591457366943
1717857514219313200,9.810313232421874,0.0037555897142738104,0.008230232633650303,-0.004592887591570616
1717857514229354200,9.820354248046876,0.003320429241284728,0.008212922140955925,-0.00552179804071784
1717857514239396000,9.83039599609375,0.003305781865492463,0.008698416873812675,-0.006935670506209135
1717857514249437200,9.840437255859374,0.004220843780785799,0.009379653260111809,-0.005561745725572109
1717857514259478000,9.85047802734375,0.003608849598094821,0.008102667517960072,-0.006068279035389423
1717857514269520100,9.86052001953125,0.004381166305392981,0.010280600748956203,-0.005663478281348944
1717857514279561000,9.87056103515625,0.004239752423018217,0.009459015913307667,-0.0062483083456754684
1717857514289602000,9.88060205078125,0.00415373221039772,0.007803061977028847,-0.0059995693154633045
1717857514299644200,9.89064404296875,0.003522030543535948,0.009829993359744549,-0.0034669029992073774
1717857514309685200,9.900685302734376,0.003802194958552718,0.00878923013806343,-0.0059479037299752235
1717857514319726300,9.910726318359375,0.005446430761367083,0.008328770287334919,-0.005980394314974546
1717857514329768200,9.920768310546874,0.004511128645390272,0.009414274245500565,-0.004716191906481981
1717857514339809300,9.930809326171875,0.006515157409012318,0.00878949649631977,-0.00757935643196106
1717857514349850000,9.94085009765625,0.0037587855476886034,0.009392969310283661,-0.005150021053850651
1717857514359892200,9.950892333984376,0.004983839578926563,0.009132245555520058,-0.0065228804014623165
1717857514369933000,9.96093310546875,0.0031672974582761526,0.00857537891715765,-0.006894391495734453
1717857514379974100,9.97097412109375,0.0033401367254555225,0.008557802066206932,-0.007394533138722181
1717857514390016000,9.98101611328125,0.003073021536692977,0.009363674558699131,-0.005936185829341412
1717857514400057000,9.99105712890625,0.003975566942244768,0.008826248347759247,-0.006062420085072517
1717857514410098200,10.00109814453125,0.0043713124468922615,0.008053665049374104,-0.005893575493246317
1717857514420140300,10.011140380859375,0.0037766287568956614,0.00885101594030857,-0.005979595705866814
1717857514430181400,10.021181396484375,0.003925765864551067,0.009225189685821533,-0.005468268413096666
1717857514440222200,10.03122216796875,0.003884752979502082,0.008498413488268852,-0.005595034919679165
1717857514450264300,10.041264404296875,0.005077050067484379,0.00803262647241354,-0.005723932292312384
1717857514460305200,10.05130517578125,0.003668770659714937,0.010239588096737862,-0.006672283634543419
1717857514470346200,10.06134619140625,0.0038096518255770206,0.009604690596461296,-0.005599296186119318
1717857514480388000,10.07138818359375,0.001776328426785767,0.009947705082595348,-0.006727677304297686
1717857514490429200,10.08142919921875,0.0035201662685722113,0.00803422462195158,-0.0073053170926868916
1717857514500470300,10.09147021484375,0.0033816818613559008,0.009112006053328514,-0.004769721534103155
1717857514510512000,10.10151220703125,0.0030003173742443323,0.008975119329988956,-0.00512791657820344
1717857514520553200,10.11155322265625,0.0040765004232525826,0.009704292751848698,-0.005035771057009697
1717857514530595000,10.121594970703125,0.004147074185311794,0.009520001709461212,-0.006372678093612194
1717857514540636200,10.13163623046875,0.0048424256965518,0.008748483844101429,-0.005781989078968763
1717857514550677000,10.141677001953125,0.004150536376982927,0.01056502666324377,-0.0057100835256278515
1717857514560719400,10.15171923828125,0.0041310954838991165,0.009621734730899334,-0.0048951562494039536
1717857514570760200,10.16176025390625,0.004366518929600716,0.009469135664403439,-0.005628324579447508
1717857514580801300,10.17180126953125,0.004066114313900471,0.007834487594664097,-0.007656321860849857
1717857514590843100,10.181843017578124,0.004856540355831385,0.009693640284240246,-0.004780640359967947
1717857514600884200,10.19188427734375,0.002832538215443492,0.009437976405024529,-0.006688529159873724
1717857514610925300,10.20192529296875,0.003177683800458908,0.009526659734547138,-0.005616340320557356
1717857514620967200,10.21196728515625,0.003347060875967145,0.009253153577446938,-0.005910086911171675
1717857514631008300,10.22200830078125,0.005760150961577892,0.00818069837987423,-0.005400358233600855
1717857514641049000,10.232049072265625,0.0037015276029706,0.008235027082264423,-0.004566522315144539
1717857514651091200,10.24209130859375,0.004062918480485678,0.008656871505081654,-0.0065710837952792645
1717857514661132000,10.252132080078125,0.0039047268219292164,0.00999297946691513,-0.0046477485448122025
1717857514671173000,10.262173095703124,0.004571848548948765,0.009636647999286652,-0.006400641519576311
1717857514681215000,10.272215087890626,0.004259193316102028,0.008905877359211445,-0.0064373929053545
1717857514691256000,10.282256103515625,0.0043832967057824135,0.007072556763887405,-0.006208893842995167
1717857514701297200,10.292297119140626,0.0025715483352541924,0.009241701103746891,-0.007032609544694424
1717857514711339300,10.30233935546875,0.004595017991960049,0.008973254822194576,-0.0068387314677238464
1717857514721380400,10.31238037109375,0.002773682354018092,0.009048089385032654,-0.006307696923613548
1717857514731421200,10.322421142578126,0.003397927153855562,0.009860886260867119,-0.005809685681015253
1717857514741463300,10.33246337890625,0.003985154442489147,0.008157795295119286,-0.005676261615008116
1717857514751504100,10.342504150390624,0.003623496973887086,0.00893943291157484,-0.005085039883852005
1717857514761545200,10.352545166015625,0.0027262780349701643,0.009297095239162445,-0.005250688176602125
1717857514771587000,10.362587158203125,0.005073055624961853,0.009439041838049889,-0.005792108830064535
1717857514781628200,10.372628173828126,0.0032059133518487215,0.00956900417804718,-0.008024370297789574
1717857514791669200,10.382669189453125,0.003820570884272456,0.00794527493417263,-0.006913299672305584
1717857514801711000,10.392711181640625,0.005006476305425167,0.008082959800958633,-0.005830192007124424
1717857514811752200,10.402752197265626,0.0036549223586916924,0.008863799273967743,-0.005953230429440737
1717857514821793000,10.41279296875,0.0033654365688562393,0.008868326433002949,-0.005647233221679926
1717857514831835400,10.42283544921875,0.003185939509421587,0.008406267501413822,-0.005673864856362343
1717857514841876200,10.432876220703125,0.005080245900899172,0.008580971509218216,-0.005528189707547426
1717857514851917300,10.442917236328125,0.003799265483394265,0.008249141275882721,-0.006730606779456139
1717857514861959200,10.452959228515626,0.004393683280795813,0.009312009438872337,-0.004969192203134298
1717857514872000300,10.463000244140625,0.003225088119506836,0.008144479244947433,-0.007090133614838123
1717857514882041000,10.473041015625,0.003157177474349737,0.0075426045805215836,-0.005806223955005407
1717857514892083700,10.483083740234376,0.00433056615293026,0.00757935643196106,-0.005334311630576849
1717857514902124500,10.49312451171875,0.0028397287242114544,0.008332764729857445,-0.006478139199316502
1717857514912165600,10.50316552734375,0.00469595193862915,0.009180981665849686,-0.006071740761399269
1717857514922207500,10.51320751953125,0.0028735508676618338,0.009387110359966755,-0.005603556986898184
1717857514932248600,10.52324853515625,0.0033686324022710323,0.009459814056754112,-0.00583738274872303
1717857514942289700,10.53328955078125,0.005422994960099459,0.009460080415010452,-0.005102350376546383
1717857514952331800,10.543331787109375,0.005625128746032715,0.008918127045035362,-0.006302370689809322
1717857514962372900,10.553372802734375,0.0044165863655507565,0.00887844618409872,-0.00631914846599102
1717857514972413700,10.56341357421875,0.004326038993895054,0.008508266881108284,-0.007289338391274214
1717857514982455800,10.573455810546875,0.004142280668020248,0.010063286870718002,-0.005049087107181549
1717857514992496600,10.58349658203125,0.004148405976593494,0.009750098921358585,-0.0059809270314872265
1717857515002538800,10.593538818359375,0.004683967679738998,0.008645952679216862,-0.00637773796916008
1717857515012579600,10.60357958984375,0.0026847326662391424,0.00872078724205494,-0.005746036302298307
1717857515022620700,10.61362060546875,0.004512992687523365,0.009179117158055305,-0.00558198569342494
1717857515032662500,10.62366259765625,0.0038932752795517445,0.00932239554822445,-0.005456816870719194
1717857515042703600,10.63370361328125,0.005153216887265444,0.008857407607138157,-0.007139136083424091
1717857515052744700,10.64374462890625,0.005601160228252411,0.01005156897008419,-0.004992361646145582
1717857515062786600,10.65378662109375,0.0038219024427235126,0.010142648592591286,-0.005148156546056271
1717857515072828000,10.663827880859374,0.005093029234558344,0.010271013714373112,-0.004762530792504549
1717857515082868700,10.67386865234375,0.004758536349982023,0.008556736633181572,-0.006857373286038637
1717857515092910800,10.683910888671875,0.004179564770311117,0.006618221756070852,-0.008462194353342056
1717857515102951700,10.69395166015625,0.004070641472935677,0.008284028619527817,-0.004737497307360172
1717857515112992800,10.70399267578125,0.005489041097462177,0.009721070528030396,-0.005583583377301693
1717857515123034600,10.71403466796875,0.002861832967028022,0.010547981597483158,-0.005646966863423586
1717857515133075700,10.72407568359375,0.003471164032816887,0.010230532847344875,-0.00458622956648469
1717857515143116800,10.73411669921875,0.003835750976577401,0.006983607076108456,-0.00691942498087883
1717857515153158700,10.74415869140625,0.0035148400347679853,0.009351157583296299,-0.0046392264775931835
1717857515163199700,10.75419970703125,0.0035633095540106297,0.008555138483643532,-0.006013950332999229
1717857515173240600,10.764240478515624,0.0033782199025154114,0.009772202931344509,-0.005471197888255119
1717857515183282700,10.77428271484375,0.004445348400622606,0.008475776761770248,-0.0063005066476762295
1717857515193323500,10.784323486328125,0.004854942671954632,0.009881925769150257,-0.006854443810880184
1717857515203364600,10.794364501953124,0.00392762990668416,0.009636914357542992,-0.004623247776180506
1717857515213406700,10.80440673828125,0.005008607171475887,0.00890960544347763,-0.004596882499754429
1717857515223447800,10.81444775390625,0.003937483765184879,0.00899908784776926,-0.005071990191936493
1717857515233489000,10.824489013671876,0.0038248319178819656,0.008360727690160275,-0.006172674708068371
1717857515243530800,10.83453076171875,0.0022157500497996807,0.00939217023551464,-0.00560941593721509
1717857515253571800,10.84457177734375,0.0037321539130061865,0.008319981396198273,-0.006453638430684805
1717857515263612700,10.85461279296875,0.004062119405716658,0.01022707112133503,-0.006305566523224115
1717857515273654800,10.86465478515625,0.0029851372819393873,0.008104265667498112,-0.004758802708238363
1717857515283695600,10.874695556640624,0.0031590417493134737,0.008733304217457771,-0.006253102328628302
1717857515293736700,10.88473681640625,0.0027414578944444656,0.008280300535261631,-0.0057068876922130585
1717857515303778600,10.894778564453125,0.0036304211243987083,0.00854714959859848,-0.005723133217543364
1717857515313819600,10.904819580078126,0.00347489258274436,0.009666741825640202,-0.00558012118563056
1717857515323860700,10.91486083984375,0.0028519791085273027,0.009213205426931381,-0.0060267336666584015
1717857515333902600,10.924902587890625,0.005025384947657585,0.009400958195328712,-0.0054730623960494995
1717857515343943700,10.934943603515626,0.005712214391678572,0.009639045223593712,-0.006166815757751465
1717857515353984500,10.944984619140625,0.003919906914234161,0.009041432291269302,-0.005560946650803089
1717857515364027000,10.95502685546875,0.004172374494373798,0.008102933876216412,-0.0062339273281395435
1717857515374067700,10.965067626953125,0.00364746549166739,0.008350075222551823,-0.0062549663707613945
1717857515384108800,10.97510888671875,0.002234658459201455,0.00860573910176754,-0.005839513149112463
1717857515394150700,10.985150634765626,0.004868790972977877,0.009318400174379349,-0.005113801918923855
1717857515404191700,10.995191650390625,0.0029356025625020266,0.009623066522181034,-0.005311674904078245
1717857515414232800,11.00523291015625,0.004847751930356026,0.00983558688312769,-0.00538491178303957
1717857515424274700,11.015274658203126,0.004278101958334446,0.008681372739374638,-0.0044016726315021515
1717857515434315800,11.025315673828125,0.003391801845282316,0.0076001291163265705,-0.005290103144943714
1717857515444356600,11.035356689453126,0.004668787587434053,0.008852614089846611,-0.005840312223881483
1717857515454398700,11.045398681640625,0.003888747887685895,0.008786567486822605,-0.006894924212247133
1717857515464439600,11.055439453125,0.0038418760523200035,0.00950775109231472,-0.007102384231984615
1717857515474480600,11.065480712890626,0.004127100575715303,0.009224124252796173,-0.005346562247723341
1717857515484522500,11.0755224609375,0.0025238776579499245,0.008471248671412468,-0.006494384724646807
1717857515494563600,11.0855634765625,0.002870887517929077,0.008860336616635323,-0.005679191090166569
1717857515504604700,11.095604736328125,0.005269863177090883,0.008334096521139145,-0.006667756475508213
1717857515514646800,11.105646728515625,0.002910302486270666,0.008891762234270573,-0.0049215215258300304
1717857515524688000,11.11568798828125,0.00446878420189023,0.008919458836317062,-0.006334594916552305
1717857515534728700,11.125728759765625,0.0037438718136399984,0.00942199770361185,-0.006192914675921202
1717857515544770800,11.135770751953125,0.0029025792609900236,0.008493087254464626,-0.004709267523139715
1717857515554811600,11.145811767578126,0.0038714371621608734,0.008715461008250713,-0.005528988782316446
1717857515564852700,11.155852783203125,0.004165982827544212,0.008745821192860603,-0.005922603886574507
1717857515574894600,11.16589453125,0.0036826191935688257,0.009211341850459576,-0.004992894362658262
1717857515584935700,11.175935791015625,0.0038605183362960815,0.00917352456599474,-0.0052964948117733
1717857515594977500,11.1859775390625,0.003862382611259818,0.009974337182939053,-0.005891178734600544
1717857515605018600,11.1960185546875,0.0043867588974535465,0.008356733247637749,-0.006217149551957846
1717857515615059700,11.206059814453125,0.0036434705834835768,0.009519468992948532,-0.004996090196073055
1717857515625101800,11.216101806640625,0.004295678809285164,0.009297361597418785,-0.007678425870835781
1717857515635143000,11.226142822265626,0.003994475118815899,0.008234760724008083,-0.0060110208578407764
1717857515645183700,11.236183837890625,0.0037289580795913935,0.009130114689469337,-0.006759369280189276
1717857515655225900,11.246225830078124,0.0043742419220507145,0.009184177033603191,-0.008008924312889576
1717857515665266700,11.2562666015625,0.003451456781476736,0.008755674585700035,-0.00675351032987237
1717857515675307800,11.266307861328125,0.004763862583786249,0.008533300831913948,-0.0046152579598128796
1717857515685349600,11.276349609375,0.003011502558365464,0.00875088106840849,-0.005673864856362343
1717857515695390700,11.286390625,0.0030272151343524456,0.007748466916382313,-0.005906092468649149
1717857515705431800,11.296431884765624,0.004655738361179829,0.00800013542175293,-0.006154565140604973
1717857515715473700,11.3064736328125,0.0030482541769742966,0.009661681950092316,-0.006083458662033081
1717857515725514800,11.3165146484375,0.0031502533238381147,0.009690177626907825,-0.006654706783592701
1717857515735555600,11.3265556640625,0.003915112931281328,0.008268848992884159,-0.005691708065569401
1717857515745597700,11.33659765625,0.003674629610031843,0.008114918135106564,-0.005389438942074776
1717857515755638500,11.346638427734375,0.0024045680183917284,0.008598282001912594,-0.005621666554361582
1717857515765679600,11.3566796875,0.003073820611461997,0.008042213506996632,-0.005061337724328041
1717857515775721700,11.3667216796875,0.0031017838045954704,0.00950988195836544,-0.005134308245033026
1717857515785762800,11.3767626953125,0.0054850466549396515,0.008754609152674675,-0.005254683084785938
1717857515795804000,11.386803955078125,0.0032583775464445353,0.009588179178535938,-0.004166781902313232
1717857515805845800,11.396845703125,0.0046570696868002415,0.007992945611476898,-0.005132444202899933
1717857515815886800,11.406886962890624,0.002745985286310315,0.009288573637604713,-0.006442985497415066
1717857515825927700,11.416927734375,0.00566853815689683,0.008779376745223999,-0.007647533435374498
1717857515835969800,11.4269697265625,0.0049129994586110115,0.009958358481526375,-0.006018477492034435
1717857515846010600,11.4370107421875,0.00236328924074769,0.008889365009963512,-0.00743261631578207
1717857515856051700,11.4470517578125,0.0038546593859791756,0.006985737942159176,-0.006758303847163916
1717857515866093600,11.457093505859374,0.003537210635840893,0.010017480701208115,-0.005557750817388296
1717857515876134700,11.467134765625,0.004928978625684977,0.008861668407917023,-0.0057167415507137775
1717857515886175700,11.47717578125,0.003594468580558896,0.009156480431556702,-0.005575061310082674
1717857515896217600,11.487217529296874,0.005498362239450216,0.009444368071854115,-0.0066650933586061
1717857515906258700,11.4972587890625,0.00487118773162365,0.008734369650483131,-0.0049092709086835384
1717857515916299500,11.507299560546874,0.0032626385800540447,0.009182579815387726,-0.006767092272639275
1717857515926341600,11.517341552734376,0.0019433086272329092,0.009274991229176521,-0.006491987966001034
1717857515936382500,11.527382568359375,0.00355851580388844,0.009241967462003231,-0.004444549325853586
1717857515946423600,11.537423583984374,0.0033127060160040855,0.00868909526616335,-0.006585731171071529
1717857515956465400,11.54746533203125,0.003959055058658123,0.009548231028020382,-0.006042446009814739
1717857515966506500,11.557506591796875,0.004308195784687996,0.00929389987140894,-0.006042446009814739
1717857515976547600,11.567547607421876,0.002840793924406171,0.00948218535631895,-0.006772951222956181
1717857515986589400,11.57758935546875,0.0033009881153702736,0.00826964806765318,-0.00570023013278842
1717857515996630500,11.587630615234374,0.002749181119725108,0.008643821813166142,-0.003954261541366577
1717857516006671400,11.59767138671875,0.003500725142657757,0.007847536355257034,-0.006125536747276783
1717857516016713700,11.607713623046875,0.0035270904190838337,0.008656072430312634,-0.006095176562666893
1717857516026754600,11.617754638671874,0.0028820729348808527,0.006911701988428831,-0.006726345978677273
1717857516036795600,11.627795654296875,0.0035441347863525152,0.008653142489492893,-0.005890379659831524
1717857516046837500,11.63783740234375,0.004489823244512081,0.008504538796842098,-0.005416070576757193
1717857516056878600,11.647878662109376,0.005182511638849974,0.0101977763697505,-0.005696501582860947
1717857516066919700,11.657919677734375,0.002924150787293911,0.009523996151983738,-0.004549478180706501
1717857516076961500,11.66796142578125,0.0041425470262765884,0.009704825468361378,-0.005087703000754118
1717857516087002600,11.678002685546875,0.004052266012877226,0.009342102333903313,-0.0031763522420078516
1717857516097043500,11.68804345703125,0.00580728892236948,0.008274175226688385,-0.005750563926994801
1717857516107085600,11.69808544921875,0.0037081853952258825,0.00891120359301567,-0.006520750001072884
1717857516117126400,11.70812646484375,0.0041734399273991585,0.00806165486574173,-0.007262706756591797
1717857516127167500,11.71816748046875,0.005399825517088175,0.007774832658469677,-0.005173190496861935
1717857516137209300,11.728209228515626,0.0032559807877987623,0.010216951370239258,-0.007208910770714283
1717857516147250400,11.73825048828125,0.004907939583063126,0.01110405009239912,-0.006037119776010513
1717857516157291500,11.74829150390625,0.0035382758360356092,0.010511763393878937,-0.004562527406960726
1717857516167333600,11.758333740234375,0.004166515544056892,0.0072898706421256065,-0.006804110016673803
1717857516177374700,11.768374755859375,0.0025249430909752846,0.009645703248679638,-0.006317817140370607
1717857516187415600,11.77841552734375,0.003602191573008895,0.00839481595903635,-0.005167864263057709
1717857516197457700,11.788457763671875,0.003888481529429555,0.009799101389944553,-0.005134308245033026
1717857516207498500,11.79849853515625,0.004915129859000444,0.006944192573428154,-0.006172941066324711
1717857516217539600,11.80853955078125,0.003251187037676573,0.010411362163722515,-0.006518885493278503
1717857516227581400,11.81858154296875,0.004012851044535637,0.010426808148622513,-0.0057047572918236256
1717857516237622500,11.82862255859375,0.0037947380915284157,0.009545834735035896,-0.005283445119857788
1717857516247663600,11.83866357421875,0.003913781605660915,0.008728777058422565,-0.006000900641083717
1717857516257705500,11.84870556640625,0.004224572330713272,0.010171943344175816,-0.0057036918587982655
1717857516267746600,11.85874658203125,0.004744687583297491,0.00780625781044364,-0.0051508196629583836
1717857516277787400,11.868787353515625,0.0035483958199620247,0.009680057875812054,-0.005730856209993362
1717857516287829800,11.878829833984375,0.005193963181227446,0.00990269798785448,-0.005590774118900299
1717857516297870600,11.88887060546875,0.0043982104398310184,0.00803342554718256,-0.005860818549990654
1717857516307911700,11.89891162109375,0.0031582426745444536,0.00872105360031128,-0.007209709845483303
1717857516317953500,11.90895361328125,0.005075186025351286,0.008448345586657524,-0.007415039464831352
1717857516327994600,11.91899462890625,0.003718838095664978,0.00845606904476881,-0.00612180819734931
1717857516338035500,11.929035400390624,0.003320961957797408,0.009112006053328514,-0.00526693370193243
1717857516348077600,11.93907763671875,0.003862382611259818,0.009620402939617634,-0.005894640926271677
1717857516358118700,11.94911865234375,0.004989165812730789,0.0094507597386837,-0.006865629460662603
1717857516368159500,11.959159423828124,0.002794188680127263,0.009212672710418701,-0.005164668429642916
1717857516378201600,11.96920166015625,0.004778243601322174,0.009224656969308853,-0.006065881811082363
1717857516388242400,11.979242431640625,0.0032794165890663862,0.009182845242321491,-0.006616889964789152
1717857516398283500,11.989283447265626,0.005608617328107357,0.009290437214076519,-0.005111138802021742
1717857516408325400,11.999325439453125,0.0035843485966324806,0.009821205399930477,-0.005311408545821905
1717857516418366500,12.009366455078125,0.0035185683518648148,0.009496033191680908,-0.005797701422125101
1717857516428407600,12.019407470703126,0.00421232171356678,0.009802296757698059,-0.005134574603289366
1717857516438449700,12.02944970703125,0.0038482677191495895,0.009108809754252434,-0.005646966863423586
1717857516448490500,12.039490478515624,0.004226702731102705,0.008766060695052147,-0.006458964664489031
1717857516458531600,12.049531494140625,0.004830441437661648,0.009343167766928673,-0.006966562941670418
1717857516468573700,12.05957373046875,0.0041215079836547375,0.010120810940861702,-0.00549276964738965
1717857516478614500,12.069614501953126,0.002560895634815097,0.008444617502391338,-0.00689039658755064
1717857516488655600,12.079655517578125,0.0033846113365143538,0.00905741099268198,-0.0067599015310406685
1717857516498697500,12.089697509765625,0.004226702731102705,0.009328787215054035,-0.006423810962587595
