time,seconds_elapsed,z,y,x
1717857504652403200,0.2434033203125,0.002496394794434309,-0.0015559676103293896,-0.0005749519914388657
1717857504662445300,0.2534453125,0.00015574274584650993,0.0009013311937451363,-0.001596540678292513
1717857504672486400,0.263486328125,0.000021862797439098358,-0.00027829501777887344,0.00010493863373994827
1717857504682527200,0.27352734375,0.00014223763719201088,-0.0009126598015427589,-0.00044606951996684074
1717857504692569300,0.2835693359375,-0.0016173743642866611,0.000268690288066864,-0.00017921486869454384
1717857504702610200,0.293610107421875,-0.0014701015315949917,-0.0003534238785505295,-0.000384544488042593
1717857504712651300,0.3036513671875,-0.002253404352813959,0.0005468921735882759,0.0004045087844133377
1717857504722693000,0.313693115234375,-0.00033113453537225723,-0.0011013373732566833,-0.002052523661404848
1717857504732734200,0.323734130859375,-0.0014744421932846308,0.0008564498275518417,0.00007378542795777321
1717857504742776000,0.333776123046875,0.0006590164266526699,-0.00003996957093477249,-0.00039093615487217903
1717857504752817200,0.343817138671875,0.001180676743388176,0.0008914628997445107,-0.0003334204666316509
1717857504762858200,0.353858154296875,-0.00034797750413417816,-0.0015011206269264221,-0.0003669764846563339
1717857504772900000,0.363900146484375,-0.0004601399414241314,-0.0006728628650307655,-0.00009509315714240074
1717857504782941200,0.373941162109375,0.001049073413014412,-0.00160283874720335,0.0007187686860561371
1717857504792983300,0.3839833984375,0.0013390863314270973,-0.00010859593749046326,0.00009510992094874382
1717857504803024400,0.3940244140625,-0.0010907819960266352,0.0005699768662452698,-0.00020529469475150108
1717857504813065200,0.404065185546875,-0.0007234762888401747,0.00039050914347171783,0.00044313911348581314
1717857504823107300,0.414107421875,0.0006959885358810425,0.0007473733276128769,-0.0000215824693441391
1717857504833148200,0.424148193359375,0.0005146544426679611,0.00012929458171129227,0.0005608624778687954
1717857504843189200,0.434189208984375,0.0012701931409537792,0.00016311649233102798,0.0011675301939249039
1717857504853231000,0.444231201171875,0.0003650379367172718,0.00025744829326868057,0.00025755539536476135
1717857504863272200,0.454272216796875,0.00023693963885307312,0.000212973915040493,0.0006732745096087456
1717857504873314000,0.46431396484375,-0.0013247537426650524,-0.00007568486034870148,0.0017731543630361557
1717857504883356200,0.474356201171875,0.00004890467971563339,-0.0005467981100082397,-0.0010191700421273708
1717857504893397000,0.48439697265625,0.001721775159239769,0.001284741796553135,0.0011760550551116467
1717857504903439000,0.494439208984375,-0.0015371351037174463,-0.0004830639809370041,0.0002487422898411751
1717857504913480000,0.50447998046875,-0.0006034947000443935,-0.0004897220060229301,-0.0008639693260192871
1717857504923522000,0.51452197265625,-0.00006393808871507645,-0.001348857767879963,0.0000657401978969574
1717857504933563000,0.52456298828125,-0.0010911645367741585,-0.0004909969866275787,0.0009714453481137753
1717857504943604000,0.53460400390625,0.00042816903442144394,0.0006163455545902252,-0.0007673329673707485
1717857504953645800,0.544645751953125,-0.00005108583718538284,-0.00031415000557899475,-0.0013077566400170326
1717857504963687000,0.55468701171875,0.0019042068161070347,0.0005100984126329422,0.00027522630989551544
1717857504973729000,0.56472900390625,0.00017648469656705856,0.0010322779417037964,-0.00011973502114415169
1717857504983770000,0.57477001953125,0.0008667763322591782,0.000037853606045246124,0.001270168460905552
1717857504993811200,0.584811279296875,-0.0008714962750673294,0.0003637215122580528,-0.000575697049498558
1717857505003853000,0.59485302734375,-0.0010504608508199453,0.00017596781253814697,0.0006618741899728775
1717857505013894100,0.60489404296875,-0.0009684537071734667,0.001106024719774723,-0.0005364324897527695
1717857505023936000,0.61493603515625,-0.0016121396329253912,0.0006748586893081665,0.0016822470352053642
1717857505033977000,0.62497705078125,-0.0018938819412142038,0.0007720477879047394,0.0025943785440176725
1717857505044018000,0.635017822265625,-0.000939671415835619,0.0007771076634526253,-0.0006261821836233139
1717857505054060000,0.64506005859375,0.0006014006212353706,0.0024275844916701317,0.001934913219884038
1717857505064100900,0.655100830078125,-0.0008963611908257008,0.0027634091675281525,0.0024547623470425606
1717857505074142000,0.665141845703125,-0.0007627713494002819,0.002149420790374279,0.001733456738293171
1717857505084183800,0.675183837890625,-0.0005886007566004992,0.0006572511047124863,0.0008921641856431961
1717857505094225000,0.685224853515625,-0.0009445114992558956,-0.0009554019197821617,-0.0002733157016336918
1717857505104267000,0.69526708984375,-0.0010662181302905083,-0.0003332868218421936,-0.001075193751603365
1717857505114308000,0.70530810546875,0.00010281335562467575,-0.000019863247871398926,-0.0004018726758658886
1717857505124349200,0.71534912109375,-0.00022022798657417297,0.00017002038657665253,-0.00032304320484399796
1717857505134391000,0.72539111328125,0.0008673602715134621,0.0007859803736209869,-0.000660938210785389
1717857505144432000,0.73543212890625,0.0007733507081866264,0.00007172022014856339,-0.00017038360238075256
1717857505154474000,0.745473876953125,0.00032414402812719345,-0.0014945520088076591,0.0007749106734991074
1717857505164515000,0.75551513671875,-0.000544313108548522,-0.0006010616198182106,-0.00045600254088640213
1717857505174556000,0.765555908203125,0.00048686517402529716,0.000635756179690361,0.00008881930261850357
1717857505184598000,0.775597900390625,-0.0007222101557999849,0.0009143222123384476,0.000007060356438159943
1717857505194638800,0.785638916015625,-0.00045081740245223045,0.00014619063585996628,0.0006297393701970577
1717857505204681000,0.795680908203125,-0.0004561436362564564,0.00028467457741498947,0.00037833675742149353
1717857505214721800,0.8057216796875,0.0003398736007511616,-0.0001808367669582367,0.0006010998040437698
1717857505224763000,0.815762939453125,0.0005193701945245266,0.0004932088777422905,0.0008056308142840862
1717857505234805000,0.825804931640625,-0.0019580877851694822,-0.0009608389809727669,0.0009153452701866627
1717857505244846000,0.83584619140625,0.00043103378266096115,-0.0016250312328338623,0.0010477043688297272
1717857505254888000,0.845887939453125,-0.0004185305442661047,0.000002493150532245636,0.0011763274669647217
1717857505264929000,0.855928955078125,0.00004698988050222397,0.0009777434170246124,-0.001005600206553936
1717857505274970000,0.86597021484375,-0.0004404704086482525,-0.0006049051880836487,0.0015208469703793526
1717857505285012000,0.876011962890625,-0.00048680929467082024,0.00010136514902114868,0.0019786444026976824
1717857505295053000,0.886052978515625,-0.0011204052716493607,0.0007301010191440582,0.0007181926630437374
1717857505305095000,0.896094970703125,-0.00017817877233028412,0.000032619573175907135,0.00023616058751940727
1717857505315136000,0.906135986328125,-0.00012256018817424774,0.0008222665637731552,0.0009246543049812317
1717857505325176800,0.9161767578125,0.00020234519615769386,-0.0013197134248912334,-0.00042583467438817024
1717857505335219200,0.92621923828125,0.0006426363252103329,0.000607016496360302,-0.00079712038859725
1717857505345260000,0.936260009765625,-0.0012423491571098566,-0.0016265762969851494,-0.0007260139100253582
1717857505355301000,0.946301025390625,-0.0016188735608011484,-0.0016708667390048504,0.0011415546759963036
1717857505365343000,0.956343017578125,-0.0005962196737527847,0.0008839033544063568,0.00008241552859544754
1717857505375384000,0.966384033203125,0.0008309283293783665,0.0006778594106435776,-0.0011073872447013855
1717857505385426000,0.976426025390625,-0.0005083754658699036,-0.00036396924406290054,-0.001285020262002945
1717857505395467000,0.986467041015625,-0.0008196579292416573,0.0007295245304703712,0.0016035400331020355
1717857505405508000,0.996508056640625,0.00014547165483236313,0.000246427021920681,0.0007875473238527775
1717857505415550000,1.006550048828125,0.00038576824590563774,0.00008888076990842819,0.00024636415764689445
1717857505425591000,1.016591064453125,0.000610539223998785,0.0007552029564976692,-0.0013115848414599895
1717857505435633000,1.0266328125,-0.00017238641157746315,0.0002940436825156212,-0.0010656635276973248
1717857505445674000,1.036674072265625,-0.0008272577542811632,0.0009667584672570229,-0.0012720581144094467
1717857505455714800,1.04671484375,0.001779360231012106,-0.000772891566157341,-0.000011076685041189194
1717857505465757200,1.056757080078125,-0.000037182122468948364,-0.0007369397208094597,0.0001404574140906334
1717857505475798000,1.066798095703125,-0.0007602539844810963,-0.00011260993778705597,-0.0000832979567348957
1717857505485840100,1.076840087890625,0.0006373729556798935,-0.000011675991117954254,0.00047037284821271896
1717857505495881000,1.086880859375,-0.0007683446165174246,-0.00007204711437225342,-0.0012040543369948864
1717857505505922000,1.096922119140625,-0.00018537836149334908,-0.0007226569578051567,0.000284386333078146
1717857505515964000,1.1069638671875,0.0002812659367918968,-0.0010018851608037949,-0.00012633437290787697
1717857505526005000,1.1170048828125,0.0009603719227015972,-0.000141950324177742,0.0003825956955552101
1717857505536046000,1.127046142578125,0.003259857650846243,-0.002005854155868292,-0.0009283730760216713
1717857505546088000,1.137087890625,-0.000917044235393405,0.0005590366199612617,-0.00039440952241420746
1717857505556129000,1.14712890625,-0.00003353552892804146,-0.0006214892491698265,-0.001992547884583473
1717857505566171000,1.1571708984375,-0.0011342198122292757,-0.00005716551095247269,0.0000029588118195533752
1717857505576212000,1.1672119140625,0.00028655072674155235,-0.0011253291741013527,-0.0004137689247727394
1717857505586252800,1.177252685546875,-0.0007105369586497545,0.00033541489392518997,0.0008978378027677536
1717857505596295200,1.187295166015625,-0.0012768153101205826,-0.0013648620806634426,-0.0004645390436053276
1717857505606336000,1.1973359375,0.0000323946587741375,-0.0009323647245764732,-0.0012688138522207737
1717857505616378000,1.207378173828125,0.00009260186925530434,-0.0006081368774175644,0.00019603176042437553
1717857505626419000,1.2174189453125,0.0005448064766824245,-0.0008456911891698837,0.00023198453709483147
1717857505636460000,1.2274599609375,0.0008392003364861012,-0.0006188591942191124,0.0013369657099246979
1717857505646502100,1.237502197265625,0.00032787350937724113,0.0006871549412608147,-0.000012191478163003922
1717857505656543000,1.24754296875,0.00045425351709127426,-0.0017381147481501102,-0.000944970641285181
1717857505666584000,1.257583984375,-0.0009561567567288876,0.00009973254054784775,-0.0015801344998180866
1717857505676626000,1.2676259765625,0.001343287993222475,-0.00029558129608631134,0.0012102201581001282
1717857505686667000,1.2776669921875,0.0009568631649017334,-0.0010290155187249184,-0.0011357581242918968
1717857505696708900,1.287708984375,-0.0009022997692227364,-0.001084079034626484,-0.00002627447247505188
1717857505706750000,1.29775,0.000595462042838335,-0.00031362660229206085,0.0009766719304025173
1717857505716791000,1.307791015625,-0.0002984926104545593,0.0011503184214234352,-0.00046731065958738327
1717857505726833200,1.317833251953125,-0.0023134401999413967,0.0001116851344704628,0.000006998423486948013
1717857505736874000,1.3278740234375,0.00010827276855707169,0.0009791087359189987,0.00010434770956635475
1717857505746915000,1.3379150390625,-0.0001910664141178131,-0.0007889643311500549,0.0008300589397549629
1717857505756957000,1.34795703125,-0.0005310571286827326,0.00036004558205604553,0.0016261497512459755
1717857505766998000,1.357998046875,-0.0013270759955048561,0.0000828104093670845,0.001499116886407137
1717857505777040100,1.3680400390625,-0.0011184066534042358,-0.0015706256963312626,0.0007168976590037346
1717857505787081000,1.3780810546875,0.0010041329078376293,-0.00256185419857502,-0.0007470422424376011
1717857505797122000,1.3881220703125,-0.0006368618924170732,-0.0037287049926817417,-0.0013428046368062496
1717857505807164000,1.398163818359375,-0.0000850548967719078,-0.001442913431674242,-0.002017383463680744
1717857505817205000,1.408205078125,-0.00044617196545004845,-0.00019437819719314575,-0.00021709827706217766
1717857505827245800,1.418245849609375,0.00026675639674067497,0.0013433312997221947,0.0008545573800802231
1717857505837288200,1.4282880859375,0.0007268600165843964,-0.0002721371129155159,-0.0006606257520616055
1717857505847329000,1.4383291015625,-0.0009741007816046476,-0.0006332611665129662,-0.0005759373307228088
1717857505857371100,1.44837109375,-0.0007429858669638634,-0.0005355542525649071,0.00043167266994714737
1717857505867412000,1.458411865234375,-0.0004226076416671276,-0.00009639933705329895,0.0011110450141131878
1717857505877453000,1.468453125,-0.0011950351763516665,0.0006702709943056107,0.00046986574307084084
1717857505887494100,1.478494140625,0.0005408134311437607,0.0008433768525719643,-0.0006308187730610371
1717857505897535000,1.488534912109375,-0.00008180690929293633,-0.001007567159831524,-0.0010582339018583298
1717857505907577000,1.4985771484375,-0.0007222974672913551,0.0004869988188147545,-0.0003378484398126602
1717857505917618200,1.5086181640625,-0.00025056791491806507,-0.00039966311305761337,-0.0007851822301745415
1717857505927659300,1.5186591796875,0.0018013976514339447,-0.0008963430300354958,-0.0009140791371464729
1717857505937701000,1.528701171875,-0.0008198409341275692,-0.002150891814380884,-0.00039237039163708687
1717857505947742200,1.5387421875,0.00022651534527540207,-0.001129569485783577,-0.00023630913347005844
1717857505957783300,1.548783203125,-0.001311577158048749,0.0021171048283576965,-0.00028768042102456093
1717857505967825200,1.5588251953125,-0.0005544405430555344,-0.0013812235556542873,-0.0005635838024318218
1717857505977866200,1.5688662109375,0.0005987044423818588,-0.000028872862458229065,0.001829143613576889
1717857505987908000,1.578908203125,-0.0006756179500371218,-0.00008719600737094879,-0.0009437398985028267
1717857505997949200,1.58894921875,-0.0011173153761774302,0.0004445016384124756,0.0005462621338665485
1717857506007990000,1.598989990234375,0.0018704850226640701,-0.00021835975348949432,0.00024106400087475777
1717857506018032000,1.6090322265625,-0.0006678842473775148,0.0007662009447813034,0.0009930497035384178
1717857506028073000,1.619072998046875,0.0007356018759310246,-0.0020487606525421143,0.00065962178632617
1717857506038114000,1.629114013671875,0.00039114104583859444,-0.0016706530004739761,-0.0019156425260007381
1717857506048156200,1.63915625,0.00035465555265545845,0.00029822252690792084,0.00011661555618047714
1717857506058197200,1.649197265625,-0.0012365682050585747,0.00007928535342216492,-0.00001628044992685318
1717857506068238300,1.65923828125,0.001274260226637125,0.0002707662060856819,0.001495329663157463
1717857506078280200,1.6692802734375,0.0004761400632560253,-0.0018892181105911732,0.00034557702019810677
1717857506088321300,1.6793212890625,0.0011829426512122154,-0.0012505920603871346,-0.00041635334491729736
1717857506098363100,1.689363037109375,0.00009426986798644066,-0.00009934138506650925,0.001006423495709896
1717857506108404200,1.699404296875,-0.0012897751294076443,0.00044634006917476654,0.0009963037446141243
1717857506118445000,1.709445068359375,-0.0006388402543962002,-0.0011040596291422844,0.0007784534245729446
1717857506128487200,1.719487060546875,-0.00015254737809300423,-0.00062575563788414,-0.000393071211874485
1717857506138528000,1.729528076171875,-0.00024074199609458447,-0.0003713779151439667,-0.0006071156822144985
1717857506148569000,1.739569091796875,-0.0010087976697832346,0.00013808533549308777,-0.0001599709503352642
1717857506158611000,1.74961083984375,-0.0008808225393295288,0.00017759762704372406,0.001447955146431923
1717857506168652000,1.759652099609375,-0.0008573867380619049,0.00040130317211151123,0.00033235689625144005
1717857506178694100,1.769694091796875,0.0016894042491912842,-0.0008150571957230568,0.00028750626370310783
1717857506188735200,1.7797353515625,-0.0009860072750598192,-0.00006590969860553741,-0.0004579126834869385
1717857506198776300,1.7897763671875,-0.00011733965948224068,-0.00024024862796068192,0.00006788177415728569
1717857506208818200,1.799818115234375,-0.0009732798207551241,0.00008438993245363235,-0.0001427740789949894
1717857506218859300,1.809859375,-0.000227305106818676,0.0009255483746528625,-0.0008252044208347797
1717857506228900000,1.819900146484375,0.0011820397339761257,-0.0014020539820194244,-0.0007503698579967022
1717857506238942200,1.829942138671875,-0.00047034979797899723,0.0000545186921954155,-0.0007593706250190735
1717857506248983000,1.839983154296875,-0.0008349367417395115,-0.0000797053799033165,-0.00029065459966659546
1717857506259025200,1.850025146484375,-0.0013726805336773396,0.00047421548515558243,-0.0007242844440042973
1717857506269066000,1.86006591796875,-0.00005042087286710739,0.000512298196554184,0.0012669609859585762
1717857506279107000,1.870107177734375,-0.00008595176041126251,-0.000050897710025310516,-0.000867270864546299
1717857506289149000,1.88014892578125,0.000873851589858532,-0.0008612973615527153,-0.0012832568027079105
1717857506299190000,1.89018994140625,-0.0008679074235260487,-0.00018319953233003616,0.0012436672113835812
1717857506309231000,1.900231201171875,0.00013583805412054062,0.0006242711097002029,-0.00017979228869080544
1717857506319273200,1.910273193359375,0.0005374988541007042,-0.0007744217291474342,0.0014012106694281101
1717857506329314300,1.920314208984375,0.00038037216290831566,-0.0001650908961892128,0.001357534434646368
1717857506339356200,1.930356201171875,-0.0015394121874123812,-0.0006661424413323402,0.00016497261822223663
1717857506349397200,1.940397216796875,-0.0013721657451242208,0.000002045184373855591,-0.0018965806812047958
1717857506359438000,1.95043798828125,0.00011131865903735161,0.0007742634043097496,0.00039925985038280487
1717857506369480200,1.960480224609375,-0.0017398444470018148,-0.000032141804695129395,0.00002908008173108101
1717857506379521000,1.97052099609375,-0.0007057385519146919,-0.0004486851394176483,0.001048230566084385
1717857506389562000,1.98056201171875,-0.0007680563721805811,-0.00023696385324001312,-0.0003624456003308296
1717857506399604000,1.99060400390625,-0.00011749239638447762,-0.00013561639934778214,0.0013509662821888924
1717857506409645000,2.00064501953125,-0.00123735168017447,0.0007280465215444565,0.0003746515139937401
1717857506419687200,2.010687255859375,0.0011398689821362495,0.0006421571597456932,-0.00016480032354593277
1717857506429728300,2.020728271484375,-0.001117426436394453,-0.0007876940071582794,-0.0005767913535237312
1717857506439769300,2.030769287109375,-0.0010994067415595055,0.0010910853743553162,-0.0004419330507516861
1717857506449811200,2.040811279296875,0.0006558825261890888,0.0006561903282999992,-0.0004275520332157612
1717857506459852300,2.050852294921875,-0.0015057153068482876,0.0009605614468455315,0.0014776377938687801
1717857506469893000,2.06089306640625,-0.0007525733672082424,0.0007086265832185745,0.00031277118250727654
1717857506479935200,2.070935302734375,-0.0018972363322973251,-0.00024125725030899048,0.0011942218989133835
1717857506489976000,2.08097607421875,0.0014713960699737072,0.0005739359185099602,0.0013803769834339619
1717857506500017200,2.09101708984375,0.0005303113721311092,-0.00035445578396320343,-0.0009264778345823288
1717857506510059000,2.10105908203125,-0.001148811774328351,-0.0012892256490886211,-0.00039544329047203064
1717857506520100000,2.11110009765625,0.00045278435572981834,-0.0001809811219573021,0.00014987774193286896
1717857506530142000,2.121141845703125,-0.0011392536107450724,-0.0004520909860730171,0.00043403683230280876
1717857506540183000,2.13118310546875,-0.0004141491372138262,-0.0007588155567646027,0.000019884202629327774
1717857506550224100,2.14122412109375,0.0008183615282177925,0.00018101371824741364,0.0014478713274002075
1717857506560266200,2.151266357421875,-0.00041686883196234703,-0.0004052557051181793,0.000406729057431221
1717857506570307300,2.161307373046875,-0.0010879852343350649,0.00030713994055986404,-0.000710733700543642
1717857506580348200,2.17134814453125,0.0009157145395874977,-0.0004969742149114609,0.00009736744686961174
1717857506590390300,2.181390380859375,0.0019314438104629517,0.0008314112201333046,0.00008591590449213982
1717857506600431000,2.19143115234375,0.00016925297677516937,0.0006042942404747009,0.002292945748195052
1717857506610473200,2.20147314453125,-0.00105979572981596,-0.0004284791648387909,-0.0009406642057001591
1717857506620514000,2.21151416015625,-0.0004098392091691494,-0.0007445812225341797,0.0006473418325185776
1717857506630555100,2.22155517578125,0.00011427095159888268,0.0004080347716808319,-0.0014269943349063396
1717857506640597000,2.231596923828125,-0.0009700586088001728,0.0002340329810976982,-0.00004311045631766319
1717857506650638000,2.24163818359375,0.0004139863885939121,0.0008337767794728279,-0.00045004161074757576
1717857506660679200,2.25167919921875,-0.0005395237822085619,-0.0008529508486390114,-0.00019585900008678436
1717857506670721000,2.261720947265625,0.0013521197251975536,0.0008480101823806763,-0.00028347689658403397
1717857506680762000,2.27176220703125,0.000016345176845788956,0.0021964088082313538,0.0019282177090644836
1717857506690803000,2.281802978515625,-0.00041988049633800983,-0.00011308491230010986,0.0007154140621423721
1717857506700845300,2.29184521484375,0.0008369586430490017,0.00029537081718444824,0.0005409857258200645
1717857506710886100,2.30188623046875,-0.0008474907372146845,-0.00116830226033926,-0.0020835595205426216
1717857506720928300,2.31192822265625,-0.00030272151343524456,-0.002747051417827606,-0.0015715793706476688
1717857506730969000,2.321968994140625,0.0003614709712564945,-0.00046472251415252686,-0.0013782340101897717
1717857506741010200,2.33201025390625,-0.0011800182983279228,-0.00043093226850032806,0.000253165140748024
1717857506751052000,2.342052001953125,0.0013651647605001926,0.0003690812736749649,0.001558646559715271
1717857506761093000,2.352093017578125,-0.0012513799592852592,0.000040706247091293335,0.0009675053879618645
1717857506771134200,2.36213427734375,-0.001441263360902667,-0.0000940496101975441,-0.00018830643966794014
1717857506781176000,2.372176025390625,-0.0014598104171454906,0.0005536358803510666,0.0009858226403594017
1717857506791217200,2.382217041015625,-0.00040226918645203114,0.00024044793099164963,0.0010388195514678955
1717857506801259000,2.392259033203125,-0.000509797828271985,-0.00036296527832746506,0.0007151411846280098
1717857506811300000,2.402300048828125,-0.0006315044593065977,-0.0007192958146333694,-0.0006755618378520012
1717857506821341000,2.4123408203125,0.0004935441538691521,-0.0019980003125965595,0.0006874152459204197
1717857506831383300,2.42238330078125,-0.0010340448934584856,-0.0006419187411665916,-0.001480131410062313
1717857506841424100,2.432424072265625,0.00037529272958636284,-0.00024836137890815735,0.0018689804710447788
1717857506851465200,2.44246533203125,-0.0005799829959869385,-0.0020273528061807156,-0.0012317383661866188
1717857506861507000,2.452507080078125,-0.0005016301292926073,0.00039579253643751144,-0.000056921038776636124
1717857506871548200,2.462548095703125,-0.00013571185991168022,-0.0005285907536745071,0.0006757145747542381
1717857506881590000,2.472590087890625,-0.000685863196849823,-0.0007368447259068489,0.0007173912599682808
1717857506891632000,2.482632080078125,-0.001064032083377242,-0.00029422715306282043,-0.0009955540299415588
1717857506901673000,2.4926728515625,0.0006786808371543884,-0.0010493472218513489,-0.0008221855387091637
1717857506911715300,2.50271533203125,0.00017481110990047455,-0.0004277648404240608,-0.0008368329145014286
1717857506921756200,2.512756103515625,-0.0003117397427558899,0.00015298090875148773,-0.00031671300530433655
1717857506931797200,2.52279736328125,0.0009577893652021885,0.001123436726629734,0.0013067498803138733
1717857506941839000,2.532839111328125,0.0003428244963288307,-0.0009866217151284218,0.00036602094769477844
1717857506951880200,2.542880126953125,-0.002227392513304949,0.0008589485660195351,0.001307448372244835
1717857506961921300,2.55292138671875,0.00033076247200369835,-0.0003447979688644409,-0.0001703128218650818
1717857506971963100,2.562963134765625,-0.00007430417463183403,-0.0010199090465903282,0.00022996030747890472
1717857506982004200,2.573004150390625,-0.00016852980479598045,-0.0014358693733811378,-0.0014430219307541847
1717857506992046000,2.583046142578125,-0.0007381797768175602,0.000014488585293293,-0.0006888145580887794
1717857507002087200,2.593087158203125,-0.0002045168075710535,0.0003134896978735924,-0.0004847184754908085
1717857507012128000,2.6031279296875,0.0011875173076987267,0.00013159587979316711,-0.00010521803051233292
1717857507022170000,2.613170166015625,-0.0012969756498932838,0.00008164346218109131,-0.0005079209804534912
1717857507032211000,2.6232109375,-0.0007012265268713236,0.000349557027220726,0.0001072688028216362
1717857507042252000,2.633251953125,-0.00045546749606728554,-0.000057095661759376526,-0.001442556269466877
1717857507052294100,2.643294189453125,-0.0002543986774981022,-0.00003472529351711273,-0.0001647714525461197
1717857507062335200,2.653335205078125,-0.00013662409037351608,-0.0003262227401137352,0.0010787122882902622
1717857507072377000,2.663377197265625,-0.0006724521517753601,-0.001717990729957819,0.0008613984100520611
1717857507082418200,2.673418212890625,-0.0016119624488055706,0.0011055637151002884,-0.00041308626532554626
1717857507092459300,2.683459228515625,-0.0015469812788069248,0.00009729061275720596,-0.0005997736006975174
1717857507102501000,2.693501220703125,0.0007882742211222649,0.00098511204123497,-0.0008502560667693615
1717857507112542200,2.703542236328125,0.0011259634047746658,-0.00005724932998418808,-0.0003312057815492153
1717857507122583000,2.7135830078125,0.0008192779496312141,-0.00022462010383605957,0.0007620956748723984
1717857507132625200,2.723625244140625,0.0007660146802663803,0.001740526407957077,0.0002001686953008175
1717857507142666000,2.733666015625,0.0011953008361160755,0.00004387926310300827,0.0006322050467133522
1717857507152707000,2.74370703125,0.000047744717448949814,0.0012441659346222878,-0.00014916621148586273
1717857507162749000,2.7537490234375,0.0014927382580935955,0.0006671445444226265,0.0006414111703634262
1717857507172790000,2.7637900390625,-0.0009475161787122488,0.00020162388682365417,0.0008467407897114754
1717857507182832000,2.77383203125,-0.0015422396827489138,-0.000582314096391201,-0.0005129296332597733
1717857507192873200,2.783873291015625,-0.0007254481315612793,0.000291203148663044,0.00010785320773720741
1717857507202914300,2.793914306640625,0.0003094053827226162,-0.0016337176784873009,0.0014422484673559666
1717857507212956200,2.8039560546875,0.0002596043050289154,0.00019640661776065826,-0.00034686317667365074
1717857507222997200,2.813997314453125,0.0008798097260296345,0.0001892130821943283,0.000496243592351675
1717857507233038000,2.8240380859375,-0.00037959939800202847,0.0009894929826259613,0.0013838750310242176
1717857507243080200,2.834080078125,-0.0014372332952916622,0.0005174651741981506,-0.0000859512947499752
1717857507253121000,2.84412109375,-0.001231370959430933,-0.0006252974271774292,0.00027890177443623543
1717857507263163100,2.8541630859375,-0.0005084208678454161,0.000951061025261879,0.00021874671801924706
1717857507273204000,2.864203857421875,0.0012572547420859337,-0.0008542956784367561,0.00016388576477766037
1717857507283245000,2.8742451171875,0.0003707068972289562,-0.0010877307504415512,-0.0012250426225364208
1717857507293287000,2.884286865234375,-0.0008897669613361359,-0.0008658887818455696,0.0006823134608566761
1717857507303328000,2.894327880859375,-0.0004949786234647036,-0.000026765279471874237,-0.00005580112338066101
1717857507313369300,2.904369384765625,-0.0006166850216686726,-0.0002483399584889412,0.0010688519105315208
1717857507323411200,2.9144111328125,0.0019672298803925514,0.0011849701404571533,-0.0012441854923963547
1717857507333452300,2.924452392578125,0.0010993056930601597,-0.0005886955186724663,-0.00037120142951607704
1717857507343494100,2.934494140625,-0.001091585261747241,0.00003705359995365143,0.000960308127105236
1717857507353535200,2.94453515625,-0.000567475100979209,0.0014202995225787163,0.0001451144926249981
1717857507363576000,2.954576171875,-0.0003913063555955887,0.0007591499015688896,-0.00011892756447196007
1717857507373618200,2.9646181640625,-0.00029410095885396004,0.000449158251285553,0.00170240830630064
1717857507383659000,2.974658935546875,-0.0008203547913581133,0.0007983362302184105,-0.000033449381589889526
1717857507393700000,2.9847001953125,-0.0002946467138826847,-0.000005406327545642853,-0.000027856789529323578
1717857507403742000,2.994741943359375,-0.00006949016824364662,0.0008206386119127274,0.0006769942119717598
1717857507413783000,3.004782958984375,0.0014684856869280338,0.00024113524705171585,-0.00010384432971477509
1717857507423824100,3.01482421875,-0.00018220674246549606,0.0003204457461833954,0.0006618909537792206
1717857507433866200,3.0248662109375,0.0001533515751361847,0.0002597253769636154,0.00008664792403578758
1717857507443907300,3.0349072265625,-0.0002757187467068434,0.000545203685760498,-0.0010042325593531132
1717857507453949200,3.04494921875,-0.00029382831417024136,-0.0003195246681571007,0.0005031167529523373
1717857507463990300,3.054990234375,0.000876239500939846,-0.0001737670972943306,-0.0003298451192677021
1717857507474031000,3.065031005859375,-0.0007016833405941725,0.00046832114458084106,-0.0012915125116705894
1717857507484073200,3.0750732421875,-0.0018732580356299877,-0.00029425881803035736,0.0003426414914429188
1717857507494114000,3.085114013671875,-0.0012127941008657217,-0.00021249987185001373,-0.00009970925748348236
1717857507504155100,3.095155029296875,-0.0006177066825330257,-0.0002741878852248192,0.0003494345583021641
1717857507514197000,3.105197021484375,0.00013783201575279236,0.0011498043313622475,0.00020642299205064774
1717857507524238000,3.115238037109375,-0.0008697786834090948,0.0004489775747060776,0.0014236844144761562
1717857507534279200,3.125279052734375,0.0005243858322501183,0.0011773528531193733,0.00022313138470053673
1717857507544321000,3.135321044921875,-0.00027781305834650993,0.0005578501150012016,0.00008667772635817528
1717857507554362000,3.145362060546875,-0.0006272199098020792,-0.0001478884369134903,0.0011977488175034523
1717857507564404200,3.155404296875,0.0011841142550110817,-0.0012111859396100044,-0.0013874480500817299
1717857507574445300,3.1654453125,0.0005028774030506611,-0.00010437611490488052,0.001007266342639923
1717857507584486100,3.175486083984375,-0.0010510687716305256,0.0009269909933209419,0.00020005879923701286
1717857507594528300,3.1855283203125,-0.001757072750478983,0.0024409983307123184,0.0037212902680039406
1717857507604569000,3.195569091796875,0.0006790673360228539,0.0022107576951384544,0.0006133825518190861
1717857507614610200,3.205610107421875,-0.00007860176265239716,0.000998486764729023,0.000009910203516483307
1717857507624652000,3.215652099609375,-0.001368507742881775,-0.0016963467933237553,-0.0035371962003409863
1717857507634693000,3.225693115234375,-0.0005618361756205559,-0.002276649698615074,-0.002591241616755724
1717857507644735000,3.23573486328125,0.0008640601299703121,-0.0010767541825771332,-0.0009675635956227779
1717857507654776000,3.245776123046875,0.0005492744967341423,0.0007754741236567497,-0.0001414511352777481
1717857507664817200,3.255817138671875,-0.00014396430924534798,0.0015903376042842865,0.00029306719079613686
1717857507674859000,3.26585888671875,0.0015141195617616177,0.0005836626514792442,-0.00053038215264678
1717857507684900000,3.275900146484375,-0.0001946333795785904,0.0006009694188833237,0.0011892085894942284
1717857507694941000,3.28594091796875,0.00030071474611759186,0.0008768728002905846,0.0009138374589383602
1717857507704983300,3.2959833984375,-0.0004474036395549774,0.0030756955966353416,0.0019350196234881878
1717857507715024100,3.306024169921875,-0.0004479361232370138,0.00018297042697668076,-0.001003245823085308
1717857507725065200,3.316065185546875,-0.0006099750753492117,0.000040996819734573364,0.0006026029586791992
1717857507735107000,3.326107177734375,0.0008196099661290646,-0.0006687361747026443,-0.0010261861607432365
1717857507745148200,3.336148193359375,0.00022666482254862785,-0.0004007304087281227,0.0007100016809999943
1717857507755190000,3.34618994140625,0.0008093644864857197,0.00031965505331754684,0.000299608800560236
1717857507765231000,3.356231201171875,0.0001886407844722271,0.001440080814063549,-0.0016904952935874462
1717857507775272200,3.366272216796875,0.0002775900065898895,-0.00012798886746168137,0.00010287715122103691
1717857507785314000,3.37631396484375,-0.0006346332374960184,0.00018870923668146133,0.00010850047692656517
1717857507795355100,3.386355224609375,-0.000329434871673584,0.0007650172337889671,-0.00009523099288344383
1717857507805396000,3.39639599609375,0.002107595093548298,0.0009298427030444145,0.000562022440135479
1717857507815438300,3.406438232421875,0.002023172564804554,-0.0008475510403513908,0.002096269279718399
1717857507825479200,3.416479248046875,-0.00012065330520272255,0.0006707878783345222,-0.0004525408148765564
1717857507835521300,3.426521240234375,0.000019162893295288086,0.0002468125894665718,-0.00003069639205932617
1717857507845562000,3.43656201171875,-0.001649142475798726,-0.0005094911903142929,-0.000732925720512867
1717857507855603200,3.446603271484375,0.00041747046634554863,0.0001869257539510727,-0.0011060344986617565
1717857507865645000,3.45664501953125,-0.0004515929613262415,-0.0006547011435031891,0.00048301415517926216
1717857507875686100,3.46668603515625,0.0002970215864479542,-0.00127841392531991,0.0006816862151026726
1717857507885726200,3.476726318359375,-0.0011758983600884676,0.0002934793010354042,0.0006531616672873497
1717857507895768000,3.48676806640625,-0.001058452995494008,-0.0008444888517260551,0.0004331846721470356
1717857507905809200,3.49680908203125,-0.0003691862802952528,-0.0002665650099515915,-0.0003205295652151108
1717857507915850200,3.506850341796875,0.000846546608954668,-0.0006769578903913498,-0.0009892494417726994
1717857507925892400,3.516892333984375,0.00005718367174267769,-0.00023015402257442474,0.0006065466441214085
1717857507935933400,3.526933349609375,-0.0016304613091051579,-0.00026370957493782043,-0.00009306566789746284
1717857507945975300,3.536975341796875,0.00016090460121631622,-0.0005610538646578789,0.0021823642309755087
1717857507956016400,3.547016357421875,0.0008211024105548859,-0.0004816921427845955,0.000350375659763813
1717857507966057200,3.55705712890625,-0.0007269605994224548,-0.0010455120354890823,-0.00039466843008995056
1717857507976099300,3.567099365234375,0.0011870530433952808,-0.00043777842074632645,0.0003430270589888096
1717857507986140200,3.57714013671875,0.001025778241455555,-0.00017831102013587952,0.0008239764720201492
1717857507996181200,3.58718115234375,-0.0008970238268375397,-0.000356210395693779,0.0007573971524834633
1717857508006223000,3.59722314453125,-0.00014016684144735336,-0.00011319760233163834,-0.0014847335405647755
1717857508016264200,3.60726416015625,-0.0010395166464149952,-0.0006508901715278625,-0.0002184002660214901
1717857508026306300,3.617306396484375,-0.0012671540025621653,-0.0013305922038853168,-0.001016358844935894
1717857508036347400,3.627347412109375,-0.0007768659852445126,-0.0003731856122612953,0.0009802128188312054
1717857508046388500,3.637388427734375,-0.0006598443724215031,-0.001570011954754591,-0.0007094517350196838
1717857508056430300,3.647430419921875,-0.0006886066403239965,0.0004001948982477188,-0.0004926701076328754
1717857508066471400,3.657471435546875,-0.0006293926853686571,0.00003946758806705475,0.00008702464401721954
1717857508076512300,3.66751220703125,0.000015624798834323883,-0.00022924505174160004,0.00024361861869692802
1717857508086554400,3.677554443359375,0.001388083677738905,0.0008118310943245888,0.0012809885665774345
1717857508096595200,3.68759521484375,0.0009891423396766186,-0.0004345281049609184,0.0003520781174302101
1717857508106636300,3.69763623046875,-0.0007697227410972118,0.0002221968024969101,-0.0001374850980937481
1717857508116678100,3.70767822265625,-0.0007460205815732479,0.00003977026790380478,0.000347210094332695
1717857508126719200,3.71771923828125,-0.000416305847465992,0.0010678665712475777,-0.0019151163287460804
1717857508136761000,3.727760986328125,0.00004175771027803421,0.00011019408702850342,-0.0003449167124927044
1717857508146802200,3.73780224609375,-0.0012562100309878588,0.00014591868966817856,0.0003175479359924793
1717857508156843300,3.74784326171875,0.0009779157117009163,-0.0001845797523856163,0.0008408594876527786
1717857508166885400,3.757885498046875,-0.0003715674392879009,-0.0009276755154132843,-0.00004614470526576042
1717857508176926500,3.767926513671875,-0.0018429639749228954,0.0009924639016389847,0.0005413484759628773
1717857508186967300,3.77796728515625,-0.0012083447072654963,-0.00038022827357053757,0.0003523891791701317
1717857508197009400,3.788009521484375,-0.0001430804841220379,-0.0003264322876930237,0.0006163087673485279
1717857508207050200,3.79805029296875,-0.0006204962264746428,-0.0004899390041828156,-0.0004402846097946167
1717857508217092400,3.80809228515625,-0.0006351436022669077,-0.0015568011440336704,0.00041432399302721024
1717857508227133200,3.81813330078125,-0.001691802404820919,-0.0007367357611656189,0.002018632600083947
1717857508237174300,3.82817431640625,-0.0004497042391449213,-0.0004781428724527359,-0.0007198960520327091
1717857508247216000,3.838216064453125,0.001261304598301649,-0.0003442922607064247,0.00034185033291578293
1717857508257257200,3.84825732421875,0.0006429185159504414,0.0004125777631998062,0.0005852631293237209
1717857508267298300,3.85829833984375,-0.0002617116551846266,0.0005532354116439819,-0.00009695300832390785
1717857508277340200,3.868340087890625,-0.0008832933381199837,0.0001790616661310196,0.00019200006499886513
1717857508287381200,3.87838134765625,-0.00022721197456121445,-0.00038811005651950836,-0.00008043879643082619
1717857508297422000,3.888422119140625,-0.0010067191906273365,-0.0011103590950369835,-0.0003515486605465412
1717857508307464400,3.89846435546875,-0.0009133087005466223,0.00029810797423124313,0.00042164092883467674
1717857508317505300,3.90850537109375,-0.0012283606920391321,-0.000841725617647171,-0.0013456325978040695
1717857508327547400,3.91854736328125,-0.001789662055671215,-0.0007414929568767548,-0.0008021201938390732
1717857508337588200,3.928588134765625,-0.0001803138293325901,0.0007248437032103539,0.0003584856167435646
1717857508347629300,3.93862939453125,0.00070940051227808,0.002072872593998909,-0.0009261998347938061
1717857508357671200,3.948671142578125,-0.0004306989721953869,0.0005612624809145927,0.00009938329458236694
1717857508367712300,3.958712158203125,-0.0009416481480002403,-0.0009374236688017845,-0.0002378351055085659
1717857508377753300,3.96875341796875,0.0027556181885302067,0.00033396948128938675,-0.001848781481385231
1717857508387795200,3.978795166015625,-0.0015582123305648565,0.00001876894384622574,-0.001235727220773697
1717857508397836300,3.988836181640625,-0.0006095943972468376,-0.0011287871748209,0.0007946663536131382
1717857508407878400,3.99887841796875,0.00008479366078972816,-0.0018106508068740368,-0.0016095307655632496
1717857508417919500,4.00891943359375,-0.00030855508521199226,0.000977945514023304,-0.0003509209491312504
1717857508427960300,4.018960205078125,0.0008309478871524334,-0.0006277123466134071,0.000614766962826252
1717857508438002400,4.02900244140625,0.0000937851145863533,-0.000145680271089077,0.00003526313230395317
1717857508448043300,4.039043212890625,0.0010308129712939262,-0.0000890437513589859,-0.0016318093985319138
1717857508458084400,4.04908447265625,0.000883007887750864,-0.001057635061442852,0.00020630471408367157
1717857508468126200,4.059126220703125,-0.00004770373925566673,-0.0009535197168588638,-0.001199217513203621
1717857508478167300,4.069167236328125,-0.00019391137175261974,0.00038498546928167343,-0.00029054656624794006
1717857508488208400,4.07920849609375,0.0005380013026297092,0.0001200241968035698,0.001010180450975895
1717857508498250200,4.089250244140625,-0.0001317837741225958,0.0017605312168598175,0.0018789037130773067
1717857508508291300,4.099291259765625,0.00045154010877013206,0.0018842685967683792,0.001740303821861744
1717857508518333200,4.109333251953125,-0.00012103933840990067,0.0016586985439062119,0.0019493619911372662
1717857508528374300,4.119374267578125,-0.0005520761478692293,0.00015592854470014572,-0.0003556623123586178
1717857508538415000,4.1294150390625,-0.0007171921897679567,-0.0030859378166496754,-0.0010262462310492992
1717857508548457500,4.13945751953125,-0.001747945323586464,-0.0027358909137547016,-0.0009111771360039711
1717857508558498300,4.149498291015625,0.0005253292620182037,-0.0002817884087562561,-0.0006989235989749432
1717857508568539400,4.159539306640625,-0.00021018763072788715,-0.00035416241735219955,-0.0015849405899643898
1717857508578581200,4.169581298828125,-0.0007856967858970165,0.0022855624556541443,-0.0003204718232154846
1717857508588622300,4.179622314453125,-0.00016333884559571743,0.0006960416212677956,0.0018894323147833347
1717857508598663400,4.189663330078125,0.001479831524193287,-0.00009651482105255127,-0.000591302290558815
1717857508608705300,4.199705322265625,0.0007916800677776337,-0.0007040547206997871,-0.0006628558039665222
1717857508618746400,4.209746337890625,-0.0008738609030842781,0.001228868030011654,-0.00021198252215981483
1717857508628788200,4.219788330078125,0.00007591163739562035,0.001795678399503231,0.0005525830201804638
1717857508638829300,4.229829345703125,0.000160866416990757,0.0004571741446852684,-0.0001784549094736576
1717857508648870100,4.2398701171875,0.0005196291022002697,-0.0010618222877383232,-0.0012016980908811092
1717857508658912300,4.249912353515625,0.00010896986350417137,0.00025324616581201553,0.0006191050633788109
1717857508668953000,4.259953125,-0.001363998046144843,-0.00054942537099123,0.0001587974838912487
1717857508678994200,4.269994140625,-0.0009935523848980665,-0.000026114284992218018,-0.0003229682333767414
1717857508689036300,4.280036376953125,0.000025395769625902176,0.0012223385274410248,-0.0008619790896773338
1717857508699077400,4.290077392578125,0.0006855935789644718,-0.0008637160062789917,0.0004469649866223335
1717857508709119200,4.300119140625,0.0001106862910091877,0.0018995963037014008,0.001004065852612257
1717857508719160300,4.310160400390625,-0.0005537725519388914,0.0001424429938197136,0.0009571942500770092
1717857508729201400,4.320201416015625,0.00014495151117444038,-0.00084734708070755,0.0005421093665063381
1717857508739243300,4.3302431640625,0.00034442218020558357,-0.0007104603573679924,0.000818012747913599
1717857508749284400,4.340284423828125,-0.0003197011537849903,-0.00012950971722602844,-0.0006659738719463348
1717857508759325200,4.3503251953125,0.00027152057737112045,0.00023374613374471664,-0.0012018019333481789
1717857508769367300,4.3603671875,-0.0006004092283546925,-0.0003501893952488899,0.0017159981653094292
1717857508779408100,4.370408203125,0.000362323597073555,0.0005078809335827827,-0.0002936231903731823
1717857508789449200,4.38044921875,-0.0007511868607252836,-0.000031978823244571686,0.00027334457263350487
1717857508799491000,4.390490966796875,0.00009489944204688072,-0.0009739389643073082,-0.0006662183441221714
1717857508809532200,4.4005322265625,-0.00005870126187801361,-0.00003921985626220703,-0.0011767912656068802
1717857508819574300,4.41057421875,-0.0004571101162582636,0.00010858569294214249,-0.00035573868080973625
1717857508829615400,4.420615478515625,0.00020977621898055077,0.000022943131625652313,-0.00011275196447968483
1717857508839656400,4.430656494140625,0.0006281589157879353,-0.000039108097553253174,-0.0010549784637987614
1717857508849698300,4.4406982421875,0.00019226176664233208,0.00026226136833429337,-0.0009969621896743774
1717857508859739400,4.450739501953125,0.00029479339718818665,0.0009853094816207886,-0.0010528885759413242
1717857508869780200,4.4607802734375,0.0019972859881818295,0.000652671791613102,-0.0006623212248086929
1717857508879822300,4.470822265625,-0.00040328712202608585,-0.0006139269098639488,-0.0012325039133429527
1717857508889865200,4.480865234375,-0.00014846236445009708,0.0005659144371747971,-0.00008463580161333084
1717857508899906000,4.490906005859375,-0.0006661808583885431,0.00030492525547742844,-0.0010140789672732353
1717857508909948200,4.5009482421875,0.000021600164473056793,-0.0005252650007605553,0.00015009474009275436
1717857508919989000,4.510989013671875,-0.0008077083621174097,-0.0014206203632056713,0.0009711473248898983
1717857508930031000,4.521031005859375,0.0006548315286636353,-0.0007577668875455856,-0.0002882075496017933
1717857508940072000,4.531072021484375,0.000016738194972276688,-0.0008933218196034431,-0.00040272343903779984
1717857508950113000,4.541113037109375,0.0013155634514987469,-0.000570184551179409,-0.00007259426638484001
1717857508960155100,4.551155029296875,-0.00036941864527761936,0.0006514070555567741,-0.0013075019232928753
1717857508970196000,4.561196044921875,-0.000016123056411743164,-0.00202679680660367,-0.00006476975977420807
1717857508980237000,4.571237060546875,-0.00019109295681118965,0.0007349010556936264,0.00018716556951403618
1717857508990279000,4.58127880859375,0.000013980083167552948,-0.0005894321948289871,0.001456533558666706
1717857509000320000,4.591320068359375,0.000571646261960268,0.0011757109314203262,0.0006226976402103901
1717857509010362000,4.601362060546875,-0.0002359242644160986,-0.0006222203373908997,-0.00018061604350805283
1717857509020403200,4.6114033203125,-0.0007035753224045038,-0.00003872159868478775,-0.0001843445934355259
1717857509030444000,4.621444091796875,-0.0010189998429268599,-0.0016044075600802898,-0.0006189881823956966
1717857509040486100,4.631486083984375,0.0016265842132270336,-0.0009412802755832672,0.00048249540850520134
1717857509050527000,4.64152685546875,-0.0006984130013734102,0.0004813307896256447,0.0015254993923008442
1717857509060568000,4.651568115234375,-0.0012901672162115574,0.00042300671339035034,-0.00010062661021947861
1717857509070610000,4.66160986328125,0.0014600204303860664,0.00025509949773550034,0.0004980629310011864
1717857509080651000,4.671651123046875,0.0010802536271512508,-0.0003542313352227211,0.00011882884427905083
1717857509090692000,4.681692138671875,-0.00008438574150204659,0.00026724860072135925,-0.0004889415577054024
1717857509100734000,4.69173388671875,0.0006485162302851677,0.0015753936022520065,0.0005201301537454128
1717857509110775000,4.701775146484375,-0.000028688926249742508,-0.0013137459754943848,0.0014462168328464031
1717857509120817200,4.711817138671875,-0.000583691755309701,-0.00040427688509225845,-0.0014771348796784878
1717857509130858200,4.721858154296875,0.0017245030030608177,-0.0013295793905854225,-0.0003076731227338314
1717857509140899000,4.731899169921875,0.0010291514918208122,0.0010361066088080406,-0.0009481632150709629
1717857509150941200,4.741941162109375,-0.0002079256810247898,-0.0006089275702834129,-0.0006658975034952164
1717857509160982000,4.75198193359375,0.00043522752821445465,0.0020281346514821053,0.0003274613991379738
1717857509171023000,4.762023193359375,-0.000037317629903554916,0.00013931840658187866,-0.0001224125735461712
1717857509181065000,4.77206494140625,-0.00014677364379167557,-0.0015440653078258038,0.0006267349235713482
1717857509191106000,4.78210595703125,-0.0019919537007808685,-0.00041095074266195297,0.001172429881989956
1717857509201148200,4.792148193359375,-0.0009437333792448044,-0.00019257143139839172,0.00006854953244328499
1717857509211189000,4.80218896484375,0.0003257598727941513,-0.0004866207018494606,-0.0023699612356722355
1717857509221230000,4.81222998046875,0.00019686296582221985,-0.0006011361256241798,0.00020078802481293678
1717857509231272000,4.82227197265625,0.00032986514270305634,-0.0007901648059487343,-0.0005341731011867523
1717857509241313000,4.83231298828125,0.0005317325703799725,-0.0008029472082853317,0.00033508287742733955
1717857509251353900,4.842353759765625,0.0005975058302283287,-0.0004668561741709709,-0.0011389381252229214
1717857509261396200,4.852396240234375,-0.0003314048517495394,0.00003275275230407715,0.0008533722721040249
1717857509271437000,4.86243701171875,0.0004606950096786022,-0.00032867491245269775,0.000212864950299263
1717857509281478100,4.87247802734375,0.000018610619008541107,0.00018345098942518234,0.000009666197001934052
1717857509291520000,4.88252001953125,-0.000647898530587554,-0.0016394010744988918,-0.0003178701736032963
1717857509301561000,4.89256103515625,-0.0004915711469948292,-0.000499834306538105,-0.000054749660193920135
1717857509311603000,4.90260302734375,-0.0005786682013422251,-0.0005760621279478073,-0.0009990930557250977
1717857509321644000,4.91264404296875,-0.0019752299413084984,-0.0011622235178947449,-0.0006725895218551159
1717857509331685000,4.92268505859375,0.00031321635469794273,-0.0006643645465373993,-0.00023234356194734573
1717857509341727000,4.93272705078125,-0.0011392715387046337,0.0007396545261144638,-0.0016725808382034302
1717857509351768000,4.94276806640625,0.001136483158916235,0.0011784611269831657,-0.0007764431647956371
1717857509361809000,4.952808837890625,0.00039479276165366173,-0.0015270444564521313,-0.0006009410135447979
1717857509371851000,4.96285107421875,-0.0018610034603625536,-0.0007237046957015991,-0.0008399039506912231
1717857509381891800,4.972891845703125,-0.0014247775543481112,-0.00033195409923791885,-0.002019152045249939
1717857509391933000,4.982932861328125,-0.0007891987916082144,-0.0006068525835871696,0.000013806857168674469
1717857509401975000,4.99297509765625,0.0003120182082056999,-0.0013498738408088684,0.0005682772025465965
1717857509412016000,5.00301611328125,-0.0010849488899111748,0.0002662511542439461,0.00018216436728835106
1717857509422058000,5.01305810546875,-0.0012601849157363176,0.0021885214373469353,0.0007406291551887989
1717857509432099000,5.02309912109375,-0.0018627273384481668,0.0018084952607750893,0.0010242960415780544
1717857509442140200,5.03314013671875,0.0013525071553885937,0.00028596632182598114,0.0007960633374750614
1717857509452182000,5.04318212890625,0.0016824593767523766,-0.0008649621158838272,-0.002557625062763691
1717857509462223000,5.05322314453125,0.0013261283747851849,-0.0011959923431277275,-0.0011168546043336391
1717857509472264000,5.063263916015625,0.00043068500235676765,0.000033962540328502655,-0.0005321130156517029
1717857509482306000,5.07330615234375,-0.0004897033795714378,-0.0007332935929298401,-0.0003696600906550884
1717857509492347000,5.083346923828125,-0.0014570632483810186,0.0011916616931557655,0.0009129713289439678
1717857509502388000,5.093387939453125,-0.000940409954637289,0.000894986093044281,0.0004626307636499405
1717857509512430000,5.10343017578125,0.0001427079550921917,0.0004643285647034645,-0.0002042432315647602
1717857509522471200,5.11347119140625,0.00045163463801145554,0.00122119951993227,-0.0002825399860739708
1717857509532513000,5.123512939453125,0.0008273757994174957,0.000868706963956356,-0.00043316325172781944
1717857509542554000,5.13355419921875,0.0021240687929093838,-0.0013084271922707558,-0.0004225107841193676
1717857509552595200,5.14359521484375,0.0003789952024817467,-0.0013399114832282066,-0.0002669207751750946
1717857509562637000,5.153636962890625,-0.0011957322712987661,0.00024440325796604156,0.0015895687974989414
1717857509572678100,5.16367822265625,-0.0008068315219134092,0.0006152037531137466,-0.00040660472586750984
1717857509582719000,5.173718994140625,0.0004283427260816097,0.0001728525385260582,0.00039047934114933014
1717857509592761000,5.183760986328125,-0.00025491463020443916,-0.0002699242904782295,-0.0013115410692989826
1717857509602802000,5.193802001953125,-0.00038088206201791763,-0.0009138770401477814,-0.0008010133169591427
1717857509612843000,5.203843017578125,0.0006468831561505795,-0.0018294695764780045,0.0005266731604933739
1717857509622884900,5.213884765625,0.0014721965417265892,0.0006470037624239922,-0.0000027632340788841248
1717857509632926000,5.223926025390625,0.00021668709814548492,0.0004653735086321831,0.00023981090635061264
1717857509642968000,5.233968017578125,0.00036555761471390724,0.0008051926270127296,0.0007370230741798878
1717857509653009200,5.244009033203125,-0.0005429498851299286,0.00013761688023805618,0.00005422346293926239
1717857509663050200,5.25405029296875,-0.001621530158445239,-0.00024161767214536667,0.00009070849046111107
1717857509673092000,5.264092041015625,-0.00019094138406217098,0.00045700836926698685,-0.000029393937438726425
1717857509683133200,5.27413330078125,-0.00042237015441060066,0.0008399700745940208,-0.0006419210694730282
1717857509693174000,5.284174072265625,0.00008182693272829056,-0.0023368163965642452,0.0011627865023911
1717857509703216000,5.294216064453125,0.0010757185518741608,-0.0002797907218337059,-0.00007824646309018135
1717857509713257000,5.304257080078125,0.0005370513536036015,-0.00010700896382331848,0.0010712300427258015
1717857509723298000,5.314298095703125,-0.00030690454877913,-0.00077839195728302,0.0008280831389129162
1717857509733340000,5.32433984375,-0.0010526420082896948,-0.0005162088200449944,0.000716040376573801
1717857509743381000,5.334381103515625,0.000047243665903806686,-0.000622202642261982,-0.00015774276107549667
1717857509753422800,5.3444228515625,-0.0004188702441751957,-0.0008936990052461624,-0.0005575139075517654
1717857509763464000,5.3544638671875,0.0012951400130987167,-0.0003568064421415329,0.0013889903202652931
1717857509773505000,5.364505126953125,-0.0008834078907966614,-0.0007414333522319794,-0.0012485017068684101
1717857509783547100,5.374547119140625,-0.00027594086714088917,-0.0006032157689332962,0.0007627173326909542
1717857509793588200,5.384588134765625,-0.0013274746015667915,0.00026102643460035324,0.001601281575858593
1717857509803629000,5.394629150390625,0.0016315635293722153,-0.0009642941877245903,0.0009717103093862534
1717857509813671200,5.404671142578125,-0.0016996562480926514,-0.00036366842687129974,0.0006639226339757442
1717857509823712000,5.4147119140625,0.0013643107376992702,-0.0013016341254115105,0.0005709785036742687
1717857509833753000,5.424753173828125,-0.0006417953409254551,0.00005348958075046539,-0.00008681276813149452
1717857509843795000,5.434794921875,0.0009286706335842609,-0.001480757724493742,0.0002697845920920372
1717857509853836000,5.4448359375,-0.0010094919707626104,-0.0006037214770913124,0.0004391781985759735
1717857509863878000,5.4548779296875,-0.0012867269106209278,0.00033158063888549805,0.00041920458897948265
1717857509873919000,5.4649189453125,-0.0000066836364567279816,0.0008982066065073013,0.0013647009618580341
1717857509883960000,5.4749599609375,-0.0004072231240570545,0.0006254985928535461,0.0005060979165136814
1717857509894000400,5.48500048828125,0.00031724991276860237,0.00009249523282051086,-0.00041772937402129173
1717857509904041200,5.495041259765625,0.0000895494595170021,-0.0001983214169740677,6.533227860927582e-7
1717857509914082300,5.505082275390625,0.000729183666408062,-0.00030616018921136856,0.0004588281735777855
1717857509924124400,5.51512451171875,0.0025369375944137573,-0.0004092240706086159,0.000612759031355381
1717857509934165500,5.52516552734375,-0.0009944369085133076,0.0005234982818365097,0.00059839291498065
1717857509944207400,5.535207275390625,0.00018694112077355385,0.0013967491686344147,-0.0001108068972826004
1717857509954248400,5.54524853515625,0.000041204504668712616,-0.0010368125513195992,-0.0003528408706188202
1717857509964289500,5.55528955078125,-0.00028077163733541965,-0.0006141690537333488,0.0006567630916833878
1717857509974331400,5.565331298828125,0.00023644929751753807,-0.00046042073518037796,-0.0015026298351585865
1717857509984372500,5.57537255859375,0.00011074822396039963,0.0005113668739795685,0.001307804137468338
1717857509994413300,5.585413330078125,0.0005026636645197868,-0.00004250090569257736,-0.0004300023429095745
1717857510004455400,5.595455322265625,0.00008934084326028824,0.0001199524849653244,-0.0011711600236594677
1717857510014496300,5.605496337890625,-0.0022304439917206764,-0.0014999262057244778,0.0009658560156822205
1717857510024537300,5.615537353515625,0.00019649462774395943,0.0009224852547049522,0.0010273749940097332
1717857510034579500,5.625579345703125,0.00007890863344073296,-0.0000035371631383895874,0.00016677379608154297
1717857510044620500,5.63562060546875,-0.0007655797526240349,-0.0009407037869095802,0.0013297763653099537
1717857510054661600,5.64566162109375,-0.0005270475521683693,0.0003191474825143814,0.0007129986770451069
1717857510064703500,5.655703369140625,-0.0008333111181855202,0.000033923424780368805,0.0010988907888531685
1717857510074744600,5.66574462890625,0.00013642525300383568,0.00008796248584985733,-0.00018957862630486488
1717857510084786400,5.675786376953125,-0.0011552080977708101,-0.0008974066004157066,0.0006021792069077492
1717857510094827500,5.68582763671875,-0.0002547609619796276,-0.000033511780202388763,-0.0006975112482905388
1717857510104868400,5.695868408203125,0.0009766845032572746,-0.0016204891726374626,0.001157646533101797
1717857510114910500,5.705910400390625,-0.0013675095979124308,-0.000882299616932869,0.0005089342594146729
1717857510124951300,5.715951416015625,0.0010594287887215614,-0.0018090792000293732,0.001518538687378168
1717857510134992400,5.725992431640625,0.00010125618427991867,0.0006863893941044807,0.00014706933870911598
1717857510145034200,5.7360341796875,0.00025465432554483414,0.00030475854873657227,0.0006943489424884319
1717857510155075300,5.746075439453125,-0.0007895110175013542,-0.0005284426733851433,0.000054531730711460114
1717857510165116400,5.756116455078125,-0.0010563596151769161,-0.0002048686146736145,0.0018308600410819054
1717857510175158500,5.766158447265625,-0.0012342154514044523,0.0008395100012421608,-0.0003803279250860214
1717857510185199600,5.77619970703125,0.001212430652230978,0.0002805124968290329,-0.000720679759979248
1717857510195241500,5.786241455078125,-0.000058111269026994705,-0.0010198671370744705,0.001684138085693121
1717857510205282600,5.796282470703125,-0.0005545245949178934,-0.0009913714602589607,-0.00101524218916893
1717857510215323400,5.806323486328125,-0.0005859851371496916,0.00006769038736820221,-0.0006099455058574677
1717857510225365500,5.816365478515625,0.0003011138178408146,0.00009352341294288635,0.0004627755843102932
1717857510235406300,5.82640625,-0.00003077276051044464,0.00011098477989435196,-0.0002562529407441616
1717857510245447400,5.836447509765625,0.0004219645634293556,-0.0009039463475346565,0.0005038133822381496
1717857510255489300,5.8464892578125,0.00029602833092212677,-0.0013765199109911919,0.00012346263974905014
1717857510265530400,5.8565302734375,-0.000001979060471057892,-0.00005426071584224701,-0.0003798743709921837
1717857510275571500,5.866571533203125,0.0020149853080511093,0.00018103886395692825,0.0003142077475786209
1717857510285613300,5.87661328125,0.0007105688564479351,0.0001530759036540985,-0.0023420285433530807
1717857510295654400,5.886654296875,-0.001335318898782134,-0.0004871757701039314,0.0010216264054179192
1717857510305696500,5.896696533203125,0.0000010551884770393372,0.0001301448792219162,0.001045328564941883
1717857510315737600,5.906737548828125,-0.0006976907607167959,0.0006053969264030457,0.0006557055748999119
1717857510325778400,5.9167783203125,0.0006658476777374744,0.0003678426146507263,0.0004786057397723198
1717857510335820500,5.926820556640625,-0.0024593695998191833,0.0017755022272467613,0.001763531006872654
1717857510345861400,5.936861328125,0.0012658601626753807,0.00006628595292568207,0.0006037242710590363
1717857510355902500,5.94690234375,0.000348083209246397,0.00008687656372785568,-0.001591839361935854
1717857510365944300,5.9569443359375,0.00006046192720532417,-0.0007541505619883537,-0.001053880900144577
1717857510375985400,5.9669853515625,0.0001942901872098446,-0.0016290578059852123,-0.0005646976642310619
1717857510386026500,5.977026611328125,0.000017988961189985275,0.0005946820601820946,-0.0002781418152153492
1717857510396068400,5.987068359375,0.0007968032732605934,-0.0011161202564835548,-0.00007179845124483109
1717857510406109400,5.997109375,0.00009399512782692909,0.0012106839567422867,0.0003412575460970402
1717857510416151600,6.007151611328125,0.001230089459568262,0.000697706826031208,0.00003942567855119705
1717857510426192600,6.017192626953125,-0.0012783422134816647,-0.00020616967231035233,-0.0002790880389511585
1717857510436233500,6.0272333984375,-0.00045964308083057404,-0.00025203172117471695,0.0004614111967384815
1717857510446275600,6.037275634765625,0.0008045597933232784,-0.0014254203997552395,0.0004164036363363266
1717857510456316400,6.04731640625,-0.0004910002462565899,-0.0008268244564533234,-0.0003008190542459488
1717857510466357500,6.057357421875,0.0011987756006419659,0.0006893128156661987,0.0003101099282503128
1717857510476399400,6.0673994140625,0.0017222389578819275,0.00032407697290182114,0.000211264006793499
1717857510486440400,6.0774404296875,0.00024551618844270706,-0.0006985766813158989,-0.000552530400454998
1717857510496481500,6.0874814453125,-0.0013893286231905222,-0.00044754985719919205,-0.0002815653569996357
1717857510506523400,6.0975234375,-0.0006843898445367813,-0.001114138402044773,0.001908884383738041
1717857510516564500,6.107564453125,0.0009852289222180843,-0.0008775647729635239,0.0008654072880744934
1717857510526605300,6.117605224609375,0.001037160400301218,0.00008277129381895065,0.0002930941991508007
1717857510536647400,6.1276474609375,-0.00039827171713113785,-0.0006815223023295403,-0.00131309125572443
1717857510546688300,6.137688232421875,0.00035300618037581444,-0.00015102047473192215,-0.0004488956183195114
1717857510556730600,6.147730712890625,-0.00021607102826237679,-0.0017523765563964844,-0.000044951215386390686
1717857510566771500,6.157771484375,-0.0003284565173089504,-0.00076327845454216,0.0004956703633069992
1717857510576812500,6.1678125,0.001053888350725174,-0.001039678230881691,0.0006024688482284546
1717857510586854400,6.1778544921875,0.00047758035361766815,-0.0010932078585028648,-0.0005269777029752731
1717857510596895500,6.1878955078125,0.000049525871872901917,0.0002134246751666069,0.001304078847169876
1717857510606936600,6.1979365234375,0.0008149184286594391,0.0007505845278501511,-0.00022457540035247803
1717857510616978400,6.207978515625,-0.0003571780398488045,-0.0005025994032621384,-0.0010453001596033573
1717857510627019500,6.21801953125,-0.00033960118889808655,0.0002595977857708931,-0.0008705970831215382
1717857510637060400,6.228060302734375,0.00012536905705928802,0.00050375796854496,0.001030048355460167
1717857510647102500,6.2381025390625,-0.0006346972659230232,-0.00032981205731630325,0.0000156499445438385
1717857510657143300,6.248143310546875,0.0009271544404327869,0.00006926991045475006,-0.00048196129500865936
1717857510667185400,6.258185302734375,-0.0013762135058641434,0.00021920539438724518,-0.0010135280899703503
1717857510677226200,6.268226318359375,-0.0001353141851723194,-0.0006400607526302338,-0.00004479335620999336
1717857510687267300,6.278267333984375,0.00003859028220176697,-0.00010316725820302963,0.0003466913476586342
1717857510697309400,6.288309326171875,0.0001420644111931324,0.0006757201626896858,0.0008730348199605942
1717857510707350500,6.2983505859375,0.000738079659640789,-0.00036344490945339203,-0.0008532260544598103
1717857510717391600,6.3083916015625,-0.00067087821662426,-0.0008138259872794151,-0.0005063978023827076
1717857510727433500,6.31843359375,-0.0007606267463415861,0.0009992532432079315,0.001462210901081562
1717857510737474600,6.328474609375,-0.0003100226167589426,0.00128990039229393,0.0013011936098337173
1717857510747515400,6.338515380859375,0.001281216274946928,0.0004262365400791168,0.0008990559726953506
1717857510757557500,6.3485576171875,0.001191847026348114,0.0013403752818703651,-0.0005343863740563393
1717857510767598300,6.358598388671875,0.0009660110808908939,-0.0023137484677135944,0.00029359012842178345
1717857510777639400,6.368639404296875,0.0007525933906435966,0.001172923482954502,-0.0006302660331130028
1717857510787681300,6.378681396484375,-0.00015874020755290985,0.0006490796804428101,0.0002206140197813511
1717857510797722400,6.388722412109375,0.0006315703503787518,-0.0006229160353541374,0.0006686737760901451
1717857510807764200,6.39876416015625,-0.001017991453409195,0.00032676756381988525,0.0005349828861653805
1717857510817805300,6.408805419921875,-0.0002865979913622141,-0.0012623956426978111,0.0003401394933462143
1717857510827846400,6.418846435546875,-0.0002399927470833063,0.0005717230960726738,0.0007353527471423149
1717857510837888500,6.428888427734375,-0.0009035628754645586,0.000012431293725967407,0.00010639382526278496
1717857510847929600,6.4389296875,-0.0003538865130394697,0.0008388105779886246,-0.0007263761945068836
1717857510857970400,6.448970458984375,0.0003879191353917122,-0.00032211560755968094,0.00022760359570384026
1717857510868012500,6.459012451171875,0.0002965726889669895,0.00006430968642234802,0.0005125617608428001
1717857510878053400,6.469053466796875,-0.000444075558334589,0.00021905824542045593,-0.000249229371547699
1717857510888095000,6.479094970703125,0.0006038784049451351,0.0010294578969478607,0.00034172600135207176
1717857510898136800,6.48913671875,0.00011166604235768318,-0.0007221400737762451,0.00002866983413696289
1717857510908178000,6.499177978515625,0.0002512158825993538,0.0001985142007470131,-0.0015135668218135834
1717857510918218800,6.50921875,0.0008141398429870605,-0.0010775253176689148,0.0005837474018335342
1717857510928260900,6.5192607421875,-0.00028121843934059143,0.0003888113424181938,-0.0016948534175753593
1717857510938301700,6.5293017578125,-0.00042644282802939415,-0.00016511231660842896,0.0006311549805104733
1717857510948343800,6.53934375,-0.0008243189658969641,-0.0001786947250366211,0.0010852240957319736
1717857510958384600,6.549384521484375,0.00073669059202075,-0.00045725051313638687,0.00035088974982500076
1717857510968425700,6.55942578125,0.00039047980681061745,-0.00034992489963769913,-0.0003372710198163986
1717857510978467800,6.5694677734375,0.0007906770333647728,-0.0012992173433303833,-0.0007110009901225567
1717857510988509000,6.579509033203125,0.0009195739403367043,-0.0006020013242959976,0.0006868923082947731
1717857510998550000,6.589550048828125,-0.0005421428941190243,0.0004098769277334213,0.001321218442171812
1717857511008592000,6.599591796875,-0.0005104513838887215,-0.0012910841032862663,-0.00017441250383853912
1717857511018633000,6.609633056640625,-0.001267964718863368,-0.0004874700680375099,0.00032966118305921555
1717857511028673800,6.619673828125,0.0012953276745975018,0.0004779258742928505,-0.000003234017640352249
1717857511038716000,6.6297158203125,0.00026988936588168144,-0.0009308550506830215,0.0003865654580295086
1717857511048756700,6.6397568359375,0.0006296820938587189,0.00040898099541664124,0.00026991916820406914
1717857511058797800,6.6497978515625,0.001258806325495243,0.0011025303974747658,0.0009788605384528637
1717857511068839700,6.659839599609375,-0.0001609248574823141,-0.0005182689055800438,-0.0013876240700483322
1717857511078880800,6.669880859375,0.0012306664139032364,0.0002876603975892067,0.0008347262628376484
1717857511088922600,6.679922607421875,0.0002482263371348381,-0.001937943510711193,0.0009785369038581848
1717857511098963700,6.689963623046875,0.0007049059495329857,-0.00029279571026563644,0.0007900642231106758
1717857511109004800,6.7000048828125,-0.00003252364695072174,0.0012435819953680038,-0.000023797620087862015
1717857511119047000,6.710046875,-0.0015410806518048048,0.0009439736604690552,-0.0007800464518368244
1717857511129088000,6.720087890625,-0.0008859431836754084,0.0004976270720362663,-0.0017600897699594498
1717857511139128800,6.73012890625,0.0004065362736582756,-0.0007283762097358704,0.0006777714006602764
1717857511149171000,6.7401708984375,-0.001411869889125228,-0.0014354451559484005,0.00004100939258933067
1717857511159211800,6.750211669921875,-0.00007593352347612381,0.0005090478807687759,0.0003921184688806534
1717857511169252900,6.7602529296875,-0.0005481119733303785,-0.0013112220913171768,0.0016211671754717827
1717857511179294700,6.770294677734375,0.0009492859244346619,0.0006414251402020454,0.0013361386954784393
1717857511189335800,6.780335693359375,0.000027299858629703522,-0.0005793683230876923,0.0002777981571853161
1717857511199377000,6.790376953125,-0.0001863820943981409,-0.000717570073902607,-0.000615761149674654
1717857511209418800,6.800418701171875,0.0013976660557091236,0.00004728976637125015,-0.00018459558486938477
1717857511219459800,6.8104599609375,-0.0003513756673783064,-0.00017566140741109848,-0.0004819161258637905
1717857511229501700,6.820501708984375,-0.00015217112377285957,0.0009665684774518013,0.0002360721118748188
1717857511239542800,6.830542724609375,0.0008037271909415722,-0.0003376724198460579,0.00012751854956150055
1717857511249583600,6.84058349609375,-0.0005861762911081314,0.00031160563230514526,0.0009978394955396652
1717857511259626000,6.8506259765625,-0.00045149726793169975,0.0013622259721159935,0.0003969641402363777
1717857511269666800,6.860666748046875,-0.0008754725567996502,-0.0008466001600027084,0.0014316020533442497
1717857511279708000,6.8707080078125,-0.0007098524365574121,-0.0005926862359046936,0.0020544049330055714
1717857511289749800,6.880749755859375,0.0011708717793226242,-0.0006840331479907036,0.0013161767274141312
1717857511299790800,6.890790771484375,-0.0002990791108459234,0.00001251325011253357,0.00161055289208889
1717857511309832000,6.90083203125,-0.0007408976089209318,-0.00013955309987068176,0.0001404881477355957
1717857511319873800,6.910873779296875,0.0004008198156952858,-0.0008255457505583763,-0.0010337955318391323
1717857511329915000,6.920914794921875,-0.0013009400572627783,-0.0007259435951709747,-0.0012822682037949562
1717857511339955700,6.930955810546875,0.0014388379640877247,0.0010322332382202148,-0.0008896114304661751
1717857511349997800,6.940997802734375,0.0009986171498894691,0.00005458667874336243,-0.00028161145746707916
1717857511360038700,6.95103857421875,0.0006317673251032829,-0.0009151417762041092,-0.0015608728863298893
1717857511370080800,6.961080810546875,-0.0001016673631966114,-0.0006432328373193741,0.00041572563350200653
1717857511380121600,6.97112158203125,0.0005954946391284466,-0.0013688160106539726,0.0002546044997870922
1717857511390162700,6.98116259765625,-0.0009946790523827076,-0.0005411058664321899,-0.0009360946714878082
1717857511400204800,6.991204833984375,0.0008442969992756844,0.00012600328773260117,0.0020824982784688473
1717857511410246000,7.001245849609375,0.0014264639467000961,-0.00004816707223653793,0.0009634378366172314
1717857511420287000,7.011286865234375,-0.0006629270501434803,0.0021564727649092674,0.0022173007018864155
1717857511430328800,7.021328857421875,0.0008830376900732517,0.0008256910368800163,0.0011573624797165394
1717857511440370000,7.031369873046875,0.0015974389389157295,-0.00015382468700408936,-0.0018376163206994534
1717857511450410800,7.04141064453125,-0.001194619107991457,-0.0020364131778478622,-0.0013127070851624012
1717857511460452900,7.051452880859375,-0.0001428371760994196,-0.002101325895637274,-0.0015175077132880688
1717857511470493700,7.06149365234375,0.0007876711897552013,-0.0006717406213283539,-0.0007252171635627747
1717857511480534800,7.07153466796875,0.00004068482667207718,-0.0019156322814524174,-0.0004778243601322174
1717857511490576600,7.08157666015625,-0.0013651980552822351,0.0002852044999599457,0.0012281965464353561
1717857511500617700,7.09161767578125,0.0007101432420313358,0.00031925272196531296,0.000011764001101255417
1717857511510658800,7.101658935546875,-0.0011074638459831476,0.000020178966224193573,-0.0004825186915695667
1717857511520701000,7.111700927734375,-0.0004380557220429182,-0.0006375769153237343,-0.0002604760229587555
1717857511530742000,7.121741943359375,-0.0005935842636972666,-0.0005254577845335007,0.0002607046626508236
1717857511540783900,7.131783935546875,-0.0003201954532414675,0.0007061129435896873,-0.000527744647115469
1717857511550825000,7.141824951171875,-0.0011484385468065739,-0.0008766036480665207,-0.0005162926390767097
1717857511560865800,7.15186572265625,0.0002600317820906639,-0.0009353933855891228,-0.00042442698031663895
1717857511570908000,7.161907958984375,0.0003985161893069744,-0.0002477644011378288,0.00009755278006196022
1717857511580948700,7.17194873046875,-0.0004683455917984247,-0.00020347163081169128,0.0016800826415419579
1717857511590989800,7.18198974609375,-0.0003250674344599247,-0.00004554633051156998,0.00042253779247403145
1717857511601031700,7.19203173828125,-0.0002712572459131479,-0.001225098967552185,-0.0005191867239773273
1717857511611072800,7.20207275390625,-0.00013783294707536697,0.00021167565137147903,0.0012014815583825111
1717857511621113900,7.21211376953125,0.0017113047651946545,-0.0008484702557325363,0.0011934307403862476
1717857511631155700,7.22215576171875,0.0006207400001585484,0.0003227880224585533,0.00047464342787861824
1717857511641196800,7.23219677734375,0.00015288125723600388,0.00008591450750827789,0.00010549649596214294
1717857511651237600,7.242237548828125,-0.0004892067518085241,-0.0000879904255270958,-0.0011752177961170673
1717857511661280000,7.252280029296875,0.000551347155123949,-0.000914248637855053,0.0010224510915577412
1717857511671320800,7.26232080078125,-0.0005312277935445309,-0.0003722952678799629,-0.0004209820181131363
1717857511681363000,7.272363037109375,-0.0000658724457025528,0.00020971428602933884,0.00047283293679356575
1717857511691403800,7.28240380859375,-0.0016302133444696665,-0.0007263869047164917,0.000149525236338377
1717857511701444900,7.29244482421875,-0.0009355153888463974,0.0009281812235713005,0.00028250552713871
1717857511711486700,7.30248681640625,-0.0007051518186926842,-0.0012675952166318893,-0.00031990185379981995
1717857511721527800,7.31252783203125,0.00044794660061597824,0.00009520072489976883,-0.0005267979577183723
1717857511731569000,7.32256884765625,0.0005946867167949677,-0.00008962210267782211,0.0010553859174251556
1717857511741610800,7.33261083984375,-0.0012327879667282104,-0.000588580034673214,-0.00016318866983056068
1717857511751651800,7.34265185546875,0.0009539336897432804,-0.001626147422939539,0.0008168546482920647
1717857511761692700,7.352692626953125,0.000706113874912262,-0.0013470081612467766,-0.00030299974605441093
1717857511771734800,7.36273486328125,-0.000632124487310648,-0.00017441902309656143,0.000785434152930975
1717857511781775600,7.372775634765625,-0.0005089868791401386,0.000961855985224247,-0.0005414113402366638
1717857511791816700,7.382816650390625,0.0004303101450204849,-0.0009564189240336418,-0.00022236444056034088
1717857511801858800,7.39285888671875,0.0007893792353570461,0.000046584755182266235,-0.0006900383159518242
1717857511811900000,7.40289990234375,0.0006258613429963589,0.0005166325718164444,0.00011663325130939484
1717857511821941800,7.412941650390625,0.0007470767013728619,0.0005994420498609543,0.001494016032665968
1717857511831982800,7.42298291015625,-0.001046295976266265,0.0006660204380750656,-0.0005989624187350273
1717857511842024000,7.43302392578125,-0.0005320366472005844,0.0004174141213297844,-0.0004889010451734066
1717857511852065800,7.443065673828125,0.00028235791251063347,-0.00023772288113832474,-0.0009933039546012878
1717857511862107000,7.45310693359375,0.00009811064228415489,0.00021718349307775497,0.0003090738318860531
1717857511872147700,7.463147705078125,-0.0008566328324377537,-0.00045606307685375214,0.00024222861975431442
1717857511882189800,7.47318994140625,0.0011057974770665169,-0.002095609437674284,-0.0013544224202632904
1717857511892230400,7.48323046875,-0.0001677260734140873,0.0007169544696807861,-0.0023435200564563274
1717857511902271500,7.493271484375,0.0010922113433480263,-0.0002622753381729126,0.0004894458688795567
1717857511912313300,7.503313232421875,-0.001107027055695653,0.00025224778801202774,-0.000008032657206058502
1717857511922354400,7.5133544921875,0.00021489104256033897,-0.00015394482761621475,-0.0008913618512451649
1717857511932395500,7.5233955078125,-0.0009571660775691271,0.0004503261297941208,0.00023382389917969704
1717857511942437600,7.533437744140625,0.0007791691459715366,0.0010385308414697647,-0.0005576116964221001
1717857511952478700,7.543478759765625,-0.00044668372720479965,-0.000392385758459568,0.00008421018719673157
1717857511962519600,7.55351953125,0.0012094350531697273,-0.0002179006114602089,0.0002399221993982792
1717857511972561700,7.563561767578125,0.0003447066992521286,0.000833781436085701,0.002428507898002863
1717857511982602500,7.5736025390625,-0.0010493083391338587,-0.00017313659191131592,-0.0011366289108991623
1717857511992643600,7.5836435546875,0.0005752197466790676,-0.0003981739282608032,0.00012570945546030998
1717857512002685400,7.593685546875,0.0006389529444277287,-0.002643641084432602,-0.0003540092147886753
1717857512012726500,7.6037265625,0.00020139571279287338,0.00024668779224157333,-0.0011598817072808743
1717857512022768400,7.613768310546875,-0.000008678063750267029,-0.0010067643597722054,-0.00029318686574697495
1717857512032809500,7.6238095703125,0.0011745644733309746,-0.000006747432053089142,-0.0011954661458730698
1717857512042850600,7.6338505859375,-0.0002961645368486643,0.00012483634054660797,-0.0013681142590939999
1717857512052892400,7.643892333984375,0.00029026344418525696,0.0005155215039849281,0.0011504371650516987
1717857512062933500,7.65393359375,0.00034677330404520035,-0.0002849521115422249,-0.0001645912416279316
1717857512072974300,7.663974365234375,0.00028791744261980057,-0.0014649983495473862,0.0006316937506198883
1717857512083016700,7.6740166015625,-0.00016459054313600063,0.00007198844105005264,-0.001250789500772953
1717857512093057500,7.6840576171875,-0.00021252757869660854,0.0006917063146829605,0.0015548504889011383
1717857512103098600,7.6940986328125,-0.0004548286087810993,-0.0016648806631565094,-0.0005366681143641472
1717857512113140500,7.704140380859375,-0.0028609945438802242,0.0007516713812947273,-0.0006005838513374329
1717857512123181600,7.714181640625,-0.002298302948474884,-0.0007909275591373444,-0.001427244395017624
1717857512133222700,7.72422265625,0.0005129300989210606,-0.0007352679967880249,-0.0019172662869095802
1717857512143264500,7.734264404296875,-0.0003357548266649246,-0.0007853154093027115,-0.0004979302175343037
1717857512153305600,7.7443056640625,0.0003494764678180218,0.00044905953109264374,-0.0001724916510283947
1717857512163347500,7.754347412109375,0.00012114178389310837,0.0006930436939001083,0.0010114014148712158
1717857512173388500,7.764388427734375,-0.0006471804808825254,0.0003335168585181236,-0.001154014840722084
1717857512183429400,7.774429443359375,-0.000191068509593606,-0.00027895253151655197,-0.00035400502383708954
1717857512193471500,7.784471435546875,0.0007258579134941101,0.00003316998481750488,0.0013136663474142551
1717857512203512300,7.79451220703125,0.0005206596106290817,0.0010810811072587967,0.0009791827760636806
1717857512213553400,7.804553466796875,-0.0009347577579319477,0.000697852112352848,-0.0003225705586373806
1717857512223595500,7.814595458984375,-0.00036600232124328613,-0.0008008750155568123,0.0002469276078045368
1717857512233636600,7.82463671875,-0.001241117250174284,-0.0012970222160220146,-0.0015373905189335346
1717857512243677700,7.834677734375,-0.0009440549183636904,-0.00045638252049684525,0.0006212815642356873
1717857512253719600,7.844719482421875,-0.0008175547700375319,-0.000919773243367672,-0.0009438581764698029
1717857512263760600,7.8547607421875,-0.0009331018663942814,-0.0009546838700771332,0.001107389573007822
1717857512273801500,7.864801513671875,0.0006267116405069828,0.0011750459671020508,0.00012361817061901093
1717857512283843600,7.874843505859375,0.0005698599852621555,-0.0004236530512571335,0.0004758141003549099
1717857512293884400,7.884884521484375,-0.0020919693633913994,-0.0001956867054104805,-0.000901839230209589
1717857512303925500,7.894925537109375,-0.0005808949936181307,-0.0005342243239283562,0.001914160791784525
1717857512313967400,7.90496728515625,0.0013821208849549294,0.0007211891934275627,-0.00044859573245048523
1717857512324008400,7.915008544921875,-0.0010245863813906908,-0.0006590308621525764,-0.0001770337112247944
1717857512334050300,7.92505029296875,-0.0013513562735170126,0.0001305965706706047,0.000249604694545269
1717857512344091400,7.93509130859375,-0.0027054636739194393,-0.000330289825797081,0.00001020822674036026
1717857512354132500,7.945132568359375,0.0013337526470422745,-0.00015691760927438736,0.0009044976904988289
1717857512364174600,7.955174560546875,0.00023821904323995113,0.00009503588080406189,0.0004371199756860733
1717857512374215700,7.965215576171875,-0.0004544688854366541,-0.0008770180866122246,-0.0012334808707237244
1717857512384256500,7.975256591796875,-0.0004900838248431683,0.0002126116305589676,0.00042333314195275307
1717857512394298600,7.985298583984375,0.0003328330349177122,0.0011007757857441902,0.00044064363464713097
1717857512404339500,7.99533935546875,0.0007500080391764641,-0.00043666549026966095,0.0010082162916660309
1717857512414380500,8.005380615234374,0.0010959524661302567,0.000027523376047611237,0.0009477627463638783
1717857512424422400,8.01542236328125,0.000655613373965025,-0.0009268317371606827,-0.0010179919190704823
1717857512434463500,8.02546337890625,0.0006153997965157032,-0.0015223147347569466,0.0007455535233020782
1717857512444504600,8.035504638671876,-0.00018154270946979523,-0.00008425675332546234,-0.0003484063781797886
1717857512454546400,8.04554638671875,0.0011582935694605112,-0.0005324669182300568,0.0004721134901046753
1717857512464587500,8.05558740234375,0.0008579327259212732,0.00018901098519563675,0.00005091307684779167
1717857512474628400,8.06562841796875,0.00044860481284558773,-0.0016845231875777245,0.00035717664286494255
1717857512484670700,8.075670654296875,0.000076633645221591,0.0008292198181152344,0.0007201852276921272
1717857512494711600,8.085711669921874,0.001635381719097495,-0.00025202427059412,0.0005675861611962318
1717857512504753700,8.095753662109376,-0.00027280836366117,-0.0002116682007908821,-0.0004982450045645237
1717857512514794500,8.10579443359375,0.0015687677077949047,0.0015372298657894135,-0.0024495432153344154
1717857512524835600,8.115835693359376,-0.00043299957178533077,0.0012466134503483772,0.0005657114088535309
1717857512534877400,8.12587744140625,-0.0013536543119698763,-0.0005938969552516937,0.0008458755910396576
1717857512544918500,8.13591845703125,0.0007041890639811754,-0.001136244274675846,0.0005443333648145199
1717857512554959600,8.145959716796876,-0.00038610887713730335,0.000037410296499729156,0.001078031025826931
1717857512565001500,8.15600146484375,-0.00016684946604073048,-0.000996568240225315,0.0005691428668797016
1717857512575042600,8.16604248046875,0.0006451485678553581,0.0005414066836237907,-0.0009834798984229565
1717857512585083400,8.17608349609375,-0.0004215547814965248,-0.0010090144351124763,-0.0007904404774308205
1717857512595125500,8.18612548828125,-0.0012367484159767628,-0.0018383227288722992,0.0014255759306252003
1717857512605166300,8.196166259765626,0.0006094169802963734,-0.000723288394510746,-0.0008644950576126575
1717857512615207400,8.20620751953125,0.00011699879541993141,-0.00068653654307127,-0.0000575575977563858
1717857512625249500,8.21624951171875,-0.00017322460189461708,-0.000672520138323307,0.0012071672827005386
1717857512635290600,8.22629052734375,-0.00034686271101236343,-0.0004922235384583473,-0.00010603759437799454
1717857512645331700,8.236331787109375,-0.000012189848348498344,0.0002499287948012352,-0.00008506234735250473
1717857512655373600,8.24637353515625,0.00006504193879663944,-0.0006012171506881714,-0.0009559160098433495
1717857512665414700,8.25641455078125,0.0007687255274504423,-0.000027774833142757416,0.000024555716663599014
1717857512675455500,8.26645556640625,0.0001820314209908247,0.0003056526184082031,0.00046184705570340157
1717857512685497600,8.27649755859375,-0.0012414955999702215,-0.0006475737318396568,0.0005280254408717155
1717857512695538400,8.286538330078125,0.0009907661005854607,0.0007133018225431442,-0.0007862444035708904
1717857512705580500,8.29658056640625,0.001367403194308281,0.00025191251188516617,-0.0023645716719329357
1717857512715621400,8.306621337890626,0.0014105462469160557,0.000013026408851146698,-0.0005024895071983337
1717857512725662500,8.316662353515625,0.0000803580041974783,-0.0006268313154578209,-0.0006205271929502487
1717857512735704300,8.326704345703124,0.0003602562937885523,-0.0000475933775305748,-0.0002404940314590931
1717857512745745400,8.336745361328125,-0.0007669634651392698,-0.0011317143216729164,-0.0002503995783627033
1717857512755786500,8.346786376953125,0.001677552005276084,0.0015183966606855392,-0.0018253931775689125
1717857512765828600,8.35682861328125,-0.0006673142779618502,-0.0006003687158226967,0.0021812994964420795
1717857512775869700,8.36686962890625,0.0007028819527477026,-0.0007905187085270882,0.000027334783226251602
1717857512785910500,8.37691064453125,0.00028982944786548615,-0.000713239423930645,-0.0005262503400444984
1717857512795952600,8.38695263671875,0.0014642830938100815,-0.00042881444096565247,0.0006069247610867023
1717857512805993500,8.396993408203125,0.00019607553258538246,-0.00015884172171354294,0.0004574195481836796
1717857512816034600,8.40703466796875,0.001125785056501627,-0.0005362117663025856,-0.0009276904165744781
1717857512826076400,8.417076416015625,0.002161373384296894,0.00037237443029880524,0.000525900162756443
1717857512836117500,8.427117431640625,-0.0005646385252475739,-0.0007581375539302826,0.0003860839642584324
1717857512846158600,8.43715869140625,0.0007882807403802872,0.00002123415470123291,0.0013808226212859154
1717857512856200400,8.447200439453125,-0.000698561780154705,0.00017623044550418854,0.0010034525766968727
1717857512866241500,8.457241455078124,-0.0003035652916878462,-0.001348169520497322,0.000006327871233224869
1717857512876282400,8.467282470703125,-0.0004590940661728382,-0.00018676463514566422,-0.0004890202544629574
1717857512886324700,8.47732470703125,-0.00005580647848546505,-0.0001939600333571434,0.0018551643006503582
1717857512896365600,8.487365478515626,0.0003862781450152397,0.0012537343427538872,0.0014080195687711239
1717857512906406700,8.49740673828125,0.00023796642199158669,-0.0011662589386105537,0.0005088443867862225
1717857512916448500,8.507448486328125,-0.0004770925734192133,-0.0005795648321509361,-0.0006712023168802261
1717857512926489600,8.517489501953126,-0.001539172837510705,-0.0012618955224752426,0.0012152735143899918
1717857512936531500,8.527531494140625,-0.0016747277695685625,0.0003977864980697632,-0.000428695697337389
1717857512946572500,8.537572509765624,-0.0014533575158566236,0.0004942640662193298,0.0016699209809303284
1717857512956613600,8.547613525390625,0.0003243023529648781,0.0019392957910895348,0.0007396787405014038
1717857512966655500,8.557655517578125,0.0003653271123766899,0.00003301538527011871,0.001254834234714508
1717857512976696600,8.567696533203126,-0.0004440073389559984,-0.00048203952610492706,-0.0005100425332784653
1717857512986737400,8.5777373046875,0.0011795051395893097,-0.00034294091165065765,-0.0009705745615065098
1717857512996779800,8.58777978515625,0.0011787060648202896,-0.0005053943023085594,-0.00037269480526447296
1717857513006820600,8.597820556640626,-0.00047047226689755917,-0.00045913271605968475,0.0005821259692311287
1717857513016861700,8.60786181640625,0.0021106633357703686,-0.0014743292704224586,-0.0015215049497783184
1717857513026903600,8.617903564453124,0.0004659532569348812,-0.0019622361287474632,0.0016435966826975346
1717857513036944600,8.627944580078125,0.0004699481651186943,0.0002617696300148964,0.0015919315628707409
1717857513046985700,8.63798583984375,0.0013892543502151966,0.0000852290540933609,-0.00003056507557630539
1717857513057027600,8.648027587890626,-0.00023500737734138966,-0.00016857031732797623,-0.0020878571085631847
1717857513067068700,8.658068603515625,0.000011049676686525345,6.472691893577576e-7,-0.0005543464794754982
1717857513077109500,8.668109619140624,0.0007902905344963074,0.0005641719326376915,0.0011402228847146034
1717857513087151600,8.678151611328126,0.0007958677597343922,-0.00042883679270744324,-0.0010702037252485752
1717857513097192400,8.6881923828125,0.00019612396135926247,-0.0010080747306346893,0.0009910832159221172
1717857513107233500,8.698233642578124,0.000151162501424551,-0.00020772404968738556,-0.00041391002014279366
1717857513117275400,8.708275390625,0.0012758155353367329,-0.0005595283582806587,-0.00024479953572154045
1717857513127316500,8.71831640625,0.0005424180999398232,0.00024290475994348526,0.0007638726383447647
1717857513137358600,8.728358642578126,-0.0018624162767082453,-0.0008306149393320084,0.0013905144296586514
1717857513147399700,8.738399658203125,0.0008678138256072998,0.00014421157538890839,0.00035855313763022423
1717857513157440800,8.748440673828124,0.0004694047383964062,-0.00026964303106069565,-0.0006073755212128162
1717857513167482600,8.758482666015626,-0.0012315677013248205,-0.000007648952305316925,0.00042920932173728943
1717857513177523700,8.768523681640625,-0.000320234103128314,-0.00034001097083091736,0.00024704867973923683
1717857513187564500,8.778564453125,-0.0006566718220710754,0.000017190352082252502,0.001230199821293354
1717857513197606700,8.788606689453125,0.0011457554064691067,-0.00015458371490240097,-0.000395393930375576
1717857513207647500,8.7986474609375,-0.0001845646183937788,-0.00042373593896627426,0.0008236374706029892
1717857513217688600,8.8086884765625,0.001097481232136488,-0.0005965745076537132,-0.00036120321601629257
1717857513227730400,8.81873046875,0.0003966018557548523,-0.00000685080885887146,-0.0004309099167585373
1717857513237771500,8.828771484375,-0.00014907983131706715,0.0005276454612612724,-0.0001478157937526703
1717857513247812600,8.8388125,0.0002582981251180172,-0.0014169719070196152,0.0001446884125471115
1717857513257854500,8.8488544921875,0.0007168943993747234,0.0009814715012907982,-0.000997541006654501
1717857513267895600,8.8588955078125,0.001652638427913189,0.0002657296136021614,0.0018885270692408085
1717857513277936400,8.868936279296875,-0.00030531734228134155,0.0019941218197345734,0.00010554073378443718
1717857513287978800,8.878978759765625,0.0016016601584851742,-0.0005596866831183434,-0.0009751175530254841
1717857513298019600,8.88901953125,0.0008977865800261497,-0.00030295737087726593,0.00030213454738259315
1717857513308060700,8.899060791015625,-0.0007732589729130268,0.0008106045424938202,0.0011681378819048405
1717857513318102500,8.9091025390625,0.0010097273625433445,-0.0003848876804113388,0.00036439578980207443
1717857513328143600,8.9191435546875,-0.0001348629593849182,0.00017958413809537888,0.00042938999831676483
1717857513338184700,8.929184814453125,0.0003591533750295639,0.000028849579393863678,-0.0005527837201952934
1717857513348226600,8.9392265625,-0.0001279937569051981,-0.0004862723872065544,-0.000613681972026825
1717857513358267600,8.949267578125,0.0007591051980853081,-0.0008335486054420471,0.0005533150397241116
1717857513368309500,8.9593095703125,-0.001165312947705388,-0.00006126426160335541,0.0011139623820781708
1717857513378350600,8.9693505859375,-0.0000715525820851326,0.00014299992471933365,0.0008827997371554375
1717857513388391400,8.979391357421875,0.0007297759875655174,-0.0003650421276688576,-0.00040208129212260246
1717857513398433800,8.989433837890624,0.0007593370974063873,-0.00128250103443861,0.00044746696949005127
1717857513408474600,8.999474609375,0.000987050123512745,-0.0003148075193166733,-0.0003008558414876461
1717857513418515700,9.009515625,0.0002509523183107376,-0.00036833714693784714,-0.0004819510504603386
1717857513428557600,9.0195576171875,0.0007506608963012695,0.000383131206035614,-0.00011013355106115341
1717857513438598700,9.0295986328125,-0.0006562869530171156,-0.00021927617490291595,0.0009665824472904205
1717857513448639700,9.0396396484375,0.001597339753061533,-0.0009869001805782318,0.00045147957280278206
1717857513458681600,9.049681640625,0.000729947816580534,-0.00016851071268320084,-0.00045372871682047844
1717857513468722700,9.05972265625,0.00040720822289586067,-0.0016712890937924385,0.0007601212710142136
1717857513478763500,9.069763427734374,0.0009523574262857437,-0.0009413165971636772,-0.0000377618707716465
1717857513488805600,9.0798056640625,0.0008391351439058781,0.0014021797105669975,-0.0003426503390073776
1717857513498846500,9.089846435546875,0.0010852115228772163,-0.00034591928124427795,0.001381746493279934
1717857513508887600,9.099887451171876,0.0005981023423373699,-0.0001232018694281578,-0.00017858250066637993
1717857513518929400,9.109929443359375,0.0006769322790205479,-0.0004702117294073105,-0.000401488970965147
1717857513528970500,9.119970458984374,-0.0009642636869102716,-0.0011755554005503654,0.0007673338986933231
1717857513539011600,9.130011474609375,-0.00010592699982225895,0.00030383095145225525,-0.0003602486103773117
1717857513549053700,9.1400537109375,0.00024896813556551933,0.0002758558839559555,-0.0015203971415758133
1717857513559094800,9.1500947265625,0.0004441780038177967,-0.000014695338904857635,0.000576309859752655
1717857513569135600,9.160135498046875,0.0006694360636174679,-0.00010801199823617935,-0.000009500887244939804
1717857513579177700,9.170177734375,-0.0022294148802757263,-0.0006576888263225555,0.001114086713641882
1717857513589218600,9.180218505859376,-0.0002577782142907381,-0.0009189946576952934,-0.00026908423751592636
1717857513599259600,9.190259765625,0.00014862045645713806,0.00011937133967876434,-0.00039931247010827065
1717857513609301500,9.200301513671874,-0.0006322567351162434,0.00005035102367401123,0.00012461096048355103
1717857513619342600,9.210342529296875,0.00009265588596463203,-0.001418381929397583,0.00018719490617513657
1717857513629384400,9.220384521484375,0.0005004918202757835,-0.0012866836041212082,0.00040676631033420563
1717857513639425500,9.230425537109374,0.00045388657599687576,0.0008108224719762802,-0.0007557030767202377
1717857513649466600,9.240466552734375,-0.0017976644448935986,-0.0022977921180427074,-0.00019144313409924507
1717857513659508500,9.250508544921875,0.0009046448394656181,0.0010825581848621368,0.001943080686032772
1717857513669549600,9.260549560546876,-0.00047273188829421997,-0.0008003935217857361,-0.0007992340251803398
1717857513679590400,9.27059033203125,0.000893203541636467,-0.000571361742913723,-0.0005425051786005497
1717857513689632800,9.2806328125,-0.0013478724285960197,-0.0009177755564451218,-0.0002481364645063877
1717857513699673600,9.290673583984375,-0.000010699499398469925,0.0008423076942563057,0.00116653461009264
1717857513709714700,9.300714599609375,0.000976034440100193,-0.0006211027503013611,0.000453112181276083
1717857513719756500,9.310756591796874,0.0012327632866799831,-0.0008109854534268379,-0.0008544996380805969
1717857513729797600,9.320797607421875,-0.0010624723508954048,-0.00006577838212251663,-0.0008877464570105076
1717857513739838700,9.330838623046875,0.0004142504185438156,-0.0005222437903285027,0.0006137439049780369
1717857513749880600,9.340880615234376,0.000002859160304069519,-0.0010061562061309814,0.0009321412071585655
1717857513759921700,9.350921630859375,-0.00024934206157922745,0.0007320893928408623,-0.0003120875917375088
1717857513769962500,9.36096240234375,0.0004986925050616264,0.0005094483494758606,0.0009463322348892689
1717857513780004600,9.371004638671875,-0.0010299619752913713,0.0012934831902384758,-0.0000036172568798065186
1717857513790045400,9.38104541015625,0.0008276081643998623,0.00006575789302587509,0.0009084818884730339
1717857513800086500,9.39108642578125,0.00033758627250790596,-0.000372864305973053,0.0015047639608383179
1717857513810128600,9.401128662109375,-0.0010096814949065447,-0.0015883324667811394,0.0006559020839631557
1717857513820169700,9.411169677734375,-0.0015684126410633326,-0.0012961840257048607,-0.00006395019590854645
1717857513830210600,9.42121044921875,0.00005433941259980202,0.0003016730770468712,0.0012684469111263752
1717857513840252700,9.431252685546875,0.00031932396814227104,-0.00018222257494926453,0.000768038909882307
1717857513850293800,9.441293701171874,0.00043479911983013153,-0.000694013200700283,0.0006600474007427692
1717857513860334600,9.45133447265625,0.0005035083740949631,0.0002772407606244087,0.0011647162027657032
1717857513870376700,9.461376708984375,0.0003034863620996475,-0.0014493875205516815,0.0002229735255241394
1717857513880417500,9.47141748046875,0.0011913841590285301,-0.001855519600212574,-0.002305964007973671
1717857513890459100,9.481459228515625,0.000791097991168499,-0.0003594662994146347,-0.0008332431316375732
1717857513900500000,9.4915,-0.00029547163285315037,-0.00040340889245271683,0.00039367517456412315
1717857513910541000,9.501541015625,0.0003616935573518276,-0.0006435159593820572,0.0002531842328608036
1717857513920583200,9.511583251953125,-0.0007456487510353327,-0.000980672426521778,0.000372227281332016
1717857513930624300,9.521624267578124,0.0004889937117695808,-0.0002871500328183174,-0.00013276329264044762
1717857513940665300,9.531665283203125,0.00018139835447072983,-0.0008533382788300514,0.000015574507415294647
1717857513950707200,9.541707275390625,0.0012518814764916897,-0.0006715795025229454,-0.0005885888822376728
1717857513960748300,9.551748291015626,-0.0001545336563140154,-0.0003719739615917206,0.00022553931921720505
1717857513970789000,9.5617890625,0.00006102630868554115,-0.0007544830441474915,-0.0003400435671210289
1717857513980831200,9.571831298828124,-0.0006452437955886126,-0.001161147840321064,0.0003632972948253155
1717857513990872000,9.5818720703125,-0.0001479273196309805,-0.00033801887184381485,0.001254030503332615
1717857514000913200,9.5919130859375,-0.0012707160785794258,-0.00012789573520421982,0.0011533629149198532
1717857514010955000,9.601955078125,-0.0005847308784723282,0.001960182562470436,0.0012539834715425968
1717857514020996000,9.61199609375,-0.0005439845845103264,-0.0000417148694396019,0.0007706196047365665
1717857514031037200,9.622037109375,-0.0009104199707508087,0.0001824731007218361,0.0009384262375533581
1717857514041079000,9.6320791015625,-0.000016396865248680115,0.00042828265577554703,-0.0011084792204201221
1717857514051120000,9.6421201171875,-0.001769809052348137,-0.0015951837413012981,-0.0006677685305476189
1717857514061161000,9.652160888671874,0.0006510042585432529,0.00017049163579940796,-0.0016504749655723572
1717857514071203300,9.662203369140625,0.0007660035043954849,-0.0001247907057404518,0.000001116190105676651
1717857514081244200,9.672244140625,-0.001493954798206687,-0.00016713514924049377,0.0005300203338265419
1717857514091285200,9.68228515625,0.00041241757571697235,0.000040446408092975616,0.0008062813431024551
1717857514101327000,9.6923271484375,0.00040096603333950043,0.00012406893074512482,0.0003812406212091446
1717857514111368200,9.7023681640625,-0.0006624956149607897,-0.0012698732316493988,-0.0003455802798271179
1717857514121409300,9.7124091796875,0.000579602550715208,-0.00021153315901756287,0.0014808154664933681
1717857514131451100,9.722451171875,-0.001263301819562912,0.0007735816761851311,-0.0008520935662090778
1717857514141492200,9.7324921875,-0.0002885849680751562,-0.0003177821636199951,-0.0005130735225975513
1717857514151533000,9.742532958984375,-0.0005541120190173388,-0.0011251261457800865,0.0006842226721346378
1717857514161575200,9.7525751953125,-0.0009136388543993235,-0.0010524215176701546,-0.0013344530016183853
1717857514171616000,9.762615966796876,-0.00027974601835012436,0.00037843920290470123,-0.0006268490105867386
1717857514181657000,9.772656982421875,-0.0005005220882594585,0.000400543212890625,0.00014413613826036453
1717857514191699200,9.78269921875,-0.0003344118595123291,0.0008362075313925743,0.00030732667073607445
1717857514201740300,9.792740234375,-0.0011804981622844934,0.0009294180199503899,0.0010788440704345703
1717857514211782100,9.8027822265625,-0.0004251191858202219,0.0005806265398859978,0.0009061535820364952
1717857514221823200,9.8128232421875,0.0015655937604606152,-0.0006292471662163734,0.0015173489227890968
1717857514231864300,9.8228642578125,-0.000342261279001832,-0.0003892015665769577,0.0011337599717080593
1717857514241906200,9.83290625,0.0010801330208778381,0.00002358853816986084,-0.0004130043089389801
1717857514251947300,9.842947265625,-0.001669073710218072,-0.0010779276490211487,0.0010508345440030098
1717857514261988000,9.852988037109375,0.00035652657970786095,-0.001247570849955082,0.000456150621175766
1717857514272030200,9.8630302734375,0.0007796427235007286,0.00020118802785873413,0.00018495507538318634
1717857514282071000,9.873071044921875,-0.0008757780306041241,-0.0005594110116362572,-0.0006861649453639984
1717857514292112100,9.883112060546875,0.00014757877215743065,-0.00046194717288017273,0.00017130514606833458
1717857514302154000,9.893154052734374,0.0013545234687626362,0.000053641386330127716,0.00016571255400776863
1717857514312195000,9.903195068359375,-0.001304134028032422,0.00021373480558395386,-0.0005675386637449265
1717857514322236200,9.913236083984375,-0.00020744442008435726,-0.0016422220505774021,0.00016083614900708199
1717857514332278300,9.9232783203125,0.00006885360926389694,0.0007575042545795441,0.0010782554745674133
1717857514342319400,9.9333193359375,0.0006725923158228397,-0.0008039064705371857,-0.0013612001203000546
1717857514352360200,9.943360107421874,-0.0006254338659346104,0.0005588941276073456,0.0001295064575970173
1717857514362402300,9.95340234375,0.00036739232018589973,0.0006214790046215057,0.0005276487208902836
1717857514372443100,9.963443115234375,0.00005211262032389641,-0.0004459228366613388,-0.0005146772600710392
1717857514382484200,9.973484130859376,0.0004113730974495411,-0.00022567901760339737,0.00002248212695121765
1717857514392526000,9.983526123046875,0.00031430041417479515,0.00006058253347873688,0.0012484127655625343
1717857514402567200,9.993567138671875,-0.0009938445873558521,0.00014686863869428635,-0.0008296514861285686
1717857514412608300,10.003608154296876,0.000494904350489378,0.0002237074077129364,0.000348901841789484
1717857514422650000,10.013650146484375,-0.00011229631491005421,-0.001535310409963131,-0.00027321232482790947
1717857514432691200,10.023691162109374,0.00176246277987957,0.0008138539269566536,-0.000547558069229126
1717857514442732000,10.03373193359375,-0.000003213062882423401,0.00008494686335325241,-0.00008842907845973969
1717857514452774100,10.043774169921875,0.0024136872962117195,0.00006539188325405121,0.0005237376317381859
1717857514462815000,10.05381494140625,-0.0004968815483152866,0.0008459640666842461,-0.00017694011330604553
1717857514472856000,10.06385595703125,0.0007125847041606903,0.0007416196167469025,0.0002877134829759598
1717857514482898200,10.073898193359375,-0.0010086162947118282,-0.0007737185806035995,-0.0019123237580060959
1717857514492939300,10.083939208984376,-0.001892745727673173,0.0006875200197100639,-0.0005398574285209179
1717857514502980400,10.09398046875,0.0001661442220211029,0.000435851514339447,0.002127031795680523
1717857514513022200,10.104022216796874,0.00002719322219491005,-0.000669148750603199,0.00008406257256865501
1717857514523063300,10.114063232421875,0.00040003564208745956,0.0004794728010892868,0.0012044543400406837
1717857514533105200,10.124105224609375,-0.0003064300399273634,-0.00015908759087324142,0.0007970752194523811
1717857514543146200,10.134146240234376,-0.0006212156731635332,-0.00038332585245370865,0.0009795017540454865
1717857514553187000,10.14418701171875,0.0003940826281905174,0.00028609950095415115,-0.00032124854624271393
1717857514563229200,10.154229248046875,-0.00003122398629784584,0.0004698578268289566,0.0015416322275996208
1717857514573270000,10.16427001953125,-0.001601956319063902,-0.0006599500775337219,0.00024376390501856804
1717857514583311000,10.17431103515625,0.0006566704250872135,-0.0006231991574168205,-0.000575424637645483
1717857514593353200,10.184353271484374,-0.00006609968841075897,-0.000614154152572155,0.0007095914334058762
1717857514603394300,10.194394287109375,-0.001039218856021762,-0.00011374615132808685,-0.000581775326281786
1717857514613435400,10.204435302734375,-0.000653131166473031,-0.0008554430678486824,-0.000896077137440443
1717857514623477200,10.214477294921876,-0.000522369984537363,0.0006196824833750725,0.001204357948154211
1717857514633518300,10.224518310546875,0.0004768059588968754,-0.001945804338902235,-0.0009787012822926044
1717857514643559200,10.23455908203125,-0.0008784770034253597,0.000013482756912708282,0.0015140175819396973
1717857514653601300,10.244601318359376,-0.0006724228151142597,0.0004984596744179726,-0.0009134667925536633
1717857514663642000,10.25464208984375,0.0003643459640443325,-0.000407547689974308,0.0012596724554896355
1717857514673683200,10.26468310546875,-0.0007125930860638618,-0.00033821165561676025,0.00011726608499884605
1717857514683725000,10.27472509765625,-0.00048515922389924526,0.00043676793575286865,-0.00036663003265857697
1717857514693766100,10.28476611328125,-0.00011186464689671993,-0.001596151851117611,-0.0003682384267449379
1717857514703807200,10.29480712890625,0.0001536523923277855,-0.00010558031499385834,-0.0004577208310365677
1717857514713849000,10.30484912109375,0.00016723386943340302,-0.0004899101331830025,-0.0002515777014195919
1717857514723890200,10.31489013671875,-0.0018112286925315857,-0.000057413242757320404,0.0005713393911719322
1717857514733931000,10.324930908203125,-0.001598127419129014,0.0009506382048130035,0.0004294607788324356
1717857514743973400,10.334973388671875,0.001203784253448248,-0.0005830768495798111,-0.0004429910331964493
1717857514754014200,10.34501416015625,0.00026326579973101616,0.0012543760240077972,-0.0003533945418894291
1717857514764055300,10.35505517578125,-0.0003636423498392105,0.0005606226623058319,-0.0010572681203484535
1717857514774097200,10.36509716796875,0.0017002145759761333,0.0013260086998343468,0.00006327405571937561
1717857514784138200,10.37513818359375,0.0006037913262844086,-0.0016167848370969296,0.0006030970253050327
1717857514794179300,10.385179443359375,-0.001202010316774249,-0.0014543463476002216,0.0009554647840559483
1717857514804221200,10.39522119140625,0.001050491351634264,-0.0006093252450227737,0.0019935648888349533
1717857514814262300,10.40526220703125,-0.0005048303864896297,0.0007979171350598335,0.0006835805252194405
1717857514824303000,10.41530322265625,-0.0004949767608195543,-0.0016596480272710323,0.0006518890149891376
1717857514834345200,10.42534521484375,0.00031785760074853897,0.0002746526151895523,-0.00016200868412852287
1717857514844386000,10.435385986328125,0.0007612737827003002,-0.0000020498409867286682,0.00014265719801187515
1717857514854427100,10.44542724609375,-0.0005575635004788637,-0.0007421337068080902,0.001405258197337389
1717857514864469000,10.455468994140626,0.002088021021336317,-0.00004198867827653885,0.0007818122394382954
1717857514874510000,10.465510009765625,0.0005802875384688377,-0.0007157176733016968,-0.000006665010005235672
1717857514884551200,10.47555126953125,0.000049785710871219635,-0.0007117222994565964,0.0005661807954311371
1717857514894593800,10.48559375,-0.000143472570925951,-0.000809631310403347,0.001012454740703106
1717857514904634600,10.495634521484375,0.0003577345050871372,-0.0003747371956706047,0.001301407814025879
1717857514914675700,10.50567578125,0.00041881809011101723,0.00018678046762943268,0.0020679067820310593
1717857514924717600,10.515717529296875,-0.0002871858887374401,0.000277593731880188,0.0004359213635325432
1717857514934758700,10.525758544921874,-0.0006205115932971239,-0.0003388635814189911,-0.0013817129656672478
1717857514944799700,10.5357998046875,0.000052469316869974136,-0.0013170423917472363,0.00016105640679597855
1717857514954841600,10.545841552734375,0.0014413446187973022,0.000173092819750309,0.0008133747614920139
1717857514964882700,10.555882568359374,-0.00018185190856456757,-0.0007507577538490295,-0.00045402348041534424
1717857514974923500,10.565923583984375,-0.000047870445996522903,-0.0002814875915646553,0.0007645469158887863
1717857514984966000,10.5759658203125,0.000514322891831398,0.0010596802458167076,0.0014476478099822998
1717857514995006700,10.5860068359375,0.0005328799597918987,-0.0004079984501004219,0.0004649250768125057
1717857515005048800,10.596048828125,-0.0007097509223967791,0.0004026675596833229,-0.0004376205615699291
1717857515015089700,10.606089599609374,-0.0011136089451611042,0.00006548594683408737,-0.0009814584627747536
1717857515025130800,10.616130859375,-0.0001386257354170084,0.0001970464363694191,0.0013591940514743328
1717857515035172600,10.626172607421875,-0.0007568313740193844,-0.00030462443828582764,0.00024064583703875542
1717857515045213700,10.636213623046874,-0.0011789423879235983,0.00011721998453140259,-0.00025070738047361374
1717857515055254800,10.6462548828125,-0.000056684017181396484,0.0006930846720933914,0.0015474837273359299
1717857515065296600,10.656296630859375,0.00108021916821599,0.0008869627490639687,0.00199782382696867
1717857515075337700,10.666337646484376,-0.0007807649672031403,-0.0003606509417295456,0.0002102358266711235
1717857515085378600,10.676378662109375,-0.0004702403675764799,-0.0006144503131508827,-0.0013101627118885517
1717857515095420700,10.686420654296874,0.000027649104595184326,-0.0017937654629349709,-0.0007864427752792835
1717857515105461500,10.69646142578125,0.0005498952232301235,-0.0008161189034581184,-0.00026046857237815857
1717857515115502600,10.706502685546875,0.0020042089745402336,0.001237994059920311,-0.0007966747507452965
1717857515125544700,10.716544677734374,0.0005005882121622562,0.0006989696994423866,0.0006201267242431641
1717857515135585800,10.726585693359375,-0.0016401712782680988,0.00043081119656562805,0.001169772818684578
1717857515145627000,10.736626953125,0.0004056692123413086,-0.0007012989372014999,-0.00020202156156301498
1717857515155668700,10.746668701171876,-0.00011854502372443676,0.0006251372396945953,0.000989256426692009
1717857515165709800,10.756709716796875,0.00034005148336291313,-0.000604177825152874,0.001757312100380659
1717857515175750700,10.766750732421874,0.0011334116570651531,-0.00030892156064510345,0.001065780408680439
1717857515185792800,10.776792724609376,0.0015406091697514057,-0.0004969406872987747,0.00003380561247467995
1717857515195833600,10.78683349609375,0.0008306605741381645,-0.000963154248893261,0.0005383705720305443
1717857515205874700,10.796874755859376,-0.0015025348402559757,0.0003774818032979965,0.00041160453110933304
1717857515215916500,10.80691650390625,0.00130563136190176,0.00026419851928949356,0.0013330276124179363
1717857515225957600,10.81695751953125,0.00111095467582345,-0.0010079937055706978,-0.00018470827490091324
1717857515235998700,10.826998779296876,-0.0010211416520178318,-0.00003069639205932617,-0.00008734827861189842
1717857515246040600,10.83704052734375,0.00026037124916911125,-0.0003406880423426628,-0.0008018743246793747
1717857515256081700,10.84708154296875,-0.0012871020007878542,-0.00044761132448911667,-0.0008885897696018219
1717857515266122500,10.85712255859375,-0.00030492828227579594,0.0004298994317650795,-0.00021001650020480156
1717857515276164900,10.867164794921875,-0.0012590638361871243,-0.0022430908866226673,0.0013126484118402004
1717857515286205700,10.877205810546876,-0.0013482796493917704,-0.0013144463300704956,-0.00037446431815624237
1717857515296246800,10.887246826171875,0.00020115356892347336,0.00036200694739818573,0.001282630953937769
1717857515306288600,10.89728857421875,0.0007415092550218105,0.00016946066170930862,-0.0011006318964064121
1717857515316329700,10.907329833984376,0.0008338131010532379,-0.0001606978476047516,-0.00021797511726617813
1717857515326370800,10.917370849609375,-0.00047779339365661144,0.0013762125745415688,0.000815331470221281
1717857515336412700,10.92741259765625,0.00014315685257315636,-0.0007297424599528313,0.0008820397779345512
1717857515346453800,10.937453857421875,0.0009082830511033535,-0.0012349439784884453,0.00009773857891559601
1717857515356494600,10.94749462890625,-0.0015155680011957884,0.00007974822074174881,-0.000012048520147800446
1717857515366536700,10.95753662109375,0.0013164374977350235,-0.0003695273771882057,0.0008894316852092743
1717857515376577500,10.96757763671875,-0.00036760582588613033,0.0006183916702866554,-0.0002785520628094673
1717857515386618600,10.97761865234375,-0.00036254595033824444,-0.0015374370850622654,0.0016450495459139347
1717857515396660700,10.98766064453125,-0.00025797169655561447,0.00011290330439805984,0.0009261434897780418
1717857515406701800,10.997701904296875,-0.00044306134805083275,0.00013341009616851807,-0.00019691139459609985
1717857515416743000,11.007742919921874,0.00029910868033766747,-0.0009069368243217468,-0.00015271594747900963
1717857515426784800,11.01778466796875,-0.0008844002149999142,0.0004230458289384842,-0.0001900000497698784
1717857515436825900,11.027825927734375,-0.0003347257152199745,-0.0008931485936045647,0.0016580498777329922
1717857515446866700,11.03786669921875,0.0006863302551209927,-0.000841483473777771,0.0006228792481124401
1717857515456908800,11.04790869140625,0.0004939013160765171,0.00018151290714740753,0.00037383008748292923
1717857515466949600,11.05794970703125,-0.0003782839048653841,-0.0005159685388207436,0.00019593071192502975
1717857515476990700,11.06799072265625,0.00019171973690390587,-0.0004884647205471992,0.0007033483125269413
1717857515487032600,11.078032470703125,-0.00027113757096230984,0.00010328926146030426,0.0006908313371241093
1717857515497073700,11.08807373046875,0.0004123714752495289,-0.0006630625575780869,-0.0003088810481131077
1717857515507114800,11.09811474609375,0.001268045511096716,-0.0007299082353711128,-0.0011341944336891174
1717857515517156600,11.108156494140625,-0.0006801995914429426,-0.000020703300833702087,0.0014888541772961617
1717857515527197700,11.11819775390625,-0.0011470515746623278,-0.00037863198667764664,-0.0010336916893720627
1717857515537238500,11.128238525390625,0.0007734494283795357,0.00006776582449674606,0.000279946718364954
1717857515547281000,11.138281005859374,-0.00005159759894013405,-0.00019988231360912323,-0.00047612469643354416
1717857515557321700,11.14832177734375,0.0006168265827000141,-0.0006579691544175148,0.0012009218335151672
1717857515567362800,11.15836279296875,0.00019684573635458946,-0.00034158583730459213,0.00032021431252360344
1717857515577404700,11.16840478515625,-0.00039432430639863014,-0.00023611821234226227,0.001288123894482851
1717857515587445800,11.17844580078125,0.00043658213689923286,-0.0018614456057548523,0.0006188713014125824
1717857515597487600,11.188487548828125,-0.0003437155392020941,-0.00022717565298080444,-0.0012351954355835915
1717857515607528700,11.19852880859375,-0.0013322809245437384,-0.0008519524708390236,0.00004631746560335159
1717857515617569800,11.20856982421875,-0.0003746964503079653,-0.0016105351969599724,0.000079380813986063
1717857515627611600,11.218611572265624,0.00011399341747164726,0.0005514184013009071,-0.0008170390501618385
1717857515637652700,11.22865283203125,-0.0008468667510896921,-0.00019763410091400146,-0.0000967271625995636
1717857515647693600,11.238693603515625,-0.0021661967039108276,-0.00019470416009426117,-0.00028581172227859497
1717857515657735700,11.248735595703126,-0.00021908152848482132,0.00030329450964927673,-0.0008561126887798309
1717857515667776500,11.258776611328125,0.000056821852922439575,0.0003283284604549408,-0.0010225600562989712
1717857515677817600,11.268817626953124,0.00033328263089060783,-0.00019724015146493912,0.0009354487992823124
1717857515687859700,11.278859619140626,-0.0012318568769842386,-0.000018009915947914124,-0.0007186406292021275
1717857515697900800,11.28890087890625,-0.00035633030347526073,-0.00005094241350889206,0.00010614143684506416
1717857515707942000,11.29894189453125,0.0007355655543506145,-0.0013652127236127853,0.00043397676199674606
1717857515717983700,11.308983642578125,-0.0014649538788944483,0.00009881239384412766,-0.0007107113488018513
1717857515728024800,11.31902490234375,0.000039732083678245544,-0.0006607212126255035,0.0007241996936500072
1717857515738065700,11.329065673828126,-0.0014055278152227402,-0.00015474576503038406,0.0005990294739603996
1717857515748107800,11.339107666015625,-0.00160792819224298,-0.0007459670305252075,-0.0008111139759421349
1717857515758148600,11.349148681640624,-0.0009027784690260887,-0.0010458296164870262,-0.00016328459605574608
1717857515768189700,11.359189697265625,0.0010250839404761791,-0.00034089013934135437,0.0005746772512793541
1717857515778231600,11.3692314453125,0.00010079005733132362,-0.0009857630357146263,0.001131395809352398
1717857515788272600,11.379272705078124,0.00043821241706609726,-0.0002414090558886528,-0.0005013882182538509
1717857515798313700,11.389313720703125,-0.001119760563597083,-0.0004166187718510628,-0.00004749651998281479
1717857515808355800,11.39935595703125,0.002451804932206869,-0.00007253885269165039,0.00020417198538780212
1717857515818397000,11.40939697265625,-0.0011261494364589453,-0.0009629605337977409,0.0002697138115763664
1717857515828437800,11.419437744140625,0.000227268785238266,-0.00029104482382535934,0.0000031311064958572388
1717857515838480000,11.42947998046875,0.0005862112157046795,0.00015247706323862076,0.0008163205347955227
1717857515848520700,11.439520751953125,0.0011012665927410126,-0.00041584111750125885,0.0001779608428478241
1717857515858561800,11.449561767578125,-0.00034206989221274853,0.00016140751540660858,0.0003275400958955288
1717857515868603600,11.459603759765624,-0.0005306217353790998,-0.0006884066388010979,0.00007640384137630463
1717857515878644700,11.469644775390625,-0.00010037561878561974,-0.0000853128731250763,-0.0006630499847233295
1717857515888685800,11.479685791015624,-0.0005917290691286325,-0.000494108535349369,-0.00039859768003225327
1717857515898727400,11.4897275390625,0.001442277804017067,-0.0014030300080776215,0.00033255526795983315
1717857515908768500,11.4997685546875,0.001668646465986967,0.000566377304494381,-0.0004983507096767426
1717857515918809300,11.509809326171874,-0.0009499266743659973,-0.0006069792434573174,0.0003407644107937813
1717857515928851700,11.519851806640625,-0.0008284866344183683,-0.0007830141112208366,0.00008882908150553703
1717857515938892500,11.529892578125,-0.00048100040294229984,0.000410725362598896,0.0010025575757026672
1717857515948933600,11.53993359375,-0.00006980821490287781,-0.0013624075800180435,-0.0006765658035874367
1717857515958975500,11.5499755859375,0.00006636092439293861,0.000493108294904232,0.0012201359495520592
1717857515969016600,11.5600166015625,0.0006120428442955017,0.0004164092242717743,-0.0008278349414467812
1717857515979057700,11.5700576171875,-0.000885198125615716,0.00008456595242023468,0.0004954356700181961
1717857515989099500,11.580099609375,-0.0006444484461098909,-0.0014422242529690266,0.0015716194175183773
1717857515999140600,11.590140625,0.00043835630640387535,-0.00019301939755678177,0.0012513771653175354
1717857516009181400,11.600181396484375,-0.0013190633617341518,-0.0001810351386666298,-0.0014432095922529697
1717857516019223600,11.6102236328125,-0.000005013775080442429,-0.00008764397352933884,-0.0010494035668671131
1717857516029264400,11.620264404296876,0.00011110026389360428,-0.0009473124518990517,0.0007221312262117863
1717857516039305500,11.630305419921875,0.0001683887094259262,-0.0010211365297436714,-0.00014759041368961334
1717857516049347600,11.64034765625,0.00024934904649853706,-0.00092366524040699,0.0010202056728303432
1717857516059388700,11.650388671875,-0.0003847498446702957,0.002283584326505661,0.001574440859258175
1717857516069429800,11.6604296875,-0.0006305596325546503,0.001231103204190731,0.0005560480058193207
1717857516079471600,11.6704716796875,0.0004559103399515152,0.0006881449371576309,0.001010038424283266
1717857516089512700,11.6805126953125,0.00011502578854560852,0.0018910951912403107,0.001303785014897585
