time,seconds_elapsed,z,y,x
1716735778122735600,0.506735595703125,9.792584419250488,0.05506663769483566,0.043095629662275314
1716735778132735700,0.51673583984375,9.790189743041992,0.05267243832349777,0.047884032130241394
1716735778142736100,0.526736083984375,9.790189743041992,0.05267243832349777,0.047884032130241394
1716735778152736500,0.536736572265625,9.790189743041992,0.05027823522686958,0.05027823522686958
1716735778162736600,0.546736572265625,9.790189743041992,0.05027823522686958,0.05267243832349777
1716735778172736500,0.556736572265625,9.792584419250488,0.047884032130241394,0.05267243832349777
1716735778182736600,0.566736572265625,9.792584419250488,0.0454898327589035,0.05746084079146385
1716735778192736500,0.576736572265625,9.792584419250488,0.043095629662275314,0.05985504388809204
1716735778202736600,0.586736572265625,9.792584419250488,0.043095629662275314,0.06224924325942993
1716735778212736500,0.596736572265625,9.792584419250488,0.040701430290937424,0.06224924325942993
1716735778222736600,0.606736572265625,9.790189743041992,0.038307227194309235,0.05985504388809204
1716735778232736500,0.616736572265625,9.787796020507812,0.043095629662275314,0.05746084079146385
1716735778242736600,0.626736572265625,9.787796020507812,0.043095629662275314,0.05746084079146385
1716735778252736500,0.636736572265625,9.787796020507812,0.043095629662275314,0.05267243832349777
1716735778262736600,0.646736572265625,9.785401344299316,0.047884032130241394,0.047884032130241394
1716735778272736500,0.656736572265625,9.787796020507812,0.05267243832349777,0.047884032130241394
1716735778282736600,0.666736572265625,9.785401344299316,0.05267243832349777,0.043095629662275314
1716735778292736500,0.676736572265625,9.785401344299316,0.05027823522686958,0.040701430290937424
1716735778302736600,0.686736572265625,9.785401344299316,0.05027823522686958,0.035913024097681046
1716735778312736500,0.696736572265625,9.787796020507812,0.047884032130241394,0.038307227194309235
1716735778322736600,0.706736572265625,9.787796020507812,0.047884032130241394,0.038307227194309235
1716735778332736500,0.716736572265625,9.787796020507812,0.047884032130241394,0.040701430290937424
1716735778342736600,0.726736572265625,9.785401344299316,0.047884032130241394,0.043095629662275314
1716735778352736500,0.736736572265625,9.785401344299316,0.05027823522686958,0.047884032130241394
1716735778362736600,0.746736572265625,9.790189743041992,0.047884032130241394,0.047884032130241394
1716735778372736500,0.756736572265625,9.787796020507812,0.0454898327589035,0.05027823522686958
1716735778382736600,0.766736572265625,9.787796020507812,0.043095629662275314,0.05267243832349777
1716735778392736500,0.776736572265625,9.790189743041992,0.043095629662275314,0.05506663769483566
1716735778402736600,0.786736572265625,9.790189743041992,0.043095629662275314,0.05267243832349777
1716735778412736500,0.796736572265625,9.787796020507812,0.043095629662275314,0.05267243832349777
1716735778422736600,0.806736572265625,9.785401344299316,0.043095629662275314,0.05267243832349777
1716735778432736500,0.816736572265625,9.787796020507812,0.043095629662275314,0.05027823522686958
1716735778442736600,0.826736572265625,9.787796020507812,0.043095629662275314,0.0454898327589035
1716735778452736500,0.836736572265625,9.785401344299316,0.0454898327589035,0.0454898327589035
1716735778462736400,0.846736328125,9.785401344299316,0.0454898327589035,0.043095629662275314
1716735778472736500,0.856736572265625,9.785401344299316,0.0454898327589035,0.040701430290937424
1716735778482736400,0.866736328125,9.785401344299316,0.0454898327589035,0.040701430290937424
1716735778492736500,0.876736572265625,9.783007621765137,0.043095629662275314,0.038307227194309235
1716735778502736400,0.886736328125,9.78061294555664,0.0454898327589035,0.038307227194309235
1716735778512736500,0.896736572265625,9.78061294555664,0.047884032130241394,0.040701430290937424
1716735778522736400,0.906736328125,9.78061294555664,0.0454898327589035,0.040701430290937424
1716735778532736500,0.916736572265625,9.783007621765137,0.043095629662275314,0.043095629662275314
1716735778542736400,0.926736328125,9.785401344299316,0.043095629662275314,0.043095629662275314
1716735778552736500,0.936736572265625,9.785401344299316,0.043095629662275314,0.047884032130241394
1716735778562736400,0.946736328125,9.785401344299316,0.040701430290937424,0.05267243832349777
1716735778572736500,0.956736572265625,9.787796020507812,0.0454898327589035,0.05746084079146385
1716735778582736400,0.966736328125,9.785401344299316,0.043095629662275314,0.05506663769483566
1716735778592736500,0.976736572265625,9.787796020507812,0.0454898327589035,0.05267243832349777
1716735778602736400,0.986736328125,9.787796020507812,0.043095629662275314,0.05267243832349777
1716735778612736500,0.996736572265625,9.787796020507812,0.043095629662275314,0.05506663769483566
1716735778622736600,1.006736572265625,9.790189743041992,0.043095629662275314,0.05027823522686958
1716735778632736500,1.016736572265625,9.787796020507812,0.043095629662275314,0.047884032130241394
1716735778642736600,1.026736572265625,9.787796020507812,0.047884032130241394,0.040701430290937424
1716735778652736500,1.036736572265625,9.787796020507812,0.047884032130241394,0.043095629662275314
1716735778662736600,1.046736572265625,9.787796020507812,0.047884032130241394,0.043095629662275314
1716735778672736500,1.056736572265625,9.787796020507812,0.047884032130241394,0.043095629662275314
1716735778682736600,1.066736572265625,9.785401344299316,0.047884032130241394,0.0454898327589035
1716735778692736500,1.076736572265625,9.783007621765137,0.0454898327589035,0.0454898327589035
1716735778702736600,1.086736572265625,9.783007621765137,0.043095629662275314,0.0454898327589035
1716735778712736500,1.096736572265625,9.785401344299316,0.043095629662275314,0.05027823522686958
1716735778722736600,1.106736572265625,9.785401344299316,0.043095629662275314,0.05506663769483566
1716735778732736500,1.116736572265625,9.785401344299316,0.040701430290937424,0.05746084079146385
1716735778742736600,1.126736572265625,9.787796020507812,0.040701430290937424,0.05985504388809204
1716735778752736500,1.136736572265625,9.783007621765137,0.040701430290937424,0.05985504388809204
1716735778762736600,1.146736572265625,9.785401344299316,0.040701430290937424,0.06224924325942993
1716735778772736500,1.156736572265625,9.763854026794434,0.043095629662275314,0.06224924325942993
1716735778782736600,1.166736572265625,9.771036148071289,0.047884032130241394,0.06224924325942993
1716735778792736500,1.176736572265625,9.797372817993164,0.0454898327589035,0.06224924325942993
1716735778802736600,1.186736572265625,9.783007621765137,0.0454898327589035,0.05985504388809204
1716735778812736500,1.196736572265625,9.771036148071289,0.0454898327589035,0.05746084079146385
1716735778822736600,1.206736572265625,9.775824546813965,0.05027823522686958,0.05746084079146385
1716735778832736500,1.216736572265625,9.783007621765137,0.05267243832349777,0.05027823522686958
1716735778842736600,1.226736572265625,9.78061294555664,0.05027823522686958,0.0454898327589035
1716735778852736500,1.236736572265625,9.771036148071289,0.05267243832349777,0.0454898327589035
1716735778862736600,1.246736572265625,9.775824546813965,0.05506663769483566,0.043095629662275314
1716735778872736500,1.256736572265625,9.783007621765137,0.05506663769483566,0.043095629662275314
1716735778882736600,1.266736572265625,9.78061294555664,0.05506663769483566,0.043095629662275314
1716735778892736500,1.276736572265625,9.775824546813965,0.05027823522686958,0.040701430290937424
1716735778902736600,1.286736572265625,9.783007621765137,0.05027823522686958,0.043095629662275314
1716735778912736500,1.296736572265625,9.790189743041992,0.05027823522686958,0.0454898327589035
1716735778922736600,1.306736572265625,9.785401344299316,0.047884032130241394,0.05027823522686958
1716735778932736500,1.316736572265625,9.783007621765137,0.0454898327589035,0.05027823522686958
1716735778942736600,1.326736572265625,9.785401344299316,0.043095629662275314,0.05267243832349777
1716735778952736500,1.336736572265625,9.790189743041992,0.040701430290937424,0.05267243832349777
1716735778962736400,1.346736328125,9.790189743041992,0.040701430290937424,0.05267243832349777
1716735778972736500,1.356736572265625,9.785401344299316,0.038307227194309235,0.05267243832349777
1716735778982736400,1.366736328125,9.787796020507812,0.040701430290937424,0.05027823522686958
1716735778992736500,1.376736572265625,9.790189743041992,0.040701430290937424,0.047884032130241394
1716735779002736400,1.386736328125,9.787796020507812,0.038307227194309235,0.0454898327589035
1716735779012736500,1.396736572265625,9.785401344299316,0.040701430290937424,0.043095629662275314
1716735779022736400,1.406736328125,9.783007621765137,0.0454898327589035,0.040701430290937424
1716735779032736500,1.416736572265625,9.785401344299316,0.0454898327589035,0.043095629662275314
1716735779042736400,1.426736328125,9.785401344299316,0.0454898327589035,0.043095629662275314
1716735779052736500,1.436736572265625,9.783007621765137,0.0454898327589035,0.040701430290937424
1716735779062736400,1.446736328125,9.783007621765137,0.0454898327589035,0.040701430290937424
1716735779072736500,1.456736572265625,9.790189743041992,0.0454898327589035,0.043095629662275314
1716735779082736400,1.466736328125,9.790189743041992,0.0454898327589035,0.0454898327589035
1716735779092736500,1.476736572265625,9.787796020507812,0.0454898327589035,0.0454898327589035
1716735779102736400,1.486736328125,9.785401344299316,0.0454898327589035,0.0454898327589035
1716735779112736500,1.496736572265625,9.790189743041992,0.047884032130241394,0.047884032130241394
1716735779122736400,1.506736328125,9.790189743041992,0.047884032130241394,0.047884032130241394
1716735779132736500,1.516736572265625,9.787796020507812,0.043095629662275314,0.05027823522686958
1716735779142736400,1.526736328125,9.787796020507812,0.043095629662275314,0.05267243832349777
1716735779152736500,1.536736572265625,9.790189743041992,0.0454898327589035,0.05267243832349777
1716735779162736400,1.546736328125,9.787796020507812,0.0454898327589035,0.05267243832349777
1716735779172736500,1.556736572265625,9.785401344299316,0.0454898327589035,0.05027823522686958
1716735779182736400,1.566736328125,9.785401344299316,0.0454898327589035,0.047884032130241394
1716735779192736500,1.576736572265625,9.787796020507812,0.047884032130241394,0.043095629662275314
1716735779202736400,1.586736328125,9.790189743041992,0.0454898327589035,0.043095629662275314
1716735779212736500,1.596736572265625,9.785401344299316,0.047884032130241394,0.040701430290937424
1716735779222736400,1.606736328125,9.785401344299316,0.05027823522686958,0.040701430290937424
1716735779232736500,1.616736572265625,9.785401344299316,0.05027823522686958,0.038307227194309235
1716735779242736400,1.626736328125,9.787796020507812,0.05506663769483566,0.040701430290937424
1716735779252736500,1.636736572265625,9.785401344299316,0.05506663769483566,0.040701430290937424
1716735779262736400,1.646736328125,9.787796020507812,0.05267243832349777,0.038307227194309235
1716735779272736500,1.656736572265625,9.790189743041992,0.05027823522686958,0.040701430290937424
1716735779282736000,1.666736083984375,9.790189743041992,0.047884032130241394,0.0454898327589035
1716735779292318700,1.676318603515625,9.785401344299316,0.05027823522686958,0.047884032130241394
1716735779302318800,1.68631884765625,9.785401344299316,0.047884032130241394,0.05027823522686958
1716735779312318700,1.696318603515625,9.787796020507812,0.047884032130241394,0.05506663769483566
1716735779322318800,1.70631884765625,9.787796020507812,0.047884032130241394,0.05746084079146385
1716735779332318700,1.716318603515625,9.790189743041992,0.043095629662275314,0.05746084079146385
1716735779342318800,1.72631884765625,9.790189743041992,0.040701430290937424,0.05506663769483566
1716735779352318700,1.736318603515625,9.790189743041992,0.038307227194309235,0.05506663769483566
1716735779362318800,1.74631884765625,9.790189743041992,0.040701430290937424,0.05267243832349777
1716735779372318700,1.756318603515625,9.787796020507812,0.040701430290937424,0.05027823522686958
1716735779382318800,1.76631884765625,9.790189743041992,0.043095629662275314,0.05027823522686958
1716735779392318700,1.776318603515625,9.787796020507812,0.043095629662275314,0.05027823522686958
1716735779402318800,1.78631884765625,9.787796020507812,0.040701430290937424,0.0454898327589035
1716735779412318700,1.796318603515625,9.790189743041992,0.040701430290937424,0.0454898327589035
1716735779422318800,1.80631884765625,9.787796020507812,0.0454898327589035,0.0454898327589035
1716735779432318700,1.816318603515625,9.787796020507812,0.0454898327589035,0.043095629662275314
1716735779442318800,1.82631884765625,9.787796020507812,0.047884032130241394,0.043095629662275314
1716735779452318700,1.836318603515625,9.787796020507812,0.047884032130241394,0.043095629662275314
1716735779462318800,1.84631884765625,9.785401344299316,0.047884032130241394,0.040701430290937424
1716735779472318700,1.856318603515625,9.783007621765137,0.047884032130241394,0.043095629662275314
1716735779482318800,1.86631884765625,9.785401344299316,0.047884032130241394,0.0454898327589035
1716735779492318700,1.876318603515625,9.785401344299316,0.05027823522686958,0.0454898327589035
1716735779502318800,1.88631884765625,9.787796020507812,0.0454898327589035,0.043095629662275314
1716735779512318700,1.896318603515625,9.787796020507812,0.047884032130241394,0.0454898327589035
1716735779522318800,1.90631884765625,9.785401344299316,0.047884032130241394,0.0454898327589035
1716735779532318700,1.916318603515625,9.785401344299316,0.0454898327589035,0.0454898327589035
1716735779542318800,1.92631884765625,9.783007621765137,0.047884032130241394,0.0454898327589035
1716735779552318700,1.936318603515625,9.785401344299316,0.05027823522686958,0.047884032130241394
1716735779562318800,1.94631884765625,9.787796020507812,0.047884032130241394,0.047884032130241394
1716735779572318700,1.956318603515625,9.787796020507812,0.05027823522686958,0.05027823522686958
1716735779582319000,1.966319091796875,9.787796020507812,0.05027823522686958,0.047884032130241394
1716735779592319200,1.9763193359375,9.787796020507812,0.05027823522686958,0.043095629662275314
1716735779602319000,1.986319091796875,9.787796020507812,0.05027823522686958,0.040701430290937424
1716735779612319200,1.9963193359375,9.787796020507812,0.047884032130241394,0.040701430290937424
1716735779622319000,2.006319091796875,9.783007621765137,0.05027823522686958,0.043095629662275314
1716735779632319200,2.0163193359375,9.783007621765137,0.05027823522686958,0.040701430290937424
1716735779642319000,2.026319091796875,9.785401344299316,0.0454898327589035,0.0454898327589035
1716735779652319200,2.0363193359375,9.785401344299316,0.0454898327589035,0.047884032130241394
1716735779662319400,2.0463193359375,9.785401344299316,0.043095629662275314,0.047884032130241394
1716735779672319200,2.0563193359375,9.785401344299316,0.0454898327589035,0.047884032130241394
1716735779682319400,2.0663193359375,9.783007621765137,0.0454898327589035,0.05027823522686958
1716735779692319200,2.0763193359375,9.783007621765137,0.0454898327589035,0.05027823522686958
1716735779702319000,2.086319091796875,9.785401344299316,0.0454898327589035,0.05267243832349777
1716735779712319200,2.0963193359375,9.783007621765137,0.043095629662275314,0.05027823522686958
1716735779722319000,2.106319091796875,9.783007621765137,0.0454898327589035,0.05027823522686958
1716735779732319200,2.1163193359375,9.783007621765137,0.043095629662275314,0.047884032130241394
1716735779742319000,2.126319091796875,9.785401344299316,0.043095629662275314,0.047884032130241394
1716735779752319200,2.1363193359375,9.785401344299316,0.040701430290937424,0.05027823522686958
1716735779762319000,2.146319091796875,9.783007621765137,0.040701430290937424,0.047884032130241394
1716735779772319200,2.1563193359375,9.761459350585938,0.043095629662275314,0.047884032130241394
1716735779782319000,2.166319091796875,9.771036148071289,0.043095629662275314,0.047884032130241394
1716735779792319200,2.1763193359375,9.806949615478516,0.040701430290937424,0.0454898327589035
1716735779802319000,2.186319091796875,9.792584419250488,0.040701430290937424,0.047884032130241394
1716735779812319200,2.1963193359375,9.76864242553711,0.038307227194309235,0.0454898327589035
1716735779822319000,2.206319091796875,9.771036148071289,0.038307227194309235,0.047884032130241394
1716735779832319200,2.2163193359375,9.787796020507812,0.040701430290937424,0.047884032130241394
1716735779842319000,2.226319091796875,9.787796020507812,0.043095629662275314,0.0454898327589035
1716735779852319200,2.2363193359375,9.775824546813965,0.043095629662275314,0.0454898327589035
1716735779862319000,2.246319091796875,9.778219223022461,0.043095629662275314,0.047884032130241394
1716735779872319200,2.2563193359375,9.787796020507812,0.0454898327589035,0.0454898327589035
1716735779882319000,2.266319091796875,9.785401344299316,0.0454898327589035,0.0454898327589035
1716735779892319200,2.2763193359375,9.775824546813965,0.043095629662275314,0.047884032130241394
1716735779902319400,2.2863193359375,9.773430824279785,0.043095629662275314,0.047884032130241394
1716735779912319200,2.2963193359375,9.783007621765137,0.043095629662275314,0.0454898327589035
1716735779922319400,2.3063193359375,9.783007621765137,0.040701430290937424,0.043095629662275314
1716735779932319200,2.3163193359375,9.773430824279785,0.040701430290937424,0.0454898327589035
1716735779942319400,2.3263193359375,9.775824546813965,0.043095629662275314,0.0454898327589035
1716735779952319200,2.3363193359375,9.785401344299316,0.0454898327589035,0.047884032130241394
1716735779962319000,2.346319091796875,9.787796020507812,0.043095629662275314,0.05027823522686958
1716735779972319200,2.3563193359375,9.778219223022461,0.040701430290937424,0.047884032130241394
1716735779982319000,2.366319091796875,9.775824546813965,0.040701430290937424,0.047884032130241394
1716735779992319200,2.3763193359375,9.785401344299316,0.043095629662275314,0.047884032130241394
1716735780002319000,2.386319091796875,9.785401344299316,0.043095629662275314,0.047884032130241394
1716735780012319200,2.3963193359375,9.778219223022461,0.0454898327589035,0.05027823522686958
1716735780022319000,2.406319091796875,9.775824546813965,0.047884032130241394,0.05027823522686958
1716735780032319200,2.4163193359375,9.783007621765137,0.0454898327589035,0.05267243832349777
1716735780042319000,2.426319091796875,9.787796020507812,0.043095629662275314,0.05027823522686958
1716735780052319200,2.4363193359375,9.783007621765137,0.040701430290937424,0.05267243832349777
1716735780062319000,2.446319091796875,9.783007621765137,0.040701430290937424,0.05267243832349777
1716735780072319200,2.4563193359375,9.785401344299316,0.040701430290937424,0.05027823522686958
1716735780082319000,2.466319091796875,9.787796020507812,0.0454898327589035,0.05027823522686958
1716735780092319200,2.4763193359375,9.78061294555664,0.047884032130241394,0.047884032130241394
1716735780102319000,2.486319091796875,9.778219223022461,0.047884032130241394,0.0454898327589035
1716735780112319200,2.4963193359375,9.785401344299316,0.047884032130241394,0.043095629662275314
1716735780122319000,2.506319091796875,9.785401344299316,0.0454898327589035,0.040701430290937424
1716735780132319200,2.5163193359375,9.783007621765137,0.0454898327589035,0.043095629662275314
1716735780142319000,2.526319091796875,9.778219223022461,0.0454898327589035,0.043095629662275314
1716735780152319200,2.5363193359375,9.78061294555664,0.0454898327589035,0.0454898327589035
1716735780162319000,2.546319091796875,9.783007621765137,0.05027823522686958,0.040701430290937424
1716735780172319200,2.5563193359375,9.78061294555664,0.047884032130241394,0.043095629662275314
1716735780182319000,2.566319091796875,9.775824546813965,0.047884032130241394,0.0454898327589035
1716735780192319200,2.5763193359375,9.778219223022461,0.0454898327589035,0.0454898327589035
1716735780202319000,2.586319091796875,9.78061294555664,0.0454898327589035,0.043095629662275314
1716735780212319200,2.5963193359375,9.778219223022461,0.047884032130241394,0.043095629662275314
1716735780222319000,2.606319091796875,9.778219223022461,0.043095629662275314,0.043095629662275314
1716735780232319200,2.6163193359375,9.78061294555664,0.043095629662275314,0.0454898327589035
1716735780242319000,2.626319091796875,9.783007621765137,0.043095629662275314,0.0454898327589035
1716735780252319200,2.6363193359375,9.78061294555664,0.043095629662275314,0.047884032130241394
1716735780262319000,2.646319091796875,9.778219223022461,0.043095629662275314,0.047884032130241394
1716735780272319200,2.6563193359375,9.778219223022461,0.043095629662275314,0.047884032130241394
1716735780282319000,2.666319091796875,9.78061294555664,0.0454898327589035,0.05027823522686958
1716735780292319200,2.6763193359375,9.778219223022461,0.047884032130241394,0.05027823522686958
1716735780302319000,2.686319091796875,9.775824546813965,0.047884032130241394,0.047884032130241394
1716735780312319200,2.6963193359375,9.778219223022461,0.05027823522686958,0.0454898327589035
1716735780322319000,2.706319091796875,9.778219223022461,0.05267243832349777,0.05027823522686958
1716735780332319200,2.7163193359375,9.775824546813965,0.05267243832349777,0.05027823522686958
1716735780342319000,2.726319091796875,9.775824546813965,0.05267243832349777,0.0454898327589035
1716735780352319200,2.7363193359375,9.775824546813965,0.05027823522686958,0.040701430290937424
1716735780362319000,2.746319091796875,9.775824546813965,0.05027823522686958,0.043095629662275314
1716735780372319200,2.7563193359375,9.778219223022461,0.05027823522686958,0.0454898327589035
1716735780382319000,2.766319091796875,9.775824546813965,0.047884032130241394,0.0454898327589035
1716735780392319200,2.7763193359375,9.778219223022461,0.0454898327589035,0.047884032130241394
1716735780402319000,2.786319091796875,9.78061294555664,0.047884032130241394,0.047884032130241394
1716735780412319200,2.7963193359375,9.778219223022461,0.047884032130241394,0.0454898327589035
1716735780422319000,2.806319091796875,9.778219223022461,0.0454898327589035,0.047884032130241394
1716735780432319200,2.8163193359375,9.778219223022461,0.043095629662275314,0.0454898327589035
1716735780442319000,2.826319091796875,9.778219223022461,0.043095629662275314,0.0454898327589035
1716735780452319200,2.8363193359375,9.775824546813965,0.043095629662275314,0.0454898327589035
1716735780462319000,2.846319091796875,9.775824546813965,0.043095629662275314,0.0454898327589035
1716735780472319200,2.8563193359375,9.775824546813965,0.043095629662275314,0.0454898327589035
1716735780482319000,2.866319091796875,9.773430824279785,0.040701430290937424,0.0454898327589035
1716735780492319200,2.8763193359375,9.778219223022461,0.0454898327589035,0.0454898327589035
1716735780502319000,2.886319091796875,9.778219223022461,0.047884032130241394,0.0454898327589035
1716735780512319200,2.8963193359375,9.778219223022461,0.05027823522686958,0.040701430290937424
1716735780522319000,2.906319091796875,9.778219223022461,0.05027823522686958,0.043095629662275314
1716735780532319200,2.9163193359375,9.775824546813965,0.05027823522686958,0.043095629662275314
1716735780542319000,2.926319091796875,9.775824546813965,0.047884032130241394,0.043095629662275314
1716735780552319200,2.9363193359375,9.778219223022461,0.047884032130241394,0.0454898327589035
1716735780562319000,2.946319091796875,9.778219223022461,0.047884032130241394,0.047884032130241394
1716735780572319200,2.9563193359375,9.778219223022461,0.0454898327589035,0.047884032130241394
1716735780582319000,2.966319091796875,9.778219223022461,0.047884032130241394,0.05027823522686958
1716735780592319200,2.9763193359375,9.778219223022461,0.0454898327589035,0.05027823522686958
1716735780602319000,2.986319091796875,9.778219223022461,0.0454898327589035,0.05267243832349777
1716735780612319200,2.9963193359375,9.775824546813965,0.047884032130241394,0.05027823522686958
1716735780622319000,3.006319091796875,9.775824546813965,0.0454898327589035,0.047884032130241394
1716735780632319200,3.0163193359375,9.773430824279785,0.0454898327589035,0.05027823522686958
1716735780642319000,3.026319091796875,9.775824546813965,0.0454898327589035,0.05267243832349777
1716735780652319200,3.0363193359375,9.778219223022461,0.0454898327589035,0.05027823522686958
1716735780662319400,3.0463193359375,9.775824546813965,0.043095629662275314,0.05267243832349777
1716735780672319200,3.0563193359375,9.778219223022461,0.043095629662275314,0.05506663769483566
1716735780682319400,3.0663193359375,9.778219223022461,0.0454898327589035,0.05027823522686958
1716735780692319200,3.0763193359375,9.778219223022461,0.0454898327589035,0.05027823522686958
1716735780702319000,3.086319091796875,9.778219223022461,0.0454898327589035,0.0454898327589035
1716735780712319200,3.0963193359375,9.775824546813965,0.047884032130241394,0.0454898327589035
1716735780722319000,3.106319091796875,9.778219223022461,0.047884032130241394,0.043095629662275314
1716735780732319200,3.1163193359375,9.78061294555664,0.047884032130241394,0.0454898327589035
1716735780742319000,3.126319091796875,9.759065628051758,0.047884032130241394,0.043095629662275314
1716735780752319200,3.1363193359375,9.792584419250488,0.05267243832349777,0.040701430290937424
1716735780762319000,3.146319091796875,9.797372817993164,0.047884032130241394,0.0454898327589035
1716735780772319200,3.1563193359375,9.792584419250488,0.0454898327589035,0.0454898327589035
1716735780782319000,3.166319091796875,9.775824546813965,0.040701430290937424,0.047884032130241394
1716735780792319200,3.1763193359375,9.80216121673584,0.043095629662275314,0.05027823522686958
1716735780802319000,3.186319091796875,9.799766540527344,0.043095629662275314,0.05267243832349777
1716735780812319200,3.1963193359375,9.783007621765137,0.047884032130241394,0.05506663769483566
1716735780822319000,3.206319091796875,9.78061294555664,0.05027823522686958,0.05267243832349777
1716735780832319200,3.2163193359375,9.785401344299316,0.047884032130241394,0.047884032130241394
1716735780842319000,3.226319091796875,9.790189743041992,0.043095629662275314,0.047884032130241394
1716735780852319200,3.2363193359375,9.778219223022461,0.040701430290937424,0.047884032130241394
1716735780862319000,3.246319091796875,9.773430824279785,0.040701430290937424,0.05027823522686958
1716735780872319200,3.2563193359375,9.783007621765137,0.043095629662275314,0.047884032130241394
1716735780882319000,3.266319091796875,9.787796020507812,0.043095629662275314,0.0454898327589035
1716735780892319200,3.2763193359375,9.778219223022461,0.0454898327589035,0.043095629662275314
1716735780902319000,3.286319091796875,9.775824546813965,0.0454898327589035,0.038307227194309235
1716735780912319200,3.2963193359375,9.785401344299316,0.047884032130241394,0.040701430290937424
1716735780922319000,3.306319091796875,9.790189743041992,0.047884032130241394,0.040701430290937424
1716735780932319200,3.3163193359375,9.78061294555664,0.0454898327589035,0.043095629662275314
1716735780942319000,3.326319091796875,9.773430824279785,0.043095629662275314,0.043095629662275314
1716735780952319200,3.3363193359375,9.78061294555664,0.043095629662275314,0.043095629662275314
1716735780962319000,3.346319091796875,9.787796020507812,0.0454898327589035,0.043095629662275314
1716735780972319200,3.3563193359375,9.778219223022461,0.047884032130241394,0.047884032130241394
1716735780982319000,3.366319091796875,9.771036148071289,0.0454898327589035,0.047884032130241394
1716735780992319200,3.3763193359375,9.775824546813965,0.0454898327589035,0.047884032130241394
1716735781002319000,3.386319091796875,9.778219223022461,0.043095629662275314,0.05027823522686958
1716735781012319200,3.3963193359375,9.773430824279785,0.0454898327589035,0.047884032130241394
1716735781022319000,3.406319091796875,9.773430824279785,0.040701430290937424,0.0454898327589035
1716735781032319200,3.4163193359375,9.775824546813965,0.040701430290937424,0.047884032130241394
1716735781042319000,3.426319091796875,9.778219223022461,0.043095629662275314,0.047884032130241394
1716735781052319200,3.4363193359375,9.775824546813965,0.043095629662275314,0.047884032130241394
1716735781062319000,3.446319091796875,9.771036148071289,0.0454898327589035,0.0454898327589035
1716735781072319200,3.4563193359375,9.775824546813965,0.043095629662275314,0.043095629662275314
1716735781082319000,3.466319091796875,9.775824546813965,0.043095629662275314,0.0454898327589035
1716735781092319200,3.4763193359375,9.775824546813965,0.040701430290937424,0.043095629662275314
1716735781102319000,3.486319091796875,9.773430824279785,0.043095629662275314,0.043095629662275314
1716735781112319200,3.4963193359375,9.773430824279785,0.043095629662275314,0.043095629662275314
1716735781122319000,3.506319091796875,9.775824546813965,0.043095629662275314,0.043095629662275314
1716735781132319200,3.5163193359375,9.778219223022461,0.040701430290937424,0.047884032130241394
1716735781142319000,3.526319091796875,9.773430824279785,0.038307227194309235,0.047884032130241394
1716735781152319200,3.5363193359375,9.775824546813965,0.035913024097681046,0.047884032130241394
1716735781162319000,3.546319091796875,9.78061294555664,0.038307227194309235,0.05027823522686958
1716735781172319200,3.5563193359375,9.778219223022461,0.038307227194309235,0.05267243832349777
1716735781182319000,3.566319091796875,9.773430824279785,0.033518824726343155,0.05506663769483566
1716735781192319200,3.5763193359375,9.773430824279785,0.035913024097681046,0.05746084079146385
1716735781202319000,3.586319091796875,9.773430824279785,0.035913024097681046,0.05506663769483566
1716735781212319200,3.5963193359375,9.771036148071289,0.038307227194309235,0.05027823522686958
1716735781222319000,3.606319091796875,9.76864242553711,0.040701430290937424,0.047884032130241394
1716735781232319200,3.6163193359375,9.771036148071289,0.040701430290937424,0.05027823522686958
1716735781242319000,3.626319091796875,9.773430824279785,0.043095629662275314,0.047884032130241394
1716735781252319200,3.6363193359375,9.773430824279785,0.0454898327589035,0.043095629662275314
1716735781262319000,3.646319091796875,9.771036148071289,0.0454898327589035,0.040701430290937424
1716735781272319200,3.6563193359375,9.773430824279785,0.043095629662275314,0.040701430290937424
1716735781282319000,3.666319091796875,9.773430824279785,0.0454898327589035,0.043095629662275314
1716735781292319200,3.6763193359375,9.773430824279785,0.047884032130241394,0.043095629662275314
1716735781302319000,3.686319091796875,9.771036148071289,0.043095629662275314,0.040701430290937424
1716735781312319200,3.6963193359375,9.771036148071289,0.040701430290937424,0.043095629662275314
1716735781322319000,3.706319091796875,9.773430824279785,0.040701430290937424,0.0454898327589035
1716735781332319200,3.7163193359375,9.773430824279785,0.040701430290937424,0.043095629662275314
1716735781342319000,3.726319091796875,9.771036148071289,0.040701430290937424,0.043095629662275314
1716735781352319200,3.7363193359375,9.771036148071289,0.040701430290937424,0.0454898327589035
1716735781362319000,3.746319091796875,9.775824546813965,0.040701430290937424,0.05267243832349777
1716735781372319200,3.7563193359375,9.773430824279785,0.040701430290937424,0.05267243832349777
1716735781382319000,3.766319091796875,9.771036148071289,0.043095629662275314,0.05267243832349777
1716735781392319200,3.7763193359375,9.773430824279785,0.043095629662275314,0.05506663769483566
1716735781402319000,3.786319091796875,9.775824546813965,0.043095629662275314,0.05506663769483566
1716735781412319200,3.7963193359375,9.773430824279785,0.040701430290937424,0.05267243832349777
1716735781422319000,3.806319091796875,9.773430824279785,0.043095629662275314,0.05267243832349777
1716735781432319200,3.8163193359375,9.775824546813965,0.0454898327589035,0.05267243832349777
1716735781442319000,3.826319091796875,9.778219223022461,0.0454898327589035,0.05027823522686958
1716735781452319200,3.8363193359375,9.778219223022461,0.043095629662275314,0.047884032130241394
1716735781462319000,3.846319091796875,9.773430824279785,0.040701430290937424,0.0454898327589035
1716735781472319200,3.8563193359375,9.775824546813965,0.040701430290937424,0.047884032130241394
1716735781482319000,3.866319091796875,9.775824546813965,0.040701430290937424,0.05027823522686958
1716735781492319200,3.8763193359375,9.775824546813965,0.038307227194309235,0.05027823522686958
1716735781502319000,3.886319091796875,9.778219223022461,0.040701430290937424,0.05267243832349777
1716735781512319200,3.8963193359375,9.778219223022461,0.043095629662275314,0.05027823522686958
1716735781522319000,3.906319091796875,9.775824546813965,0.043095629662275314,0.05027823522686958
1716735781532319200,3.9163193359375,9.775824546813965,0.040701430290937424,0.05267243832349777
1716735781542319000,3.926319091796875,9.773430824279785,0.040701430290937424,0.05267243832349777
1716735781552319200,3.9363193359375,9.773430824279785,0.040701430290937424,0.05506663769483566
1716735781562319000,3.946319091796875,9.775824546813965,0.038307227194309235,0.05506663769483566
1716735781572319200,3.9563193359375,9.778219223022461,0.038307227194309235,0.05506663769483566
1716735781582319000,3.966319091796875,9.778219223022461,0.035913024097681046,0.05506663769483566
1716735781592319200,3.9763193359375,9.775824546813965,0.035913024097681046,0.05506663769483566
1716735781602319000,3.986319091796875,9.775824546813965,0.038307227194309235,0.05027823522686958
1716735781612319200,3.9963193359375,9.778219223022461,0.040701430290937424,0.05027823522686958
1716735781622319000,4.006319091796875,9.778219223022461,0.040701430290937424,0.05027823522686958
1716735781632319200,4.0163193359375,9.778219223022461,0.043095629662275314,0.0454898327589035
1716735781642319000,4.026319091796875,9.778219223022461,0.043095629662275314,0.043095629662275314
1716735781652319200,4.0363193359375,9.778219223022461,0.043095629662275314,0.040701430290937424
1716735781662319400,4.0463193359375,9.78061294555664,0.043095629662275314,0.043095629662275314
1716735781672319200,4.0563193359375,9.78061294555664,0.043095629662275314,0.0454898327589035
1716735781682319400,4.0663193359375,9.78061294555664,0.040701430290937424,0.0454898327589035
1716735781692319200,4.0763193359375,9.773430824279785,0.040701430290937424,0.0454898327589035
1716735781702319000,4.086319091796875,9.773430824279785,0.040701430290937424,0.043095629662275314
1716735781712319200,4.0963193359375,9.797372817993164,0.043095629662275314,0.043095629662275314
1716735781722319000,4.106319091796875,9.797372817993164,0.040701430290937424,0.0454898327589035
1716735781732319200,4.1163193359375,9.785401344299316,0.038307227194309235,0.047884032130241394
1716735781742319000,4.126319091796875,9.778219223022461,0.038307227194309235,0.047884032130241394
1716735781752319200,4.1363193359375,9.787796020507812,0.038307227194309235,0.05027823522686958
1716735781762319000,4.146319091796875,9.787796020507812,0.040701430290937424,0.05746084079146385
1716735781772319200,4.1563193359375,9.773430824279785,0.043095629662275314,0.05746084079146385
1716735781782319000,4.166319091796875,9.773430824279785,0.043095629662275314,0.05506663769483566
1716735781792319200,4.1763193359375,9.785401344299316,0.043095629662275314,0.05267243832349777
1716735781802319000,4.186319091796875,9.785401344299316,0.0454898327589035,0.05027823522686958
1716735781812319200,4.1963193359375,9.773430824279785,0.043095629662275314,0.047884032130241394
1716735781822319000,4.206319091796875,9.76864242553711,0.0454898327589035,0.0454898327589035
1716735781832319200,4.2163193359375,9.778219223022461,0.0454898327589035,0.043095629662275314
1716735781842319000,4.226319091796875,9.778219223022461,0.043095629662275314,0.043095629662275314
1716735781852319200,4.2363193359375,9.771036148071289,0.043095629662275314,0.040701430290937424
1716735781862319000,4.246319091796875,9.76864242553711,0.040701430290937424,0.038307227194309235
1716735781872319200,4.2563193359375,9.775824546813965,0.043095629662275314,0.040701430290937424
1716735781882319000,4.266319091796875,9.78061294555664,0.043095629662275314,0.0454898327589035
1716735781892319200,4.2763193359375,9.771036148071289,0.043095629662275314,0.047884032130241394
1716735781902319400,4.2863193359375,9.76864242553711,0.040701430290937424,0.0454898327589035
1716735781912319200,4.2963193359375,9.778219223022461,0.035913024097681046,0.0454898327589035
1716735781922319000,4.306319091796875,9.783007621765137,0.035913024097681046,0.05027823522686958
1716735781932319200,4.3163193359375,9.775824546813965,0.035913024097681046,0.05267243832349777
1716735781942319000,4.326319091796875,9.773430824279785,0.038307227194309235,0.05027823522686958
1716735781952319200,4.3363193359375,9.78061294555664,0.043095629662275314,0.05267243832349777
1716735781962319000,4.346319091796875,9.78061294555664,0.0454898327589035,0.05027823522686958
1716735781972319200,4.3563193359375,9.778219223022461,0.040701430290937424,0.05267243832349777
1716735781982319000,4.366319091796875,9.773430824279785,0.040701430290937424,0.047884032130241394
1716735781992319200,4.3763193359375,9.778219223022461,0.038307227194309235,0.047884032130241394
1716735782002319000,4.386319091796875,9.78061294555664,0.038307227194309235,0.0454898327589035
1716735782012319200,4.3963193359375,9.775824546813965,0.043095629662275314,0.0454898327589035
1716735782022319000,4.406319091796875,9.773430824279785,0.043095629662275314,0.0454898327589035
1716735782032319200,4.4163193359375,9.775824546813965,0.043095629662275314,0.0454898327589035
1716735782042319000,4.426319091796875,9.78061294555664,0.043095629662275314,0.0454898327589035
1716735782052319200,4.4363193359375,9.775824546813965,0.043095629662275314,0.0454898327589035
1716735782062319000,4.446319091796875,9.773430824279785,0.040701430290937424,0.047884032130241394
1716735782072319200,4.4563193359375,9.778219223022461,0.038307227194309235,0.047884032130241394
1716735782082319000,4.466319091796875,9.778219223022461,0.038307227194309235,0.047884032130241394
1716735782092319200,4.4763193359375,9.778219223022461,0.038307227194309235,0.047884032130241394
1716735782102319000,4.486319091796875,9.773430824279785,0.038307227194309235,0.05267243832349777
1716735782112319200,4.4963193359375,9.778219223022461,0.038307227194309235,0.05506663769483566
1716735782122319000,4.506319091796875,9.778219223022461,0.040701430290937424,0.05506663769483566
1716735782132319200,4.5163193359375,9.775824546813965,0.043095629662275314,0.05267243832349777
1716735782142319000,4.526319091796875,9.775824546813965,0.043095629662275314,0.05267243832349777
1716735782152319200,4.5363193359375,9.778219223022461,0.043095629662275314,0.05027823522686958
1716735782162319000,4.546319091796875,9.78061294555664,0.043095629662275314,0.05267243832349777
1716735782172319200,4.5563193359375,9.778219223022461,0.043095629662275314,0.05506663769483566
1716735782182319000,4.566319091796875,9.778219223022461,0.043095629662275314,0.05027823522686958
1716735782192319200,4.5763193359375,9.778219223022461,0.043095629662275314,0.05027823522686958
1716735782202319000,4.586319091796875,9.78061294555664,0.043095629662275314,0.05027823522686958
1716735782212319200,4.5963193359375,9.778219223022461,0.040701430290937424,0.047884032130241394
1716735782222319000,4.606319091796875,9.773430824279785,0.043095629662275314,0.0454898327589035
1716735782232319200,4.6163193359375,9.775824546813965,0.040701430290937424,0.0454898327589035
1716735782242319000,4.626319091796875,9.773430824279785,0.038307227194309235,0.047884032130241394
1716735782252319200,4.6363193359375,9.773430824279785,0.040701430290937424,0.047884032130241394
1716735782262319000,4.646319091796875,9.773430824279785,0.043095629662275314,0.05267243832349777
1716735782272319200,4.6563193359375,9.773430824279785,0.040701430290937424,0.05506663769483566
1716735782282319000,4.666319091796875,9.778219223022461,0.038307227194309235,0.05746084079146385
1716735782292319200,4.6763193359375,9.778219223022461,0.035913024097681046,0.05985504388809204
1716735782302319000,4.686319091796875,9.778219223022461,0.038307227194309235,0.06224924325942993
1716735782312319200,4.6963193359375,9.778219223022461,0.040701430290937424,0.05985504388809204
1716735782322319000,4.706319091796875,9.78061294555664,0.043095629662275314,0.05746084079146385
1716735782332319200,4.7163193359375,9.78061294555664,0.040701430290937424,0.05506663769483566
1716735782342319000,4.726319091796875,9.78061294555664,0.040701430290937424,0.05027823522686958
1716735782352319200,4.7363193359375,9.778219223022461,0.040701430290937424,0.05027823522686958
1716735782362319000,4.746319091796875,9.778219223022461,0.040701430290937424,0.05027823522686958
1716735782372319200,4.7563193359375,9.778219223022461,0.040701430290937424,0.05027823522686958
1716735782382319000,4.766319091796875,9.775824546813965,0.040701430290937424,0.05267243832349777
1716735782392319200,4.7763193359375,9.775824546813965,0.043095629662275314,0.05027823522686958
1716735782402319000,4.786319091796875,9.778219223022461,0.040701430290937424,0.05027823522686958
1716735782412319200,4.7963193359375,9.78061294555664,0.038307227194309235,0.05027823522686958
1716735782422319000,4.806319091796875,9.783007621765137,0.040701430290937424,0.05027823522686958
1716735782432319200,4.8163193359375,9.783007621765137,0.040701430290937424,0.05027823522686958
1716735782442319000,4.826319091796875,9.783007621765137,0.040701430290937424,0.05027823522686958
1716735782452319200,4.8363193359375,9.78061294555664,0.038307227194309235,0.047884032130241394
1716735782462319000,4.846319091796875,9.778219223022461,0.040701430290937424,0.0454898327589035
1716735782472319200,4.8563193359375,9.775824546813965,0.040701430290937424,0.043095629662275314
1716735782482319000,4.866319091796875,9.778219223022461,0.038307227194309235,0.0454898327589035
1716735782492319200,4.8763193359375,9.778219223022461,0.038307227194309235,0.047884032130241394
1716735782502319000,4.886319091796875,9.778219223022461,0.035913024097681046,0.05267243832349777
1716735782512319200,4.8963193359375,9.778219223022461,0.035913024097681046,0.05267243832349777
1716735782522319000,4.906319091796875,9.778219223022461,0.038307227194309235,0.05027823522686958
1716735782532319200,4.9163193359375,9.778219223022461,0.038307227194309235,0.05027823522686958
1716735782542319000,4.926319091796875,9.775824546813965,0.038307227194309235,0.047884032130241394
1716735782552319200,4.9363193359375,9.775824546813965,0.038307227194309235,0.047884032130241394
1716735782562319000,4.946319091796875,9.775824546813965,0.035913024097681046,0.047884032130241394
1716735782572319200,4.9563193359375,9.773430824279785,0.038307227194309235,0.043095629662275314
1716735782582319000,4.966319091796875,9.773430824279785,0.038307227194309235,0.0454898327589035
1716735782592319200,4.9763193359375,9.773430824279785,0.038307227194309235,0.0454898327589035
1716735782602319000,4.986319091796875,9.773430824279785,0.040701430290937424,0.047884032130241394
1716735782612319200,4.9963193359375,9.775824546813965,0.040701430290937424,0.05027823522686958
1716735782622319000,5.006319091796875,9.778219223022461,0.043095629662275314,0.05267243832349777
1716735782632319200,5.0163193359375,9.778219223022461,0.043095629662275314,0.05027823522686958
1716735782642319000,5.026319091796875,9.78061294555664,0.0454898327589035,0.05027823522686958
1716735782652319200,5.0363193359375,9.783007621765137,0.043095629662275314,0.05267243832349777
1716735782662319400,5.0463193359375,9.78061294555664,0.043095629662275314,0.05506663769483566
1716735782672319200,5.0563193359375,9.78061294555664,0.043095629662275314,0.05267243832349777
1716735782682319400,5.0663193359375,9.78061294555664,0.040701430290937424,0.05267243832349777
1716735782692319200,5.0763193359375,9.78061294555664,0.043095629662275314,0.05027823522686958
1716735782702319000,5.086319091796875,9.778219223022461,0.043095629662275314,0.05267243832349777
1716735782712319200,5.0963193359375,9.78061294555664,0.040701430290937424,0.05027823522686958
1716735782722319000,5.106319091796875,9.794978141784668,0.043095629662275314,0.0454898327589035
1716735782732319200,5.1163193359375,9.811738014221191,0.0454898327589035,0.0454898327589035
1716735782742319000,5.126319091796875,9.811738014221191,0.043095629662275314,0.043095629662275314
1716735782752319200,5.1363193359375,9.794978141784668,0.043095629662275314,0.0454898327589035
1716735782762319000,5.146319091796875,9.792584419250488,0.043095629662275314,0.043095629662275314
1716735782772319200,5.1563193359375,9.80455493927002,0.047884032130241394,0.047884032130241394
1716735782782319000,5.166319091796875,9.799766540527344,0.0454898327589035,0.0454898327589035
1716735782792319200,5.1763193359375,9.785401344299316,0.0454898327589035,0.0454898327589035
1716735782802319000,5.186319091796875,9.783007621765137,0.0454898327589035,0.05027823522686958
1716735782812319200,5.1963193359375,9.792584419250488,0.043095629662275314,0.047884032130241394
1716735782822319000,5.206319091796875,9.794978141784668,0.043095629662275314,0.05027823522686958
1716735782832319200,5.2163193359375,9.785401344299316,0.043095629662275314,0.05506663769483566
1716735782842319000,5.226319091796875,9.78061294555664,0.040701430290937424,0.05506663769483566
1716735782852319200,5.2363193359375,9.787796020507812,0.040701430290937424,0.05267243832349777
1716735782862319000,5.246319091796875,9.787796020507812,0.038307227194309235,0.05027823522686958
1716735782872319200,5.2563193359375,9.783007621765137,0.038307227194309235,0.05267243832349777
1716735782882319000,5.266319091796875,9.78061294555664,0.038307227194309235,0.05267243832349777
1716735782892319200,5.2763193359375,9.785401344299316,0.040701430290937424,0.05027823522686958
1716735782902319000,5.286319091796875,9.785401344299316,0.040701430290937424,0.05027823522686958
1716735782912319200,5.2963193359375,9.778219223022461,0.043095629662275314,0.047884032130241394
1716735782922319000,5.306319091796875,9.775824546813965,0.043095629662275314,0.047884032130241394
1716735782932319200,5.3163193359375,9.783007621765137,0.043095629662275314,0.05027823522686958
1716735782942319000,5.326319091796875,9.785401344299316,0.0454898327589035,0.047884032130241394
1716735782952319200,5.3363193359375,9.778219223022461,0.0454898327589035,0.05027823522686958
1716735782962319000,5.346319091796875,9.775824546813965,0.047884032130241394,0.05267243832349777
1716735782972319200,5.3563193359375,9.778219223022461,0.047884032130241394,0.05027823522686958
1716735782982319000,5.366319091796875,9.78061294555664,0.0454898327589035,0.05027823522686958
1716735782992319200,5.3763193359375,9.778219223022461,0.043095629662275314,0.05027823522686958
1716735783002319000,5.386319091796875,9.778219223022461,0.040701430290937424,0.05027823522686958
1716735783012319200,5.3963193359375,9.783007621765137,0.040701430290937424,0.05506663769483566
1716735783022319000,5.406319091796875,9.783007621765137,0.043095629662275314,0.05267243832349777
1716735783032319200,5.4163193359375,9.778219223022461,0.043095629662275314,0.05267243832349777
1716735783042319000,5.426319091796875,9.778219223022461,0.043095629662275314,0.05027823522686958
1716735783052319200,5.4363193359375,9.78061294555664,0.043095629662275314,0.047884032130241394
1716735783062319000,5.446319091796875,9.78061294555664,0.043095629662275314,0.0454898327589035
1716735783072319200,5.4563193359375,9.778219223022461,0.043095629662275314,0.0454898327589035
1716735783082319000,5.466319091796875,9.775824546813965,0.040701430290937424,0.043095629662275314
1716735783092319200,5.4763193359375,9.778219223022461,0.040701430290937424,0.0454898327589035
1716735783102319000,5.486319091796875,9.78061294555664,0.038307227194309235,0.043095629662275314
1716735783112319200,5.4963193359375,9.778219223022461,0.038307227194309235,0.040701430290937424
1716735783122319000,5.506319091796875,9.775824546813965,0.040701430290937424,0.043095629662275314
1716735783132319200,5.5163193359375,9.778219223022461,0.040701430290937424,0.043095629662275314
1716735783142319000,5.526319091796875,9.78061294555664,0.040701430290937424,0.040701430290937424
1716735783152319200,5.5363193359375,9.778219223022461,0.040701430290937424,0.043095629662275314
1716735783162319000,5.546319091796875,9.78061294555664,0.040701430290937424,0.043095629662275314
1716735783172319200,5.5563193359375,9.783007621765137,0.040701430290937424,0.043095629662275314
1716735783182319000,5.566319091796875,9.783007621765137,0.040701430290937424,0.043095629662275314
1716735783192319200,5.5763193359375,9.78061294555664,0.043095629662275314,0.043095629662275314
1716735783202319000,5.586319091796875,9.778219223022461,0.0454898327589035,0.043095629662275314
1716735783212319200,5.5963193359375,9.78061294555664,0.047884032130241394,0.0454898327589035
1716735783222319000,5.606319091796875,9.78061294555664,0.047884032130241394,0.0454898327589035
1716735783232319200,5.6163193359375,9.78061294555664,0.047884032130241394,0.043095629662275314
1716735783242319000,5.626319091796875,9.783007621765137,0.0454898327589035,0.043095629662275314
1716735783252319200,5.6363193359375,9.783007621765137,0.0454898327589035,0.0454898327589035
1716735783262319000,5.646319091796875,9.785401344299316,0.043095629662275314,0.0454898327589035
1716735783272319200,5.6563193359375,9.783007621765137,0.0454898327589035,0.0454898327589035
1716735783282319000,5.666319091796875,9.78061294555664,0.0454898327589035,0.043095629662275314
1716735783292319200,5.6763193359375,9.778219223022461,0.047884032130241394,0.043095629662275314
1716735783302319000,5.686319091796875,9.783007621765137,0.05027823522686958,0.043095629662275314
1716735783312319200,5.6963193359375,9.783007621765137,0.05027823522686958,0.0454898327589035
1716735783322319000,5.706319091796875,9.783007621765137,0.047884032130241394,0.0454898327589035
1716735783332319200,5.7163193359375,9.783007621765137,0.047884032130241394,0.0454898327589035
1716735783342319000,5.726319091796875,9.783007621765137,0.047884032130241394,0.043095629662275314
1716735783352319200,5.7363193359375,9.783007621765137,0.0454898327589035,0.043095629662275314
1716735783362319000,5.746319091796875,9.785401344299316,0.0454898327589035,0.043095629662275314
1716735783372319200,5.7563193359375,9.785401344299316,0.0454898327589035,0.043095629662275314
1716735783382319000,5.766319091796875,9.785401344299316,0.0454898327589035,0.0454898327589035
1716735783392319200,5.7763193359375,9.785401344299316,0.0454898327589035,0.047884032130241394
1716735783402319000,5.786319091796875,9.785401344299316,0.043095629662275314,0.05027823522686958
1716735783412319200,5.7963193359375,9.785401344299316,0.043095629662275314,0.047884032130241394
1716735783422319000,5.806319091796875,9.785401344299316,0.040701430290937424,0.047884032130241394
1716735783432319200,5.8163193359375,9.785401344299316,0.040701430290937424,0.047884032130241394
1716735783442319000,5.826319091796875,9.785401344299316,0.043095629662275314,0.047884032130241394
1716735783452319200,5.8363193359375,9.785401344299316,0.040701430290937424,0.0454898327589035
1716735783462319000,5.846319091796875,9.785401344299316,0.040701430290937424,0.047884032130241394
1716735783472319200,5.8563193359375,9.783007621765137,0.040701430290937424,0.05027823522686958
1716735783482319000,5.866319091796875,9.78061294555664,0.043095629662275314,0.047884032130241394
1716735783492319200,5.8763193359375,9.78061294555664,0.0454898327589035,0.0454898327589035
1716735783502319000,5.886319091796875,9.783007621765137,0.0454898327589035,0.0454898327589035
1716735783512319200,5.8963193359375,9.785401344299316,0.043095629662275314,0.0454898327589035
1716735783522319000,5.906319091796875,9.787796020507812,0.038307227194309235,0.05027823522686958
1716735783532319200,5.9163193359375,9.785401344299316,0.040701430290937424,0.05267243832349777
1716735783542319000,5.926319091796875,9.787796020507812,0.040701430290937424,0.05267243832349777
1716735783552319200,5.9363193359375,9.787796020507812,0.040701430290937424,0.05267243832349777
1716735783562319000,5.946319091796875,9.787796020507812,0.038307227194309235,0.05027823522686958
1716735783572319200,5.9563193359375,9.787796020507812,0.040701430290937424,0.05027823522686958
1716735783582319000,5.966319091796875,9.787796020507812,0.038307227194309235,0.05027823522686958
1716735783592319200,5.9763193359375,9.787796020507812,0.038307227194309235,0.05267243832349777
1716735783602319000,5.986319091796875,9.785401344299316,0.035913024097681046,0.05027823522686958
1716735783612319200,5.9963193359375,9.785401344299316,0.038307227194309235,0.05027823522686958
1716735783622319000,6.006319091796875,9.785401344299316,0.040701430290937424,0.047884032130241394
1716735783632319200,6.0163193359375,9.785401344299316,0.040701430290937424,0.047884032130241394
1716735783642319000,6.026319091796875,9.785401344299316,0.038307227194309235,0.0454898327589035
1716735783652319200,6.0363193359375,9.785401344299316,0.035913024097681046,0.043095629662275314
1716735783662319000,6.046319091796875,9.785401344299316,0.038307227194309235,0.043095629662275314
1716735783672319200,6.0563193359375,9.787796020507812,0.038307227194309235,0.043095629662275314
1716735783682319000,6.066319091796875,9.787796020507812,0.040701430290937424,0.047884032130241394
1716735783692319200,6.0763193359375,9.785401344299316,0.040701430290937424,0.047884032130241394
1716735783702319000,6.086319091796875,9.756670951843262,0.043095629662275314,0.047884032130241394
1716735783712319200,6.0963193359375,9.783007621765137,0.043095629662275314,0.0454898327589035
1716735783722319000,6.106319091796875,9.821314811706543,0.038307227194309235,0.0454898327589035
1716735783732319200,6.1163193359375,9.80455493927002,0.035913024097681046,0.047884032130241394
1716735783742319000,6.126319091796875,9.771036148071289,0.035913024097681046,0.047884032130241394
1716735783752319200,6.1363193359375,9.76864242553711,0.043095629662275314,0.05027823522686958
1716735783762319000,6.146319091796875,9.797372817993164,0.0454898327589035,0.05267243832349777
1716735783772319200,6.1563193359375,9.794978141784668,0.043095629662275314,0.05027823522686958
1716735783782319000,6.166319091796875,9.775824546813965,0.043095629662275314,0.047884032130241394
1716735783792319200,6.1763193359375,9.778219223022461,0.043095629662275314,0.0454898327589035
1716735783802319000,6.186319091796875,9.799766540527344,0.0454898327589035,0.043095629662275314
1716735783812319200,6.1963193359375,9.799766540527344,0.043095629662275314,0.043095629662275314
1716735783822319000,6.206319091796875,9.778219223022461,0.040701430290937424,0.0454898327589035
1716735783832319200,6.2163193359375,9.773430824279785,0.040701430290937424,0.0454898327589035
1716735783842319000,6.226319091796875,9.794978141784668,0.0454898327589035,0.043095629662275314
1716735783852319200,6.2363193359375,9.792584419250488,0.0454898327589035,0.043095629662275314
1716735783862319000,6.246319091796875,9.778219223022461,0.0454898327589035,0.040701430290937424
1716735783872319200,6.2563193359375,9.778219223022461,0.0454898327589035,0.040701430290937424
1716735783882319000,6.266319091796875,9.792584419250488,0.043095629662275314,0.040701430290937424
1716735783892319200,6.2763193359375,9.792584419250488,0.043095629662275314,0.043095629662275314
1716735783902319000,6.286319091796875,9.78061294555664,0.040701430290937424,0.043095629662275314
1716735783912319200,6.2963193359375,9.778219223022461,0.043095629662275314,0.0454898327589035
1716735783922319000,6.306319091796875,9.790189743041992,0.043095629662275314,0.0454898327589035
1716735783932319200,6.3163193359375,9.792584419250488,0.043095629662275314,0.047884032130241394
1716735783942319000,6.326319091796875,9.783007621765137,0.043095629662275314,0.047884032130241394
1716735783952319200,6.3363193359375,9.778219223022461,0.043095629662275314,0.047884032130241394
1716735783962319000,6.346319091796875,9.787796020507812,0.038307227194309235,0.05027823522686958
1716735783972319200,6.3563193359375,9.792584419250488,0.038307227194309235,0.047884032130241394
1716735783982319000,6.366319091796875,9.783007621765137,0.040701430290937424,0.0454898327589035
1716735783992319200,6.3763193359375,9.775824546813965,0.040701430290937424,0.047884032130241394
1716735784002319000,6.386319091796875,9.783007621765137,0.043095629662275314,0.047884032130241394
1716735784012319200,6.3963193359375,9.787796020507812,0.0454898327589035,0.047884032130241394
1716735784022319000,6.406319091796875,9.78061294555664,0.047884032130241394,0.047884032130241394
1716735784032319200,6.4163193359375,9.778219223022461,0.047884032130241394,0.043095629662275314
1716735784042319000,6.426319091796875,9.785401344299316,0.0454898327589035,0.040701430290937424
1716735784052319200,6.4363193359375,9.792584419250488,0.0454898327589035,0.040701430290937424
1716735784062319000,6.446319091796875,9.785401344299316,0.0454898327589035,0.040701430290937424
1716735784072319200,6.4563193359375,9.78061294555664,0.043095629662275314,0.040701430290937424
1716735784082319000,6.466319091796875,9.785401344299316,0.043095629662275314,0.047884032130241394
1716735784092319200,6.4763193359375,9.785401344299316,0.0454898327589035,0.047884032130241394
1716735784102319000,6.486319091796875,9.783007621765137,0.0454898327589035,0.047884032130241394
1716735784112319200,6.4963193359375,9.778219223022461,0.043095629662275314,0.0454898327589035
1716735784122319000,6.506319091796875,9.783007621765137,0.0454898327589035,0.047884032130241394
1716735784132319200,6.5163193359375,9.787796020507812,0.043095629662275314,0.05027823522686958
1716735784142319000,6.526319091796875,9.785401344299316,0.043095629662275314,0.05027823522686958
1716735784152319200,6.5363193359375,9.783007621765137,0.043095629662275314,0.05506663769483566
1716735784162319000,6.546319091796875,9.787796020507812,0.038307227194309235,0.05267243832349777
1716735784172319200,6.5563193359375,9.790189743041992,0.038307227194309235,0.05027823522686958
1716735784182319000,6.566319091796875,9.787796020507812,0.043095629662275314,0.05027823522686958
1716735784192319200,6.5763193359375,9.78061294555664,0.043095629662275314,0.047884032130241394
1716735784202319000,6.586319091796875,9.785401344299316,0.043095629662275314,0.047884032130241394
1716735784212319200,6.5963193359375,9.785401344299316,0.043095629662275314,0.0454898327589035
1716735784222319000,6.606319091796875,9.783007621765137,0.0454898327589035,0.047884032130241394
1716735784232319200,6.6163193359375,9.78061294555664,0.043095629662275314,0.0454898327589035
1716735784242319000,6.626319091796875,9.78061294555664,0.043095629662275314,0.0454898327589035
1716735784252319200,6.6363193359375,9.785401344299316,0.0454898327589035,0.0454898327589035
1716735784262319000,6.646319091796875,9.783007621765137,0.0454898327589035,0.0454898327589035
1716735784272319200,6.6563193359375,9.783007621765137,0.0454898327589035,0.043095629662275314
1716735784282319000,6.666319091796875,9.787796020507812,0.043095629662275314,0.040701430290937424
1716735784292319200,6.6763193359375,9.790189743041992,0.043095629662275314,0.043095629662275314
1716735784302319000,6.686319091796875,9.787796020507812,0.0454898327589035,0.043095629662275314
1716735784312319200,6.6963193359375,9.785401344299316,0.0454898327589035,0.047884032130241394
1716735784322319000,6.706319091796875,9.787796020507812,0.047884032130241394,0.047884032130241394
1716735784332319200,6.7163193359375,9.790189743041992,0.0454898327589035,0.05027823522686958
1716735784342319000,6.726319091796875,9.787796020507812,0.0454898327589035,0.05027823522686958
1716735784352319200,6.7363193359375,9.785401344299316,0.043095629662275314,0.05267243832349777
1716735784362319000,6.746319091796875,9.785401344299316,0.047884032130241394,0.05027823522686958
1716735784372319200,6.7563193359375,9.785401344299316,0.05267243832349777,0.047884032130241394
1716735784382319000,6.766319091796875,9.783007621765137,0.05027823522686958,0.0454898327589035
1716735784392319200,6.7763193359375,9.785401344299316,0.05027823522686958,0.043095629662275314
1716735784402319000,6.786319091796875,9.785401344299316,0.047884032130241394,0.043095629662275314
1716735784412319200,6.7963193359375,9.785401344299316,0.0454898327589035,0.043095629662275314
1716735784422319000,6.806319091796875,9.785401344299316,0.0454898327589035,0.0454898327589035
1716735784432319200,6.8163193359375,9.785401344299316,0.043095629662275314,0.047884032130241394
1716735784442319000,6.826319091796875,9.787796020507812,0.0454898327589035,0.047884032130241394
1716735784452319200,6.8363193359375,9.785401344299316,0.0454898327589035,0.05267243832349777
1716735784462319000,6.846319091796875,9.787796020507812,0.043095629662275314,0.05027823522686958
1716735784472319200,6.8563193359375,9.787796020507812,0.0454898327589035,0.047884032130241394
1716735784482319000,6.866319091796875,9.785401344299316,0.0454898327589035,0.0454898327589035
1716735784492319200,6.8763193359375,9.785401344299316,0.043095629662275314,0.047884032130241394
1716735784502319000,6.886319091796875,9.787796020507812,0.0454898327589035,0.047884032130241394
1716735784512319200,6.8963193359375,9.787796020507812,0.0454898327589035,0.05027823522686958
1716735784522319000,6.906319091796875,9.790189743041992,0.0454898327589035,0.05027823522686958
1716735784532319200,6.9163193359375,9.790189743041992,0.0454898327589035,0.05027823522686958
1716735784542319000,6.926319091796875,9.787796020507812,0.0454898327589035,0.0454898327589035
1716735784552319200,6.9363193359375,9.787796020507812,0.043095629662275314,0.043095629662275314
1716735784562319000,6.946319091796875,9.785401344299316,0.0454898327589035,0.0454898327589035
1716735784572319200,6.9563193359375,9.785401344299316,0.047884032130241394,0.047884032130241394
1716735784582319000,6.966319091796875,9.785401344299316,0.047884032130241394,0.047884032130241394
1716735784592319200,6.9763193359375,9.785401344299316,0.047884032130241394,0.0454898327589035
1716735784602319000,6.986319091796875,9.785401344299316,0.0454898327589035,0.0454898327589035
1716735784612319200,6.9963193359375,9.785401344299316,0.0454898327589035,0.043095629662275314
1716735784622319000,7.006319091796875,9.787796020507812,0.0454898327589035,0.0454898327589035
1716735784632319200,7.0163193359375,9.785401344299316,0.0454898327589035,0.0454898327589035
1716735784642319000,7.026319091796875,9.785401344299316,0.0454898327589035,0.0454898327589035
1716735784652319200,7.0363193359375,9.785401344299316,0.0454898327589035,0.047884032130241394
1716735784662319400,7.0463193359375,9.787796020507812,0.047884032130241394,0.047884032130241394
1716735784672319200,7.0563193359375,9.787796020507812,0.0454898327589035,0.05027823522686958
1716735784682319400,7.0663193359375,9.787796020507812,0.0454898327589035,0.05267243832349777
1716735784692319200,7.0763193359375,9.787796020507812,0.0454898327589035,0.05267243832349777
1716735784702319000,7.086319091796875,9.785401344299316,0.047884032130241394,0.05267243832349777
1716735784712319200,7.0963193359375,9.787796020507812,0.0454898327589035,0.05027823522686958
1716735784722319000,7.106319091796875,9.785401344299316,0.0454898327589035,0.05267243832349777
1716735784732319200,7.1163193359375,9.775824546813965,0.05027823522686958,0.05267243832349777
1716735784742319000,7.126319091796875,9.811738014221191,0.05027823522686958,0.05027823522686958
1716735784752319200,7.1363193359375,9.818920135498047,0.05027823522686958,0.05027823522686958
1716735784762319000,7.146319091796875,9.799766540527344,0.047884032130241394,0.0454898327589035
1716735784772319200,7.1563193359375,9.792584419250488,0.047884032130241394,0.0454898327589035
1716735784782319000,7.166319091796875,9.809343338012695,0.0454898327589035,0.047884032130241394
1716735784792319200,7.1763193359375,9.811738014221191,0.047884032130241394,0.05027823522686958
1716735784802319000,7.186319091796875,9.794978141784668,0.047884032130241394,0.05027823522686958
1716735784812319200,7.1963193359375,9.787796020507812,0.0454898327589035,0.05027823522686958
1716735784822319000,7.206319091796875,9.799766540527344,0.05027823522686958,0.047884032130241394
1716735784832319200,7.2163193359375,9.799766540527344,0.05027823522686958,0.047884032130241394
1716735784842319000,7.226319091796875,9.787796020507812,0.05267243832349777,0.05027823522686958
1716735784852319200,7.2363193359375,9.78061294555664,0.05506663769483566,0.047884032130241394
1716735784862319000,7.246319091796875,9.792584419250488,0.05267243832349777,0.047884032130241394
1716735784872319200,7.2563193359375,9.797372817993164,0.05267243832349777,0.047884032130241394
1716735784882319000,7.266319091796875,9.787796020507812,0.05027823522686958,0.0454898327589035
1716735784892319200,7.2763193359375,9.78061294555664,0.047884032130241394,0.043095629662275314
1716735784902319000,7.286319091796875,9.790189743041992,0.05027823522686958,0.043095629662275314
1716735784912319200,7.2963193359375,9.794978141784668,0.05027823522686958,0.0454898327589035
1716735784922319000,7.306319091796875,9.787796020507812,0.047884032130241394,0.0454898327589035
1716735784932319200,7.3163193359375,9.778219223022461,0.047884032130241394,0.0454898327589035
1716735784942319000,7.326319091796875,9.785401344299316,0.0454898327589035,0.0454898327589035
1716735784952319200,7.3363193359375,9.790189743041992,0.043095629662275314,0.040701430290937424
1716735784962319000,7.346319091796875,9.785401344299316,0.040701430290937424,0.040701430290937424
1716735784972319200,7.3563193359375,9.78061294555664,0.0454898327589035,0.0454898327589035
1716735784982319000,7.366319091796875,9.785401344299316,0.047884032130241394,0.047884032130241394
1716735784992319200,7.3763193359375,9.790189743041992,0.0454898327589035,0.047884032130241394
1716735785002319000,7.386319091796875,9.785401344299316,0.0454898327589035,0.047884032130241394
1716735785012319200,7.3963193359375,9.785401344299316,0.0454898327589035,0.05027823522686958
1716735785022319000,7.406319091796875,9.790189743041992,0.043095629662275314,0.05267243832349777
1716735785032319200,7.4163193359375,9.794978141784668,0.0454898327589035,0.05267243832349777
1716735785042319000,7.426319091796875,9.790189743041992,0.043095629662275314,0.05027823522686958
1716735785052319200,7.4363193359375,9.785401344299316,0.043095629662275314,0.05027823522686958
1716735785062319000,7.446319091796875,9.787796020507812,0.043095629662275314,0.05027823522686958
1716735785072319200,7.4563193359375,9.790189743041992,0.0454898327589035,0.047884032130241394
1716735785082319000,7.466319091796875,9.787796020507812,0.047884032130241394,0.047884032130241394
1716735785092319200,7.4763193359375,9.783007621765137,0.0454898327589035,0.047884032130241394
1716735785102319000,7.486319091796875,9.785401344299316,0.0454898327589035,0.047884032130241394
1716735785112319200,7.4963193359375,9.787796020507812,0.0454898327589035,0.05027823522686958
1716735785122319000,7.506319091796875,9.785401344299316,0.0454898327589035,0.05027823522686958
1716735785132319200,7.5163193359375,9.783007621765137,0.0454898327589035,0.05027823522686958
1716735785142319000,7.526319091796875,9.785401344299316,0.0454898327589035,0.05267243832349777
1716735785152319200,7.5363193359375,9.787796020507812,0.047884032130241394,0.05267243832349777
1716735785162319000,7.546319091796875,9.785401344299316,0.0454898327589035,0.05027823522686958
1716735785172319200,7.5563193359375,9.785401344299316,0.0454898327589035,0.05027823522686958
1716735785182319000,7.566319091796875,9.785401344299316,0.0454898327589035,0.05027823522686958
1716735785192319200,7.5763193359375,9.787796020507812,0.0454898327589035,0.05027823522686958
1716735785202319000,7.586319091796875,9.787796020507812,0.0454898327589035,0.0454898327589035
1716735785212319200,7.5963193359375,9.787796020507812,0.047884032130241394,0.047884032130241394
1716735785222319000,7.606319091796875,9.785401344299316,0.0454898327589035,0.043095629662275314
1716735785232319200,7.6163193359375,9.785401344299316,0.043095629662275314,0.043095629662275314
1716735785242319000,7.626319091796875,9.785401344299316,0.040701430290937424,0.040701430290937424
1716735785252319200,7.6363193359375,9.783007621765137,0.038307227194309235,0.038307227194309235
1716735785262319000,7.646319091796875,9.783007621765137,0.040701430290937424,0.040701430290937424
1716735785272319200,7.6563193359375,9.783007621765137,0.043095629662275314,0.040701430290937424
1716735785282319000,7.666319091796875,9.78061294555664,0.040701430290937424,0.040701430290937424
1716735785292319200,7.6763193359375,9.778219223022461,0.038307227194309235,0.043095629662275314
1716735785302319000,7.686319091796875,9.78061294555664,0.040701430290937424,0.043095629662275314
1716735785312319200,7.6963193359375,9.783007621765137,0.043095629662275314,0.0454898327589035
1716735785322319000,7.706319091796875,9.785401344299316,0.043095629662275314,0.0454898327589035
1716735785332319200,7.7163193359375,9.783007621765137,0.0454898327589035,0.040701430290937424
1716735785342319000,7.726319091796875,9.783007621765137,0.0454898327589035,0.043095629662275314
1716735785352319200,7.7363193359375,9.785401344299316,0.0454898327589035,0.0454898327589035
1716735785362319000,7.746319091796875,9.785401344299316,0.043095629662275314,0.0454898327589035
1716735785372319200,7.7563193359375,9.787796020507812,0.047884032130241394,0.0454898327589035
1716735785382319000,7.766319091796875,9.785401344299316,0.047884032130241394,0.0454898327589035
1716735785392319200,7.7763193359375,9.785401344299316,0.047884032130241394,0.047884032130241394
1716735785402319000,7.786319091796875,9.785401344299316,0.0454898327589035,0.0454898327589035
1716735785412319200,7.7963193359375,9.783007621765137,0.0454898327589035,0.043095629662275314
1716735785422319000,7.806319091796875,9.785401344299316,0.047884032130241394,0.043095629662275314
1716735785432319200,7.8163193359375,9.785401344299316,0.0454898327589035,0.043095629662275314
1716735785442319000,7.826319091796875,9.785401344299316,0.043095629662275314,0.0454898327589035
1716735785452319200,7.8363193359375,9.785401344299316,0.040701430290937424,0.047884032130241394
1716735785462319000,7.846319091796875,9.787796020507812,0.038307227194309235,0.0454898327589035
1716735785472319200,7.8563193359375,9.787796020507812,0.040701430290937424,0.043095629662275314
1716735785482319000,7.866319091796875,9.785401344299316,0.038307227194309235,0.0454898327589035
1716735785492319200,7.8763193359375,9.78061294555664,0.038307227194309235,0.047884032130241394
1716735785502319000,7.886319091796875,9.78061294555664,0.038307227194309235,0.047884032130241394
1716735785512319200,7.8963193359375,9.787796020507812,0.038307227194309235,0.0454898327589035
1716735785522319000,7.906319091796875,9.787796020507812,0.038307227194309235,0.043095629662275314
1716735785532319200,7.9163193359375,9.787796020507812,0.043095629662275314,0.0454898327589035
1716735785542319000,7.926319091796875,9.785401344299316,0.047884032130241394,0.0454898327589035
1716735785552319200,7.9363193359375,9.785401344299316,0.05027823522686958,0.043095629662275314
1716735785562319000,7.946319091796875,9.783007621765137,0.047884032130241394,0.043095629662275314
1716735785572319200,7.9563193359375,9.783007621765137,0.047884032130241394,0.043095629662275314
1716735785582319000,7.966319091796875,9.78061294555664,0.05267243832349777,0.043095629662275314
1716735785592319200,7.9763193359375,9.783007621765137,0.05027823522686958,0.040701430290937424
1716735785602319000,7.986319091796875,9.783007621765137,0.047884032130241394,0.040701430290937424
1716735785612319200,7.9963193359375,9.783007621765137,0.043095629662275314,0.038307227194309235
1716735785622319000,8.006319091796875,9.78061294555664,0.043095629662275314,0.040701430290937424
1716735785632319200,8.0163193359375,9.775824546813965,0.0454898327589035,0.040701430290937424
1716735785642319000,8.026319091796875,9.778219223022461,0.0454898327589035,0.043095629662275314
1716735785652319200,8.0363193359375,9.78061294555664,0.0454898327589035,0.043095629662275314
1716735785662319000,8.046319091796875,9.778219223022461,0.0454898327589035,0.040701430290937424
1716735785672319200,8.0563193359375,9.778219223022461,0.0454898327589035,0.040701430290937424
1716735785682319000,8.066319091796874,9.778219223022461,0.043095629662275314,0.043095629662275314
1716735785692319200,8.0763193359375,9.783007621765137,0.040701430290937424,0.043095629662275314
1716735785702319000,8.086319091796875,9.78061294555664,0.043095629662275314,0.043095629662275314
1716735785712319200,8.0963193359375,9.783007621765137,0.043095629662275314,0.0454898327589035
1716735785722319000,8.106319091796875,9.783007621765137,0.0454898327589035,0.047884032130241394
1716735785732319200,8.1163193359375,9.78061294555664,0.043095629662275314,0.047884032130241394
1716735785742319000,8.126319091796875,9.785401344299316,0.043095629662275314,0.047884032130241394
1716735785752319200,8.1363193359375,9.785401344299316,0.043095629662275314,0.047884032130241394
1716735785762319000,8.146319091796874,9.783007621765137,0.040701430290937424,0.0454898327589035
1716735785772319200,8.1563193359375,9.78061294555664,0.043095629662275314,0.0454898327589035
1716735785782319000,8.166319091796876,9.799766540527344,0.040701430290937424,0.043095629662275314
1716735785792319200,8.1763193359375,9.823708534240723,0.040701430290937424,0.043095629662275314
1716735785802319000,8.186319091796875,9.830891609191895,0.038307227194309235,0.043095629662275314
1716735785812319200,8.1963193359375,9.806949615478516,0.038307227194309235,0.0454898327589035
1716735785822319000,8.206319091796875,9.792584419250488,0.040701430290937424,0.043095629662275314
1716735785832319200,8.2163193359375,9.811738014221191,0.0454898327589035,0.0454898327589035
1716735785842319000,8.226319091796874,9.814131736755371,0.047884032130241394,0.043095629662275314
1716735785852319200,8.2363193359375,9.797372817993164,0.0454898327589035,0.043095629662275314
1716735785862319000,8.246319091796876,9.787796020507812,0.043095629662275314,0.0454898327589035
1716735785872319200,8.2563193359375,9.792584419250488,0.040701430290937424,0.05027823522686958
1716735785882319000,8.266319091796875,9.80216121673584,0.043095629662275314,0.05027823522686958
1716735785892319200,8.2763193359375,9.787796020507812,0.040701430290937424,0.047884032130241394
1716735785902319000,8.286319091796875,9.778219223022461,0.040701430290937424,0.047884032130241394
1716735785912319200,8.2963193359375,9.787796020507812,0.038307227194309235,0.05027823522686958
1716735785922319000,8.306319091796874,9.794978141784668,0.040701430290937424,0.0454898327589035
1716735785932319200,8.3163193359375,9.785401344299316,0.040701430290937424,0.043095629662275314
1716735785942319000,8.326319091796876,9.78061294555664,0.040701430290937424,0.043095629662275314
1716735785952319200,8.3363193359375,9.790189743041992,0.043095629662275314,0.038307227194309235
1716735785962319000,8.346319091796875,9.797372817993164,0.040701430290937424,0.038307227194309235
1716735785972319200,8.3563193359375,9.787796020507812,0.040701430290937424,0.035913024097681046
1716735785982319000,8.366319091796875,9.78061294555664,0.040701430290937424,0.038307227194309235
1716735785992319200,8.3763193359375,9.785401344299316,0.043095629662275314,0.040701430290937424
1716735786002319000,8.386319091796874,9.792584419250488,0.040701430290937424,0.043095629662275314
1716735786012319200,8.3963193359375,9.792584419250488,0.0454898327589035,0.05027823522686958
1716735786022319000,8.406319091796876,9.783007621765137,0.047884032130241394,0.05027823522686958
1716735786032319200,8.4163193359375,9.783007621765137,0.047884032130241394,0.05267243832349777
1716735786042319000,8.426319091796875,9.790189743041992,0.0454898327589035,0.05267243832349777
1716735786052319200,8.4363193359375,9.787796020507812,0.043095629662275314,0.05267243832349777
1716735786062319000,8.446319091796875,9.78061294555664,0.043095629662275314,0.05027823522686958
1716735786072319200,8.4563193359375,9.783007621765137,0.0454898327589035,0.05027823522686958
1716735786082319000,8.466319091796874,9.787796020507812,0.0454898327589035,0.05267243832349777
1716735786092319200,8.4763193359375,9.785401344299316,0.043095629662275314,0.05267243832349777
1716735786102319000,8.486319091796876,9.78061294555664,0.0454898327589035,0.05267243832349777
1716735786112319200,8.4963193359375,9.78061294555664,0.043095629662275314,0.05267243832349777
1716735786122319000,8.506319091796875,9.787796020507812,0.0454898327589035,0.047884032130241394
1716735786132319200,8.5163193359375,9.785401344299316,0.0454898327589035,0.0454898327589035
1716735786142319000,8.526319091796875,9.78061294555664,0.043095629662275314,0.0454898327589035
1716735786152319200,8.5363193359375,9.78061294555664,0.043095629662275314,0.0454898327589035
1716735786162319000,8.546319091796875,9.783007621765137,0.043095629662275314,0.0454898327589035
1716735786172319200,8.5563193359375,9.783007621765137,0.043095629662275314,0.040701430290937424
1716735786182319000,8.566319091796874,9.778219223022461,0.043095629662275314,0.040701430290937424
1716735786192319200,8.5763193359375,9.78061294555664,0.043095629662275314,0.043095629662275314
1716735786202319000,8.586319091796875,9.785401344299316,0.043095629662275314,0.0454898327589035
1716735786212319200,8.5963193359375,9.785401344299316,0.040701430290937424,0.0454898327589035
1716735786222319000,8.606319091796875,9.78061294555664,0.038307227194309235,0.043095629662275314
1716735786232319200,8.6163193359375,9.78061294555664,0.038307227194309235,0.0454898327589035
1716735786242319000,8.626319091796875,9.785401344299316,0.038307227194309235,0.0454898327589035
1716735786252319200,8.6363193359375,9.783007621765137,0.040701430290937424,0.043095629662275314
1716735786262319000,8.646319091796874,9.778219223022461,0.040701430290937424,0.040701430290937424
1716735786272319200,8.6563193359375,9.78061294555664,0.05506663769483566,0.05506663769483566
1716735786282319000,8.666319091796876,9.794978141784668,0.05027823522686958,0.05027823522686958
1716735786292319200,8.6763193359375,9.783007621765137,0.05746084079146385,0.040701430290937424
1716735786302319000,8.686319091796875,9.785401344299316,0.06703764945268631,0.040701430290937424
1716735786312319200,8.6963193359375,9.785401344299316,0.040701430290937424,0.05027823522686958
1716735786322319000,8.706319091796875,9.783007621765137,0.047884032130241394,0.05267243832349777
1716735786332319200,8.7163193359375,9.78061294555664,0.05267243832349777,0.05985504388809204
1716735786342319000,8.726319091796874,9.775824546813965,0.05267243832349777,0.05985504388809204
1716735786352319200,8.7363193359375,9.773430824279785,0.05027823522686958,0.05506663769483566
1716735786362319000,8.746319091796876,9.790189743041992,0.05985504388809204,0.043095629662275314
1716735786372319200,8.7563193359375,9.799766540527344,0.05027823522686958,0.05746084079146385
1716735786382319000,8.766319091796875,9.775824546813965,0.0454898327589035,0.033518824726343155
1716735786392319200,8.7763193359375,9.78061294555664,0.043095629662275314,0.05027823522686958
1716735786402319000,8.786319091796875,9.799766540527344,0.0454898327589035,0.05027823522686958
1716735786412319200,8.7963193359375,9.792584419250488,0.043095629662275314,0.0454898327589035
1716735786422319000,8.806319091796874,9.785401344299316,0.05746084079146385,0.043095629662275314
1716735786432319200,8.8163193359375,9.773430824279785,0.035913024097681046,0.06464344263076782
1716735786442319000,8.826319091796876,9.80455493927002,0.040701430290937424,0.05027823522686958
1716735786452319200,8.8363193359375,9.78061294555664,0.05027823522686958,0.047884032130241394
1716735786462319000,8.846319091796875,9.785401344299316,0.05027823522686958,0.043095629662275314
1716735786472319200,8.8563193359375,9.785401344299316,0.06464344263076782,0.0454898327589035
1716735786482319000,8.866319091796875,9.787796020507812,0.0454898327589035,0.05985504388809204
1716735786492319200,8.8763193359375,9.785401344299316,0.038307227194309235,0.0454898327589035
1716735786502319000,8.886319091796874,9.78061294555664,0.047884032130241394,0.05027823522686958
1716735786512319200,8.8963193359375,9.775824546813965,0.043095629662275314,0.05027823522686958
1716735786522319000,8.906319091796876,9.792584419250488,0.05027823522686958,0.0454898327589035
1716735786532319200,8.9163193359375,9.78061294555664,0.040701430290937424,0.05506663769483566
1716735786542319000,8.926319091796875,9.783007621765137,0.05746084079146385,0.047884032130241394
1716735786552319200,8.9363193359375,9.78061294555664,0.033518824726343155,0.07182604819536209
1716735786562319000,8.946319091796875,9.787796020507812,0.05267243832349777,0.06224924325942993
1716735786572319200,8.9563193359375,9.785401344299316,0.05746084079146385,0.0694318488240242
1716735786582319000,8.966319091796874,9.778219223022461,0.047884032130241394,0.05985504388809204
1716735786592319200,8.9763193359375,9.78061294555664,0.05506663769483566,0.05267243832349777
1716735786602319000,8.986319091796876,9.78061294555664,0.040701430290937424,0.05267243832349777
1716735786612319200,8.9963193359375,9.785401344299316,0.0454898327589035,0.05027823522686958
1716735786622319000,9.006319091796875,9.790189743041992,0.05506663769483566,0.05027823522686958
1716735786632319200,9.0163193359375,9.797372817993164,0.043095629662275314,0.05746084079146385
1716735786642319000,9.026319091796875,9.811738014221191,0.05267243832349777,0.0454898327589035
1716735786652319200,9.0363193359375,9.787796020507812,0.05027823522686958,0.035913024097681046
1716735786662319000,9.046319091796875,9.783007621765137,0.05746084079146385,0.05267243832349777
1716735786672319200,9.0563193359375,9.771036148071289,0.0454898327589035,0.0694318488240242
1716735786682319000,9.066319091796874,9.792584419250488,0.07182604819536209,0.0454898327589035
1716735786692319200,9.0763193359375,9.783007621765137,0.05267243832349777,0.05027823522686958
1716735786702319000,9.086319091796875,9.783007621765137,0.033518824726343155,0.0694318488240242
1716735786712319200,9.0963193359375,9.773430824279785,0.05506663769483566,0.05027823522686958
1716735786722319000,9.106319091796875,9.771036148071289,0.0454898327589035,0.06224924325942993
1716735786732319200,9.1163193359375,9.785401344299316,0.05506663769483566,0.05267243832349777
1716735786742319000,9.126319091796875,9.787796020507812,0.05267243832349777,0.05506663769483566
1716735786752319200,9.1363193359375,9.694421768188477,0.040701430290937424,0.05506663769483566
1716735786762319000,9.146319091796874,9.80216121673584,0.05746084079146385,0.05746084079146385
1716735786772319200,9.1563193359375,9.890746116638184,0.05267243832349777,0.038307227194309235
1716735786782319000,9.166319091796876,9.785401344299316,0.040701430290937424,0.05506663769483566
1716735786792319200,9.1763193359375,9.74709415435791,0.031124621629714966,0.06703764945268631
1716735786802319000,9.186319091796875,9.778219223022461,0.05267243832349777,0.05506663769483566
1716735786812319200,9.1963193359375,9.811738014221191,0.05985504388809204,0.06703764945268631
1716735786822319000,9.206319091796875,9.799766540527344,0.05985504388809204,0.05506663769483566
1716735786832319200,9.2163193359375,9.778219223022461,0.06224924325942993,0.05027823522686958
1716735786842319000,9.226319091796874,9.792584419250488,0.05746084079146385,0.047884032130241394
1716735786852319200,9.2363193359375,9.790189743041992,0.05027823522686958,0.028730420395731926
1716735786862319000,9.246319091796876,9.771036148071289,0.043095629662275314,0.043095629662275314
1716735786872319200,9.2563193359375,9.778219223022461,0.05267243832349777,0.040701430290937424
1716735786882319000,9.266319091796875,9.78061294555664,0.040701430290937424,0.05746084079146385
1716735786892319200,9.2763193359375,9.783007621765137,0.06224924325942993,0.033518824726343155
1716735786902319000,9.286319091796875,9.778219223022461,0.047884032130241394,0.038307227194309235
1716735786912319200,9.2963193359375,9.785401344299316,0.05267243832349777,0.0454898327589035
1716735786922319000,9.306319091796874,9.785401344299316,0.05985504388809204,0.031124621629714966
1716735786932319200,9.3163193359375,9.799766540527344,0.05267243832349777,0.05267243832349777
1716735786942319000,9.326319091796876,9.790189743041992,0.047884032130241394,0.05746084079146385
1716735786952319200,9.3363193359375,9.773430824279785,0.040701430290937424,0.05027823522686958
1716735786962319000,9.346319091796875,9.783007621765137,0.05267243832349777,0.0454898327589035
1716735786972319200,9.3563193359375,9.794978141784668,0.035913024097681046,0.06224924325942993
1716735786982319000,9.366319091796875,9.785401344299316,0.031124621629714966,0.0694318488240242
1716735786992319200,9.3763193359375,9.771036148071289,0.033518824726343155,0.05506663769483566
1716735787002319000,9.386319091796874,9.785401344299316,0.05506663769483566,0.05506663769483566
1716735787012319200,9.3963193359375,9.78061294555664,0.043095629662275314,0.05506663769483566
1716735787022319000,9.406319091796876,9.778219223022461,0.0454898327589035,0.07182604819536209
1716735787032319200,9.4163193359375,9.78061294555664,0.05027823522686958,0.031124621629714966
1716735787042319000,9.426319091796875,9.778219223022461,0.038307227194309235,0.05267243832349777
1716735787052319200,9.4363193359375,9.794978141784668,0.05746084079146385,0.06464344263076782
1716735787062319000,9.446319091796875,9.778219223022461,0.047884032130241394,0.06224924325942993
1716735787072319200,9.4563193359375,9.797372817993164,0.05985504388809204,0.038307227194309235
1716735787082319000,9.466319091796874,9.787796020507812,0.05746084079146385,0.043095629662275314
1716735787092319200,9.4763193359375,9.775824546813965,0.047884032130241394,0.05985504388809204
1716735787102318800,9.48631884765625,9.78061294555664,0.0454898327589035,0.028730420395731926
1716735787112318700,9.496318603515626,9.783007621765137,0.035913024097681046,0.047884032130241394
1716735787122318800,9.50631884765625,9.787796020507812,0.040701430290937424,0.047884032130241394
1716735787132318700,9.516318603515625,9.778219223022461,0.05506663769483566,0.05027823522686958
1716735787142318800,9.52631884765625,9.783007621765137,0.043095629662275314,0.05746084079146385
1716735787152319000,9.536319091796875,9.78061294555664,0.06703764945268631,0.05027823522686958
1716735787162318800,9.54631884765625,9.773430824279785,0.05027823522686958,0.05506663769483566
1716735787172319000,9.556319091796874,9.787796020507812,0.05027823522686958,0.047884032130241394
1716735787182318800,9.56631884765625,9.783007621765137,0.043095629662275314,0.033518824726343155
1716735787192319000,9.576319091796876,9.78061294555664,0.0454898327589035,0.05746084079146385
1716735787202318800,9.58631884765625,9.775824546813965,0.035913024097681046,0.06464344263076782
1716735787212318700,9.596318603515625,9.773430824279785,0.038307227194309235,0.05267243832349777
1716735787222318800,9.60631884765625,9.778219223022461,0.05027823522686958,0.05027823522686958
1716735787232318700,9.616318603515625,9.78061294555664,0.05027823522686958,0.0694318488240242
1716735787242318800,9.62631884765625,9.792584419250488,0.05506663769483566,0.05027823522686958
1716735787252318700,9.636318603515624,9.775824546813965,0.05985504388809204,0.05506663769483566
1716735787262318800,9.64631884765625,9.783007621765137,0.0454898327589035,0.040701430290937424
1716735787272318700,9.656318603515626,9.790189743041992,0.05267243832349777,0.047884032130241394
1716735787282318800,9.66631884765625,9.785401344299316,0.05267243832349777,0.047884032130241394
1716735787292318700,9.676318603515625,9.78061294555664,0.043095629662275314,0.038307227194309235
1716735787302318800,9.68631884765625,9.790189743041992,0.0454898327589035,0.06224924325942993
1716735787312318700,9.696318603515625,9.78061294555664,0.038307227194309235,0.047884032130241394
1716735787322318800,9.70631884765625,9.783007621765137,0.05506663769483566,0.0454898327589035
1716735787332318700,9.716318603515624,9.775824546813965,0.043095629662275314,0.06464344263076782
1716735787342318800,9.72631884765625,9.778219223022461,0.038307227194309235,0.047884032130241394
1716735787352318700,9.736318603515626,9.773430824279785,0.047884032130241394,0.06224924325942993
1716735787362318800,9.74631884765625,9.790189743041992,0.05746084079146385,0.06464344263076782
1716735787372318700,9.756318603515625,9.778219223022461,0.043095629662275314,0.05506663769483566
1716735787382318800,9.76631884765625,9.790189743041992,0.05267243832349777,0.05027823522686958
1716735787392318700,9.776318603515625,9.792584419250488,0.05027823522686958,0.05506663769483566
1716735787402319000,9.786319091796875,9.785401344299316,0.047884032130241394,0.0454898327589035
1716735787412319200,9.7963193359375,9.778219223022461,0.035913024097681046,0.05985504388809204
1716735787422319000,9.806319091796874,9.787796020507812,0.043095629662275314,0.05506663769483566
1716735787432319200,9.8163193359375,9.78061294555664,0.05506663769483566,0.043095629662275314
1716735787442319000,9.826319091796876,9.787796020507812,0.0454898327589035,0.033518824726343155
1716735787452319200,9.8363193359375,9.778219223022461,0.038307227194309235,0.0454898327589035
1716735787462319000,9.846319091796875,9.78061294555664,0.043095629662275314,0.06224924325942993
1716735787472319200,9.8563193359375,9.78061294555664,0.031124621629714966,0.043095629662275314
1716735787482319000,9.866319091796875,9.78061294555664,0.033518824726343155,0.06464344263076782
1716735787492319200,9.8763193359375,9.78061294555664,0.0454898327589035,0.031124621629714966
1716735787502319000,9.886319091796874,9.785401344299316,0.043095629662275314,0.05506663769483566
1716735787512319200,9.8963193359375,9.783007621765137,0.0454898327589035,0.043095629662275314
1716735787522319000,9.906319091796876,9.778219223022461,0.06464344263076782,0.035913024097681046
1716735787532319200,9.9163193359375,9.778219223022461,0.035913024097681046,0.05985504388809204
1716735787542319000,9.926319091796875,9.785401344299316,0.0454898327589035,0.05506663769483566
1716735787552319200,9.9363193359375,9.78061294555664,0.047884032130241394,0.06703764945268631
1716735787562319000,9.946319091796875,9.78061294555664,0.038307227194309235,0.05985504388809204
1716735787572319200,9.9563193359375,9.785401344299316,0.05985504388809204,0.07182604819536209
1716735787582319000,9.966319091796874,9.787796020507812,0.05267243832349777,0.06224924325942993
1716735787592319200,9.9763193359375,9.76864242553711,0.031124621629714966,0.033518824726343155
1716735787602319000,9.986319091796876,9.78061294555664,0.05746084079146385,0.047884032130241394
1716735787612319200,9.9963193359375,9.785401344299316,0.047884032130241394,0.038307227194309235
1716735787622319000,10.006319091796875,9.773430824279785,0.05267243832349777,0.026336219161748886
1716735787632319200,10.0163193359375,9.78061294555664,0.06464344263076782,0.05746084079146385
1716735787642319000,10.026319091796875,9.787796020507812,0.047884032130241394,0.0454898327589035
1716735787652319200,10.0363193359375,9.775824546813965,0.040701430290937424,0.0454898327589035
1716735787662319000,10.046319091796875,9.783007621765137,0.047884032130241394,0.031124621629714966
1716735787672319200,10.0563193359375,9.785401344299316,0.05746084079146385,0.05506663769483566
1716735787682319000,10.066319091796874,9.78061294555664,0.035913024097681046,0.043095629662275314
1716735787692319200,10.0763193359375,9.773430824279785,0.05027823522686958,0.06703764945268631
1716735787702319000,10.086319091796875,9.785401344299316,0.047884032130241394,0.0454898327589035
1716735787712319200,10.0963193359375,9.792584419250488,0.06703764945268631,0.05985504388809204
1716735787722319000,10.106319091796875,9.794978141784668,0.05027823522686958,0.05267243832349777
1716735787732319200,10.1163193359375,9.790189743041992,0.05506663769483566,0.047884032130241394
1716735787742319000,10.126319091796875,9.773430824279785,0.05506663769483566,0.047884032130241394
1716735787752319200,10.1363193359375,9.78061294555664,0.05506663769483566,0.031124621629714966
1716735787762319000,10.146319091796874,9.785401344299316,0.05267243832349777,0.06703764945268631
1716735787772319200,10.1563193359375,9.787796020507812,0.05027823522686958,0.0454898327589035
1716735787782319000,10.166319091796876,9.787796020507812,0.06464344263076782,0.05506663769483566
1716735787792319200,10.1763193359375,9.502885818481445,0.07900865375995636,0.07900865375995636
1716735787802319000,10.186319091796875,9.814131736755371,0.06703764945268631,0.05027823522686958
1716735787812319200,10.1963193359375,9.833285331726074,0.05746084079146385,0.05267243832349777
1716735787822319000,10.206319091796875,9.701604843139648,0.026336219161748886,0.05267243832349777
1716735787832319200,10.2163193359375,9.668086051940918,0.05746084079146385,0.06224924325942993
1716735787842319000,10.226319091796874,9.742305755615234,0.0694318488240242,0.05746084079146385
1716735787852319200,10.2363193359375,9.794978141784668,0.05506663769483566,0.06224924325942993
1716735787862319000,10.246319091796876,9.735123634338379,0.06224924325942993,0.05506663769483566
1716735787872319200,10.2563193359375,9.725546836853027,0.05506663769483566,0.043095629662275314
1716735787882319000,10.266319091796875,9.806949615478516,0.0454898327589035,0.028730420395731926
1716735787892319200,10.2763193359375,9.811738014221191,0.05506663769483566,0.043095629662275314
1716735787902319000,10.286319091796875,9.756670951843262,0.040701430290937424,0.033518824726343155
1716735787912319200,10.2963193359375,9.754277229309082,0.05027823522686958,0.05506663769483566
1716735787922319000,10.306319091796874,9.797372817993164,0.0454898327589035,0.05985504388809204
1716735787932319200,10.3163193359375,9.814131736755371,0.047884032130241394,0.05027823522686958
1716735787942319000,10.326319091796876,9.766247749328613,0.033518824726343155,0.028730420395731926
1716735787952319200,10.3363193359375,9.751882553100586,0.0694318488240242,0.047884032130241394
1716735787962319000,10.346319091796875,9.797372817993164,0.07182604819536209,0.05746084079146385
1716735787972319200,10.3563193359375,9.821314811706543,0.06464344263076782,0.047884032130241394
1716735787982319000,10.366319091796875,9.775824546813965,0.07182604819536209,0.05506663769483566
1716735787992319200,10.3763193359375,9.74470043182373,0.05267243832349777,0.05267243832349777
1716735788002319000,10.386319091796874,9.792584419250488,0.043095629662275314,0.05267243832349777
1716735788012319200,10.3963193359375,9.809343338012695,0.043095629662275314,0.05267243832349777
1716735788022319000,10.406319091796876,9.775824546813965,0.05746084079146385,0.040701430290937424
1716735788032319200,10.4163193359375,9.754277229309082,0.05267243832349777,0.05027823522686958
1716735788042319000,10.426319091796875,9.78061294555664,0.06703764945268631,0.038307227194309235
1716735788052319200,10.4363193359375,9.814131736755371,0.06224924325942993,0.05746084079146385
1716735788062319000,10.446319091796875,9.792584419250488,0.038307227194309235,0.040701430290937424
1716735788072319200,10.4563193359375,9.759065628051758,0.028730420395731926,0.06224924325942993
1716735788082319000,10.466319091796874,9.778219223022461,0.038307227194309235,0.05506663769483566
1716735788092319200,10.4763193359375,9.816526412963867,0.05985504388809204,0.06224924325942993
1716735788102319000,10.486319091796876,9.785401344299316,0.05985504388809204,0.05506663769483566
1716735788112319200,10.4963193359375,9.763854026794434,0.05027823522686958,0.05506663769483566
1716735788122319000,10.506319091796875,9.794978141784668,0.0454898327589035,0.0454898327589035
1716735788132319200,10.5163193359375,9.809343338012695,0.0454898327589035,0.047884032130241394
1716735788142319000,10.526319091796875,9.792584419250488,0.05027823522686958,0.06464344263076782
1716735788152319200,10.5363193359375,9.761459350585938,0.033518824726343155,0.05027823522686958
1716735788162319000,10.546319091796875,9.787796020507812,0.05027823522686958,0.06703764945268631
1716735788172319200,10.5563193359375,9.797372817993164,0.06464344263076782,0.05746084079146385
1716735788182319000,10.566319091796874,9.771036148071289,0.06224924325942993,0.05506663769483566
1716735788192319200,10.5763193359375,9.766247749328613,0.038307227194309235,0.0454898327589035
1716735788202319000,10.586319091796875,9.771036148071289,0.05985504388809204,0.047884032130241394
1716735788212319200,10.5963193359375,9.787796020507812,0.0454898327589035,0.0454898327589035
1716735788222319000,10.606319091796875,9.785401344299316,0.043095629662275314,0.0694318488240242
1716735788232319200,10.6163193359375,9.773430824279785,0.05267243832349777,0.06224924325942993
1716735788242319000,10.626319091796875,9.783007621765137,0.05985504388809204,0.047884032130241394
1716735788252319200,10.6363193359375,9.792584419250488,0.038307227194309235,0.038307227194309235
1716735788262319000,10.646319091796874,9.806949615478516,0.047884032130241394,0.05027823522686958
1716735788272319200,10.6563193359375,9.78061294555664,0.043095629662275314,0.040701430290937424
1716735788282319000,10.666319091796876,9.783007621765137,0.05985504388809204,0.05267243832349777
1716735788292319200,10.6763193359375,9.783007621765137,0.05985504388809204,0.047884032130241394
1716735788302319000,10.686319091796875,9.78061294555664,0.05267243832349777,0.0454898327589035
1716735788312319200,10.6963193359375,9.783007621765137,0.038307227194309235,0.038307227194309235
1716735788322319000,10.706319091796875,9.783007621765137,0.05027823522686958,0.05267243832349777
1716735788332319200,10.7163193359375,9.787796020507812,0.05746084079146385,0.040701430290937424
1716735788342319000,10.726319091796874,9.790189743041992,0.05027823522686958,0.047884032130241394
1716735788352319200,10.7363193359375,9.773430824279785,0.05027823522686958,0.05746084079146385
1716735788362319000,10.746319091796876,9.773430824279785,0.043095629662275314,0.05506663769483566
1716735788372319200,10.7563193359375,9.799766540527344,0.05746084079146385,0.05506663769483566
1716735788382319000,10.766319091796875,9.794978141784668,0.05267243832349777,0.043095629662275314
1716735788392319200,10.7763193359375,9.778219223022461,0.047884032130241394,0.05027823522686958
1716735788402319000,10.786319091796875,9.778219223022461,0.0454898327589035,0.05027823522686958
1716735788412319200,10.7963193359375,9.787796020507812,0.043095629662275314,0.05027823522686958
1716735788422319000,10.806319091796874,9.790189743041992,0.05746084079146385,0.05746084079146385
1716735788432319200,10.8163193359375,9.799766540527344,0.05506663769483566,0.047884032130241394
1716735788442319000,10.826319091796876,9.797372817993164,0.05746084079146385,0.05027823522686958
1716735788452319200,10.8363193359375,9.799766540527344,0.06464344263076782,0.05267243832349777
1716735788462319000,10.846319091796875,9.773430824279785,0.05027823522686958,0.047884032130241394
1716735788472319200,10.8563193359375,9.785401344299316,0.05027823522686958,0.0454898327589035
1716735788482319000,10.866319091796875,9.771036148071289,0.05506663769483566,0.05985504388809204
1716735788492319200,10.8763193359375,9.778219223022461,0.043095629662275314,0.05985504388809204
1716735788502319000,10.886319091796874,9.785401344299316,0.05506663769483566,0.0454898327589035
1716735788512319200,10.8963193359375,9.787796020507812,0.031124621629714966,0.05027823522686958
1716735788522319000,10.906319091796876,9.778219223022461,0.0454898327589035,0.047884032130241394
1716735788532319200,10.9163193359375,9.790189743041992,0.05506663769483566,0.05506663769483566
1716735788542319000,10.926319091796875,9.785401344299316,0.043095629662275314,0.0454898327589035
1716735788552319200,10.9363193359375,9.773430824279785,0.047884032130241394,0.040701430290937424
1716735788562319000,10.946319091796875,9.783007621765137,0.035913024097681046,0.0454898327589035
1716735788572319200,10.9563193359375,9.775824546813965,0.033518824726343155,0.05506663769483566
1716735788582319000,10.966319091796874,9.790189743041992,0.040701430290937424,0.06703764945268631
1716735788592319200,10.9763193359375,9.785401344299316,0.05506663769483566,0.040701430290937424
1716735788602319000,10.986319091796876,9.797372817993164,0.05985504388809204,0.05267243832349777
1716735788612319200,10.9963193359375,9.785401344299316,0.026336219161748886,0.0454898327589035
1716735788622319000,11.006319091796875,9.773430824279785,0.0454898327589035,0.05027823522686958
1716735788632319200,11.0163193359375,9.773430824279785,0.035913024097681046,0.047884032130241394
1716735788642319000,11.026319091796875,9.775824546813965,0.0454898327589035,0.035913024097681046
1716735788652319200,11.0363193359375,9.778219223022461,0.038307227194309235,0.05746084079146385
1716735788662319000,11.046319091796875,9.790189743041992,0.028730420395731926,0.05746084079146385
1716735788672319200,11.0563193359375,9.775824546813965,0.0454898327589035,0.05506663769483566
1716735788682319000,11.066319091796874,9.787796020507812,0.05985504388809204,0.05027823522686958
1716735788692319200,11.0763193359375,9.785401344299316,0.047884032130241394,0.047884032130241394
1716735788702319000,11.086319091796875,9.773430824279785,0.0454898327589035,0.05506663769483566
1716735788712319200,11.0963193359375,9.80216121673584,0.038307227194309235,0.028730420395731926
1716735788722319000,11.106319091796875,9.78061294555664,0.040701430290937424,0.05746084079146385
1716735788732319200,11.1163193359375,9.778219223022461,0.05027823522686958,0.06464344263076782
1716735788742319000,11.126319091796875,9.773430824279785,0.06464344263076782,0.043095629662275314
1716735788752319200,11.1363193359375,9.778219223022461,0.043095629662275314,0.05985504388809204
1716735788762319000,11.146319091796874,9.773430824279785,0.0454898327589035,0.035913024097681046
1716735788772319200,11.1563193359375,9.787796020507812,0.033518824726343155,0.047884032130241394
1716735788782319000,11.166319091796876,9.790189743041992,0.05506663769483566,0.06464344263076782
1716735788792319200,11.1763193359375,9.78061294555664,0.05506663769483566,0.047884032130241394
1716735788802319000,11.186319091796875,9.787796020507812,0.05985504388809204,0.05027823522686958
1716735788812319200,11.1963193359375,9.924264907836914,0.035913024097681046,0.038307227194309235
1716735788822319000,11.206319091796875,9.921871185302734,0.06464344263076782,0.0694318488240242
1716735788832319200,11.2163193359375,9.811738014221191,0.047884032130241394,0.035913024097681046
1716735788842319000,11.226319091796874,9.71357536315918,0.05267243832349777,0.05506663769483566
1716735788852319200,11.2363193359375,9.811738014221191,0.05506663769483566,0.043095629662275314
1716735788862319000,11.246319091796876,9.873987197875977,0.031124621629714966,0.043095629662275314
1716735788872319200,11.2563193359375,9.799766540527344,0.05267243832349777,0.06224924325942993
1716735788882319000,11.266319091796875,9.739912033081055,0.040701430290937424,0.0454898327589035
1716735788892319200,11.2763193359375,9.771036148071289,0.05506663769483566,0.05746084079146385
1716735788902319000,11.286319091796875,9.847650527954102,0.033518824726343155,0.05506663769483566
1716735788912319200,11.2963193359375,9.811738014221191,0.023942016065120697,0.05027823522686958
1716735788922319000,11.306319091796874,9.732728958129883,0.033518824726343155,0.05746084079146385
1716735788932319200,11.3163193359375,9.76864242553711,0.05027823522686958,0.06224924325942993
1716735788942319000,11.326319091796876,9.845256805419922,0.0694318488240242,0.05027823522686958
1716735788952319200,11.3363193359375,9.799766540527344,0.06464344263076782,0.043095629662275314
1716735788962319000,11.346319091796875,9.749488830566406,0.047884032130241394,0.05027823522686958
1716735788972319200,11.3563193359375,9.761459350585938,0.0454898327589035,0.05267243832349777
1716735788982319000,11.366319091796875,9.828496932983398,0.031124621629714966,0.05985504388809204
1716735788992319200,11.3763193359375,9.785401344299316,0.05985504388809204,0.05506663769483566
1716735789002319000,11.386319091796874,9.74470043182373,0.0454898327589035,0.038307227194309235
1716735789012319200,11.3963193359375,9.785401344299316,0.0454898327589035,0.06703764945268631
1716735789022319000,11.406319091796876,9.821314811706543,0.05267243832349777,0.043095629662275314
1716735789032319200,11.4163193359375,9.785401344299316,0.05267243832349777,0.06224924325942993
1716735789042319000,11.426319091796875,9.742305755615234,0.06224924325942993,0.06464344263076782
1716735789052319200,11.4363193359375,9.756670951843262,0.047884032130241394,0.06224924325942993
1716735789062319000,11.446319091796875,9.806949615478516,0.05985504388809204,0.06464344263076782
1716735789072319200,11.4563193359375,9.787796020507812,0.043095629662275314,0.05506663769483566
1716735789082319000,11.466319091796874,9.773430824279785,0.043095629662275314,0.05746084079146385
1716735789092319200,11.4763193359375,9.771036148071289,0.05027823522686958,0.05506663769483566
1716735789102319000,11.486319091796876,9.80216121673584,0.047884032130241394,0.06224924325942993
1716735789112319200,11.4963193359375,9.78061294555664,0.05267243832349777,0.0454898327589035
1716735789122319000,11.506319091796875,9.756670951843262,0.038307227194309235,0.047884032130241394
1716735789132319200,11.5163193359375,9.78061294555664,0.047884032130241394,0.035913024097681046
1716735789142319000,11.526319091796875,9.792584419250488,0.047884032130241394,0.028730420395731926
1716735789152319200,11.5363193359375,9.799766540527344,0.05027823522686958,0.05027823522686958
1716735789162319000,11.546319091796875,9.773430824279785,0.05027823522686958,0.05506663769483566
1716735789172319200,11.5563193359375,9.785401344299316,0.047884032130241394,0.033518824726343155
1716735789182319000,11.566319091796874,9.778219223022461,0.05267243832349777,0.0454898327589035
1716735789192319200,11.5763193359375,9.797372817993164,0.043095629662275314,0.05746084079146385
1716735789202319000,11.586319091796875,9.763854026794434,0.0454898327589035,0.047884032130241394
1716735789212319200,11.5963193359375,9.778219223022461,0.040701430290937424,0.05985504388809204
1716735789222319000,11.606319091796875,9.792584419250488,0.05506663769483566,0.035913024097681046
1716735789232319200,11.6163193359375,9.785401344299316,0.06464344263076782,0.05506663769483566
1716735789242319000,11.626319091796875,9.775824546813965,0.05027823522686958,0.07182604819536209
1716735789252319200,11.6363193359375,9.775824546813965,0.05027823522686958,0.06464344263076782
1716735789262319000,11.646319091796874,9.794978141784668,0.047884032130241394,0.05746084079146385
1716735789272319200,11.6563193359375,9.785401344299316,0.038307227194309235,0.05985504388809204
1716735789282319000,11.666319091796876,9.787796020507812,0.05746084079146385,0.05506663769483566
1716735789292319200,11.6763193359375,9.76864242553711,0.05506663769483566,0.047884032130241394
1716735789302319000,11.686319091796875,9.785401344299316,0.047884032130241394,0.038307227194309235
1716735789312319200,11.6963193359375,9.790189743041992,0.06224924325942993,0.0454898327589035
1716735789322319000,11.706319091796875,9.783007621765137,0.047884032130241394,0.047884032130241394
1716735789332319200,11.7163193359375,9.763854026794434,0.040701430290937424,0.05267243832349777
1716735789342319000,11.726319091796874,9.778219223022461,0.05267243832349777,0.035913024097681046
1716735789352319200,11.7363193359375,9.783007621765137,0.05267243832349777,0.043095629662275314
1716735789362319000,11.746319091796876,9.773430824279785,0.0694318488240242,0.05267243832349777
1716735789372319200,11.7563193359375,9.787796020507812,0.05267243832349777,0.0694318488240242
1716735789382319000,11.766319091796875,9.792584419250488,0.033518824726343155,0.05267243832349777
1716735789392319200,11.7763193359375,9.785401344299316,0.047884032130241394,0.05746084079146385
1716735789402319000,11.786319091796875,9.778219223022461,0.035913024097681046,0.05506663769483566
1716735789412319200,11.7963193359375,9.775824546813965,0.038307227194309235,0.047884032130241394
1716735789422319000,11.806319091796874,9.775824546813965,0.05027823522686958,0.05506663769483566
1716735789432319200,11.8163193359375,9.773430824279785,0.06703764945268631,0.047884032130241394
1716735789442319000,11.826319091796876,9.771036148071289,0.05506663769483566,0.0454898327589035
1716735789452319200,11.8363193359375,9.778219223022461,0.047884032130241394,0.05506663769483566
1716735789462319000,11.846319091796875,9.759065628051758,0.0454898327589035,0.06224924325942993
1716735789472319200,11.8563193359375,9.811738014221191,0.047884032130241394,0.06703764945268631
1716735789482319000,11.866319091796875,9.763854026794434,0.05027823522686958,0.06464344263076782
1716735789492319200,11.8763193359375,9.778219223022461,0.05506663769483566,0.05506663769483566
1716735789502319000,11.886319091796874,9.778219223022461,0.038307227194309235,0.0454898327589035
1716735789512319200,11.8963193359375,9.78061294555664,0.043095629662275314,0.05506663769483566
1716735789522319000,11.906319091796876,9.771036148071289,0.0454898327589035,0.0454898327589035
1716735789532319200,11.9163193359375,9.775824546813965,0.05506663769483566,0.05746084079146385
1716735789542319000,11.926319091796875,9.78061294555664,0.05985504388809204,0.05267243832349777
1716735789552319200,11.9363193359375,9.766247749328613,0.05027823522686958,0.038307227194309235
1716735789562319000,11.946319091796875,9.787796020507812,0.0694318488240242,0.05506663769483566
1716735789572319200,11.9563193359375,9.792584419250488,0.05746084079146385,0.05506663769483566
1716735789582319000,11.966319091796874,9.783007621765137,0.038307227194309235,0.040701430290937424
1716735789592319200,11.9763193359375,9.778219223022461,0.040701430290937424,0.06703764945268631
1716735789602319000,11.986319091796876,9.778219223022461,0.031124621629714966,0.05746084079146385
1716735789612319200,11.9963193359375,9.78061294555664,0.047884032130241394,0.038307227194309235
1716735789622319000,12.006319091796875,9.783007621765137,0.033518824726343155,0.05746084079146385
1716735789632319200,12.0163193359375,9.773430824279785,0.043095629662275314,0.0454898327589035
1716735789642319000,12.026319091796875,9.792584419250488,0.05267243832349777,0.06224924325942993
1716735789652319200,12.0363193359375,9.792584419250488,0.0454898327589035,0.05506663769483566
1716735789662319000,12.046319091796875,9.785401344299316,0.047884032130241394,0.05027823522686958
1716735789672319200,12.0563193359375,9.778219223022461,0.047884032130241394,0.019153613597154617
1716735789682319000,12.066319091796874,9.792584419250488,0.043095629662275314,0.05027823522686958
1716735789692319200,12.0763193359375,9.775824546813965,0.0454898327589035,0.035913024097681046
1716735789702319000,12.086319091796875,9.78061294555664,0.05027823522686958,0.0454898327589035
1716735789712319200,12.0963193359375,9.787796020507812,0.05027823522686958,0.047884032130241394
1716735789722319000,12.106319091796875,9.785401344299316,0.05985504388809204,0.035913024097681046
1716735789732319200,12.1163193359375,9.771036148071289,0.040701430290937424,0.05267243832349777
1716735789742319000,12.126319091796875,9.771036148071289,0.043095629662275314,0.035913024097681046
1716735789752319200,12.1363193359375,9.790189743041992,0.033518824726343155,0.05985504388809204
1716735789762319000,12.146319091796874,9.794978141784668,0.040701430290937424,0.043095629662275314
1716735789772319200,12.1563193359375,9.785401344299316,0.05506663769483566,0.05746084079146385
1716735789782319000,12.166319091796876,9.783007621765137,0.05267243832349777,0.0454898327589035
1716735789792319200,12.1763193359375,9.771036148071289,0.040701430290937424,0.05506663769483566
1716735789802319000,12.186319091796875,9.785401344299316,0.05506663769483566,0.0454898327589035
1716735789812319200,12.1963193359375,9.785401344299316,0.05267243832349777,0.06224924325942993
1716735789822319000,12.206319091796875,9.773430824279785,0.038307227194309235,0.06224924325942993
1716735789832319200,12.2163193359375,9.773430824279785,0.05267243832349777,0.0694318488240242
1716735789842319000,12.226319091796874,9.775824546813965,0.05267243832349777,0.043095629662275314
1716735789852319200,12.2363193359375,9.857227325439453,0.047884032130241394,0.019153613597154617
1716735789862319000,12.246319091796876,9.957783699035645,0.05506663769483566,0.05746084079146385
1716735789872319200,12.2563193359375,9.914688110351562,0.035913024097681046,0.06464344263076782
1716735789882319000,12.266319091796875,9.708786964416504,0.028730420395731926,0.07661445438861847
1716735789892319200,12.2763193359375,9.720758438110352,0.040701430290937424,0.05506663769483566
1716735789902319000,12.286319091796875,9.85962200164795,0.06224924325942993,0.06703764945268631
1716735789912319200,12.2963193359375,9.857227325439453,0.05985504388809204,0.07182604819536209
1716735789922319000,12.306319091796874,9.785401344299316,0.038307227194309235,0.043095629662275314
1716735789932319200,12.3163193359375,9.725546836853027,0.05267243832349777,0.05267243832349777
1716735789942319000,12.326319091796876,9.809343338012695,0.05027823522686958,0.05267243832349777
1716735789952319200,12.3363193359375,9.83807373046875,0.07182604819536209,0.05506663769483566
1716735789962319000,12.346319091796875,9.756670951843262,0.043095629662275314,0.05985504388809204
1716735789972319200,12.3563193359375,9.754277229309082,0.05746084079146385,0.05506663769483566
1716735789982319000,12.366319091796875,9.799766540527344,0.05267243832349777,0.05267243832349777
1716735789992319200,12.3763193359375,9.842862129211426,0.043095629662275314,0.043095629662275314
1716735790002319000,12.386319091796874,9.773430824279785,0.040701430290937424,0.035913024097681046
1716735790012319200,12.3963193359375,9.749488830566406,0.05746084079146385,0.047884032130241394
1716735790022319000,12.406319091796876,9.797372817993164,0.05027823522686958,0.043095629662275314
1716735790032319200,12.4163193359375,9.83568000793457,0.06464344263076782,0.05027823522686958
1716735790042319000,12.426319091796875,9.761459350585938,0.031124621629714966,0.040701430290937424
1716735790052319200,12.4363193359375,9.737517356872559,0.040701430290937424,0.0454898327589035
1716735790062319000,12.446319091796875,9.80216121673584,0.035913024097681046,0.05985504388809204
1716735790072319200,12.4563193359375,9.840468406677246,0.040701430290937424,0.043095629662275314
1716735790082319000,12.466319091796874,9.783007621765137,0.05267243832349777,0.05746084079146385
1716735790092319200,12.4763193359375,9.737517356872559,0.05985504388809204,0.06703764945268631
1716735790102319000,12.486319091796876,9.78061294555664,0.047884032130241394,0.043095629662275314
1716735790112319200,12.4963193359375,9.823708534240723,0.05027823522686958,0.0454898327589035
1716735790122319000,12.506319091796875,9.80216121673584,0.023942016065120697,0.05746084079146385
1716735790132319200,12.5163193359375,9.754277229309082,0.047884032130241394,0.06224924325942993
1716735790142319000,12.526319091796875,9.785401344299316,0.047884032130241394,0.047884032130241394
1716735790152319200,12.5363193359375,9.806949615478516,0.05267243832349777,0.05506663769483566
1716735790162319000,12.546319091796875,9.790189743041992,0.05267243832349777,0.07661445438861847
1716735790172319200,12.5563193359375,9.76864242553711,0.05506663769483566,0.05027823522686958
1716735790182319000,12.566319091796874,9.775824546813965,0.05506663769483566,0.035913024097681046
1716735790192319200,12.5763193359375,9.811738014221191,0.038307227194309235,0.0454898327589035
1716735790202319000,12.586319091796875,9.783007621765137,0.040701430290937424,0.05027823522686958
1716735790212319200,12.5963193359375,9.756670951843262,0.026336219161748886,0.07661445438861847
1716735790222319000,12.606319091796875,9.78061294555664,0.043095629662275314,0.047884032130241394
1716735790232319200,12.6163193359375,9.809343338012695,0.043095629662275314,0.043095629662275314
1716735790242319000,12.626319091796875,9.809343338012695,0.05506663769483566,0.033518824726343155
1716735790252319200,12.6363193359375,9.771036148071289,0.047884032130241394,0.06464344263076782
1716735790262319000,12.646319091796874,9.792584419250488,0.035913024097681046,0.05027823522686958
1716735790272319200,12.6563193359375,9.797372817993164,0.040701430290937424,0.06464344263076782
1716735790282319000,12.666319091796876,9.787796020507812,0.05506663769483566,0.05267243832349777
1716735790292319200,12.6763193359375,9.761459350585938,0.047884032130241394,0.06224924325942993
1716735790302319000,12.686319091796875,9.773430824279785,0.05746084079146385,0.06224924325942993
1716735790312319200,12.6963193359375,9.797372817993164,0.05267243832349777,0.043095629662275314
1716735790322319000,12.706319091796875,9.790189743041992,0.040701430290937424,0.0454898327589035
1716735790332319200,12.7163193359375,9.76864242553711,0.05746084079146385,0.0454898327589035
1716735790342319000,12.726319091796874,9.76864242553711,0.06703764945268631,0.05027823522686958
1716735790352319200,12.7363193359375,9.799766540527344,0.038307227194309235,0.06703764945268631
1716735790362319000,12.746319091796876,9.799766540527344,0.0454898327589035,0.05506663769483566
1716735790372319200,12.7563193359375,9.778219223022461,0.05267243832349777,0.023942016065120697
1716735790382319000,12.766319091796875,9.790189743041992,0.043095629662275314,0.05746084079146385
1716735790392319200,12.7763193359375,9.792584419250488,0.05746084079146385,0.05027823522686958
1716735790402319000,12.786319091796875,9.76864242553711,0.028730420395731926,0.0454898327589035
1716735790412319200,12.7963193359375,9.773430824279785,0.0454898327589035,0.05506663769483566
1716735790422319000,12.806319091796874,9.775824546813965,0.05506663769483566,0.043095629662275314
1716735790432319200,12.8163193359375,9.799766540527344,0.035913024097681046,0.05746084079146385
1716735790442319000,12.826319091796876,9.785401344299316,0.040701430290937424,0.047884032130241394
1716735790452319200,12.8363193359375,9.787796020507812,0.05746084079146385,0.06464344263076782
1716735790462318800,12.84631884765625,9.787796020507812,0.05267243832349777,0.05985504388809204
1716735790472318700,12.856318603515625,9.787796020507812,0.047884032130241394,0.05985504388809204
1716735790482318800,12.86631884765625,9.790189743041992,0.043095629662275314,0.05506663769483566
1716735790492318700,12.876318603515625,9.773430824279785,0.040701430290937424,0.05746084079146385
1716735790502318800,12.88631884765625,9.778219223022461,0.05267243832349777,0.040701430290937424
1716735790512318700,12.896318603515626,9.790189743041992,0.05985504388809204,0.06224924325942993
1716735790522318800,12.90631884765625,9.783007621765137,0.05506663769483566,0.06703764945268631
1716735790532318700,12.916318603515625,9.775824546813965,0.043095629662275314,0.05985504388809204
1716735790542318800,12.92631884765625,9.790189743041992,0.05027823522686958,0.040701430290937424
1716735790552318700,12.936318603515625,9.785401344299316,0.05027823522686958,0.05267243832349777
1716735790562318800,12.94631884765625,9.806949615478516,0.06703764945268631,0.06464344263076782
1716735790572318700,12.956318603515625,9.794978141784668,0.05027823522686958,0.040701430290937424
1716735790582318800,12.96631884765625,9.785401344299316,0.0454898327589035,0.05746084079146385
1716735790592318700,12.976318603515624,9.775824546813965,0.033518824726343155,0.040701430290937424
1716735790602318800,12.98631884765625,9.783007621765137,0.05985504388809204,0.028730420395731926
1716735790612318700,12.996318603515626,9.783007621765137,0.05267243832349777,0.06224924325942993
1716735790622318800,13.00631884765625,9.785401344299316,0.035913024097681046,0.05506663769483566
1716735790632318700,13.016318603515625,9.785401344299316,0.043095629662275314,0.05985504388809204
